primePerson;primeGender;prime;primeEmotion;corrAnsPrime;target;targetEmotion;corrAnsTar;Cond;ID_Primer;ID_Target;JitterTime;Condition;example.thisRepN;example.thisTrialN;example.thisN;example.thisIndex;study.thisRepN;study.thisTrialN;study.thisN;study.thisIndex;MR_trigger_time;MR_trigger_number;text_intro.started;text_intro.stopped;text_probe.started;text_probe.stopped;polygon_ISI.started;polygon_ISI.stopped;polygon.started;polygon.stopped;primerImage.started;primerImage.stopped;response.started;response.stopped;key_resp.keys;key_resp.corr;key_resp.started;key_resp.stopped;slider_Text.started;slider_Text.stopped;slider_ex.response;slider_ex.rt;slider_ex.history;slider_ex.started;slider_ex.stopped;Rating;slider_resp_response.keys;slider_resp_response.rt;slider_resp_response.started;slider_resp_response.stopped;key_resp.rt;text_start.started;text_start.stopped;text_slider.started;text_slider.stopped;slider_stud.response;slider_stud.rt;slider_stud.history;slider_stud.started;slider_stud.stopped;slider_resp_study.keys;slider_resp_study.rt;slider_resp_study.started;slider_resp_study.stopped;text_ende.started;text_ende.stopped;participant;date;expName;psychopyVersion;frameRate;
1111;m;1111_m_m_h_a.jpg;happy;9;example_30.4ns.avi;neutral;7;incongruent;120.0;170.0;189.5874364012288;;0;0;0;0;;;;;19.642883199999687;1;19.721518999999716;21.721620999999686;21.721620999999686;None;23.75486580000006;None;26.179710599999908;26.504838199999995;27.637916799999857;27.65459069999997;31.988202699999874;None;None;0;31.988202699999874;None;33.56275490000007;None;None;None;[];33.56275490000007;None;6;['9'];[0.037369699999999284];33.56275490000007;None;;;;;;;;;;;;;;;;;S11941;2022_Dec_20_1623;VideoMask;2021.1.2;120.06488306306387;
1113;f;1113_y_f_s_a.jpg;sad;7;example_30.3ns.avi;neutral;7;incongruent;130.0;170.0;229.02432995836998;;0;1;1;1;;;;;;;;;;;36.55479719999994;None;38.69593239999995;39.021075599999676;40.23763589999999;40.2543456999997;42.146040600000106;None;8;0;42.146040600000106;None;43.695853499999885;None;None;None;[];43.695853499999885;None;5;None;;43.695853499999885;None;0.7981602999998358;;;;;;;;;;;;;;;;S11941;2022_Dec_20_1623;VideoMask;2021.1.2;120.06488306306387;
9.0;f;019_m_f_h_a.jpg;happy;9.0;sad_115.1.wmv;sad;7.0;incongruent;120.0;160.0;128.09063432376465;h_s;;;;;0;0;0;0;;;;;;;47.745819299999766;None;49.0456494;49.37075259999983;50.5135250999997;50.537286199999926;52.51226039999983;None;7;0;52.51226039999983;None;;;;;;;;3;;;;;0.9278861999996479;46.72923270000001;None;54.06211949999988;None;None;None;[];54.06211949999988;None;"['7', '7']";"[0.8343328999999358, 1.849985199999992]";54.06211949999988;None;;;S11941;2022_Dec_20_1623;VideoMask;2021.1.2;120.06488306306387;
3.0;m;033_o_m_s_a.jpg;sad;7.0;sad_94.2ns.avi;sad;7.0;congruent;130.0;160.0;182.29120173647655;s_s;;;;;0;1;1;1;;;;;;;57.06219460000011;None;58.81206799999973;59.12873809999974;60.287072499999795;60.30371209999976;62.95361099999991;None;None;0;62.95361099999991;None;;;;;;;;4;;;;;;;;64.50358150000011;None;None;None;[];64.50358150000011;None;['7'];[0.28874729999961346];64.50358150000011;None;;;S11941;2022_Dec_20_1623;VideoMask;2021.1.2;120.06488306306387;
8.0;m;008_y_m_h_a.jpg;happy;9.0;happy_26.1ns.avi;happy;9.0;congruent;120.0;150.0;155.9437854594882;h_h;;;;;0;2;2;2;;;;;;;67.50363299999981;None;69.01167910000004;69.33663909999996;70.4950375999997;70.5116509999998;72.45331140000008;None;None;0;72.45331140000008;None;;;;;;;;5;;;;;;;;74.00308619999987;None;None;None;[];74.00308619999987;None;None;;74.00308619999987;None;;;S11941;2022_Dec_20_1623;VideoMask;2021.1.2;120.06488306306387;
0.0;f;040_y_f_h_a.jpg;happy;9.0;sad_138.1.wmv;sad;7.0;incongruent;120.0;160.0;133.99071306426532;h_s;;;;;0;3;3;3;;;;;;;77.03658799999994;None;78.37803200000008;78.7031377999997;79.8281692999999;79.8448155000001;81.82801669999981;None;None;0;81.82801669999981;None;;;;;;;;4;;;;;;;;83.37783669999999;None;None;None;[];83.37783669999999;None;"['7', '7']";"[0.8862406999996892, 1.4381933999998182]";83.37783669999999;None;;;S11941;2022_Dec_20_1623;VideoMask;2021.1.2;120.06488306306387;
8.0;f;028_y_f_s_a.jpg;sad;7.0;sad_64.2ns.avi;sad;7.0;congruent;130.0;160.0;229.88540597086478;s_s;;;;;0;4;4;4;;;;;;;86.38676029999988;None;88.59441579999975;88.91944859999967;90.11936089999972;90.13606679999975;101.04405489999999;None;None;0;101.04405489999999;None;;;;;;;;5;;;;;;;;102.59388519999993;None;None;None;[];102.59388519999993;None;None;;102.59388519999993;None;;;S11941;2022_Dec_20_1623;VideoMask;2021.1.2;120.06488306306387;
7.0;m;027_o_m_s_a.jpg;sad;7.0;sad_10.4ns.avi;sad;7.0;congruent;130.0;160.0;185.20129417468752;s_s;;;;;0;5;5;5;;;;;;;105.61897150000004;None;107.37713799999983;107.70228859999997;108.86207569999988;108.88542139999981;111.99371909999991;None;7;0;111.99371909999991;None;;;;;;;;5;;;;;1.1342042999999649;;;113.54362880000008;None;None;None;[];113.54362880000008;None;None;;113.54362880000008;None;;;S11941;2022_Dec_20_1623;VideoMask;2021.1.2;120.06488306306387;
2.0;f;012_o_f_s_a.jpg;sad;7.0;sad_7.5ns.avi;sad;7.0;congruent;130.0;160.0;220.27842655424388;s_s;;;;;0;6;6;6;;;;;;;116.57687499999975;None;118.61005909999994;118.92677709999998;120.07668590000003;120.09343349999972;122.85168969999995;None;7;0;122.85168969999995;None;;;;;;;;4;;;;;0.596352300000035;;;124.40162539999983;None;None;None;[];124.40162539999983;None;['7'];[0.5505004999999983];124.40162539999983;None;;;S11941;2022_Dec_20_1623;VideoMask;2021.1.2;120.06488306306387;
2.0;f;012_o_f_h_a.jpg;happy;9.0;happy_27.1ns.avi;happy;9.0;congruent;120.0;150.0;146.44967055810616;h_h;;;;;0;7;7;7;;;;;;;127.40197259999968;None;128.82644549999986;129.15153269999973;130.31814399999985;130.33455950000007;132.76804219999985;None;9;0;132.76804219999985;None;;;;;;;;7;;;;;0.9599382999999762;;;134.31797830000005;None;None;None;[];134.31797830000005;None;"['9', '9', '9']";"[0.5780294999999569, 0.9860143999999309, 1.5540648000001056]";134.31797830000005;None;;;S11941;2022_Dec_20_1623;VideoMask;2021.1.2;120.06488306306387;
8.0;f;028_y_f_h_a.jpg;happy;9.0;sad_119.1.wmv;sad;7.0;incongruent;120.0;160.0;148.71526953572538;h_s;;;;;0;8;8;8;;;;;;;137.32639900000004;None;138.78437480000002;139.10953040000004;140.2426889999997;140.26004919999968;142.30108359999986;None;7;0;142.30108359999986;None;;;;;;;;5;;;;;0.8909416000001329;;;144.05098989999988;None;None;None;[];144.05098989999988;None;None;;144.05098989999988;None;;;S11941;2022_Dec_20_1623;VideoMask;2021.1.2;120.06488306306387;
6.0;m;016_y_m_s_a.jpg;sad;7.0;happy_60.4ns.avi;happy;9.0;incongruent;130.0;150.0;126.02367393611817;s_h;;;;;0;9;9;9;;;;;;;147.07589899999994;None;148.3508750000001;148.66741199999979;149.85067729999992;149.86736279999968;155.59229400000004;None;9;0;155.59229400000004;None;;;;;;;;6;;;;;1.447799500000201;;;157.1421247999997;None;None;None;[];157.1421247999997;None;['9'];[1.7539193000002342];157.1421247999997;None;;;S11941;2022_Dec_20_1623;VideoMask;2021.1.2;120.06488306306387;
9.0;f;019_m_f_s_a.jpg;sad;7.0;sad_8.4ns.avi;sad;7.0;congruent;130.0;160.0;171.6633093155257;s_s;;;;;0;10;10;10;;;;;;;160.14272859999983;None;161.8253910999997;162.1504501999998;163.35042539999995;163.36691629999996;171.4084445999997;None;None;0;171.4084445999997;None;;;;;;;;5;;;;;;;;172.95843549999972;None;None;None;[];172.95843549999972;None;None;;172.95843549999972;None;;;S11941;2022_Dec_20_1623;VideoMask;2021.1.2;120.06488306306387;
4.0;m;004_o_m_h_a.jpg;happy;9.0;happy_1.1ns.avi;happy;9.0;congruent;120.0;150.0;203.50057144619865;h_h;;;;;0;11;11;11;;;;;;;175.99166960000002;None;177.97477690000005;178.29988529999991;179.46653259999994;179.48317309999993;193.91607029999977;None;9;0;193.91607029999977;None;;;;;;;;7;;;;;1.2198088000000098;;;195.46614809999983;None;None;None;[];195.46614809999983;None;"['9', '9']";"[0.5178058000001329, 0.7576301999997668]";195.46614809999983;None;;;S11941;2022_Dec_20_1623;VideoMask;2021.1.2;120.06488306306387;
7.0;m;027_o_m_h_a.jpg;happy;9.0;happy_20.1ns.avi;happy;9.0;congruent;120.0;150.0;152.91127178874285;h_h;;;;;0;12;12;12;;;;;;;198.47457269999995;None;199.97408229999974;200.29920970000012;201.49084999999968;201.50748209999983;204.44070929999998;None;None;0;204.44070929999998;None;;;;;;;;7;;;;;;;;206.05719409999983;None;None;None;[];206.05719409999983;None;"['9', '9', '9', '9', '9']";"[0.5106784999998126, 0.8947723999999653, 1.4949496999997791, 2.05478630000016, 2.5586671000000933]";206.05719409999983;None;;;S11941;2022_Dec_20_1623;VideoMask;2021.1.2;120.06488306306387;
0.0;f;040_y_f_s_a.jpg;sad;7.0;sad_94.3ns.avi;sad;7.0;congruent;130.0;160.0;155.27414203894395;s_s;;;;;0;13;13;13;;;;;;;209.0659966999997;None;210.57373729999972;210.8988816000001;212.09028549999994;212.10716189999994;214.64875919999986;None;8;0;214.64875919999986;None;;;;;;;;5;;;;;0.9512676999997893;;;216.19863570000007;None;None;None;[];216.19863570000007;None;None;;216.19863570000007;None;;;S11941;2022_Dec_20_1623;VideoMask;2021.1.2;120.06488306306387;
0.0;f;030_o_f_s_a.jpg;sad;7.0;sad_68.1ns.avi;sad;7.0;congruent;130.0;160.0;158.9411396037211;s_s;;;;;0;14;14;14;;;;;;;219.23190870000008;None;220.79023319999988;221.10682139999972;222.3067148;222.32331239999985;229.66493599999967;None;7;0;229.66493599999967;None;;;;;;;;4;;;;;0.8632265000001098;;;231.2148247;None;None;None;[];231.2148247;None;['7'];[0.7455700999998953];231.2148247;None;;;S11941;2022_Dec_20_1623;VideoMask;2021.1.2;120.06488306306387;
0.0;f;030_o_f_h_a.jpg;happy;9.0;sad_127.1.wmv;sad;7.0;incongruent;120.0;160.0;180.59976631384873;h_s;;;;;0;15;15;15;;;;;;;234.22309219999988;None;235.95624270000008;236.28136059999997;237.42307699999992;237.4395897999998;239.40633320000006;None;7;0;239.40633320000006;None;;;;;;;;4;;;;;0.969523400000071;;;240.95625739999969;None;None;None;[];240.95625739999969;None;['7'];[1.3556862000000365];240.95625739999969;None;;;S11941;2022_Dec_20_1623;VideoMask;2021.1.2;120.06488306306387;
8.0;m;008_y_m_s_a.jpg;sad;7.0;happy_133.3.wmv;happy;9.0;incongruent;130.0;150.0;152.577966552593;s_h;;;;;0;16;16;16;;;;;;;243.96448920000012;None;245.4476649999997;245.77273100000002;246.89774579999994;246.91430420000006;248.89766229999987;None;None;0;248.89766229999987;None;;;;;;;;7;;;;;;;;250.49753809999993;None;None;None;[];250.49753809999993;None;"['9', '9']";"[0.3984523999997691, 1.4385569999999461]";250.49753809999993;None;;;S11941;2022_Dec_20_1623;VideoMask;2021.1.2;120.06488306306387;
3.0;m;033_o_m_h_a.jpg;happy;9.0;sad_128.1.wmv;sad;7.0;incongruent;120.0;160.0;171.0492454518585;h_s;;;;;0;17;17;17;;;;;;;253.4978888999999;None;255.1557432999998;255.4807424999999;256.61392769999975;256.63054729999976;258.6056411999998;None;8;0;258.6056411999998;None;;;;;;;;5;;;;;1.2021610000001601;;;260.15561320000006;None;None;None;[];260.15561320000006;None;None;;260.15561320000006;None;;;S11941;2022_Dec_20_1623;VideoMask;2021.1.2;120.06488306306387;
1.0;f;021_o_f_h_a.jpg;happy;9.0;sad_116.1.wmv;sad;7.0;incongruent;120.0;160.0;184.06847610053055;h_s;;;;;0;18;18;18;;;;;;;263.1802947000001;None;264.9303141999999;265.24698309999985;266.3970101;266.41369510000004;268.38023729999986;None;7;0;268.38023729999986;None;;;;;;;;5;;;;;1.2836907000000792;;;269.9302419999999;None;None;None;[];269.9302419999999;None;None;;269.9302419999999;None;;;S11941;2022_Dec_20_1623;VideoMask;2021.1.2;120.06488306306387;
4.0;m;004_o_m_s_a.jpg;sad;7.0;happy_28.1ns.avi;happy;9.0;incongruent;130.0;150.0;157.40741103039684;s_h;;;;;0;19;19;19;;;;;;;272.9635266;None;274.49677699999984;274.8217946999998;275.9882752999997;276.0050507000001;280.3383183000001;None;9;0;280.3383183000001;None;;;;;;;;7;;;;;0.7496095000001333;;;281.8882453000001;None;None;None;[];281.8882453000001;None;"['9', '9']";"[0.4876785999999811, 0.7597843000003195]";281.8882453000001;None;;;S11941;2022_Dec_20_1623;VideoMask;2021.1.2;120.06488306306387;
8.0;f;028_y_f_s_a.jpg;sad;7.0;happy_122.3.wmv;happy;9.0;incongruent;130.0;150.0;171.8670540936116;s_h;;;;;0;20;20;20;;;;;;;284.88841939999975;None;286.5379508000001;286.8630978000001;287.99633349999976;288.0130086999998;289.9879397999998;None;9;0;289.9879397999998;None;;;;;;;;7;;;;;1.2920591000001878;;;291.5378929999997;None;None;None;[];291.5378929999997;None;"['9', '9']";"[0.6540257999999994, 0.9260052999998152]";291.5378929999997;None;;;S11941;2022_Dec_20_1623;VideoMask;2021.1.2;120.06488306306387;
8.0;m;008_y_m_s_a.jpg;sad;7.0;sad_6.5ns.avi;sad;7.0;congruent;130.0;160.0;170.39333839271438;s_s;;;;;0;21;21;21;;;;;;;294.5462045999998;None;296.2126020999999;296.53776819999985;297.71270460000005;297.72935529999995;302.6797713000001;None;7;0;302.6797713000001;None;;;;;;;;5;;;;;0.8001620999998522;;;304.23748309999974;None;None;None;[];304.23748309999974;None;None;;304.23748309999974;None;;;S11941;2022_Dec_20_1623;VideoMask;2021.1.2;120.06488306306387;
8.0;f;028_y_f_h_a.jpg;happy;9.0;happy_23.1ns.avi;happy;9.0;congruent;120.0;150.0;225.70986890587952;h_h;;;;;0;22;22;22;;;;;;;307.2624105;None;309.3622580000001;309.67881639999996;310.8371216999999;310.8538126999997;315.3871476999998;None;9;0;315.3871476999998;None;;;;;;;;7;;;;;1.076752999999826;;;316.9370524000001;None;None;None;[];316.9370524000001;None;"['9', '9']";"[0.7746041000000332, 1.046751200000017]";316.9370524000001;None;;;S11941;2022_Dec_20_1623;VideoMask;2021.1.2;120.06488306306387;
8.0;m;008_y_m_h_a.jpg;happy;9.0;sad_111.1.wmv;sad;7.0;incongruent;120.0;160.0;152.63076835312847;h_s;;;;;0;23;23;23;;;;;;;319.93746539999984;None;321.4284325999997;321.75359690000005;322.8967168999998;322.9201481;324.8785081000001;None;7;0;324.8785081000001;None;;;;;;;;5;;;;;0.9693699999997989;;;326.5116966999999;None;None;None;[];326.5116966999999;None;None;;326.5116966999999;None;;;S11941;2022_Dec_20_1623;VideoMask;2021.1.2;120.06488306306387;
0.0;f;040_y_f_s_a.jpg;sad;7.0;sad_67.2ns.avi;sad;7.0;congruent;130.0;160.0;220.9892697323079;s_s;;;;;0;24;24;24;;;;;;;329.53664179999987;None;331.6282566;331.95325;333.11159529999986;333.12823709999975;342.30292229999986;None;7;0;342.30292229999986;None;;;;;;;;3;;;;;1.216859900000145;;;343.8528637999998;None;None;None;[];343.8528637999998;None;"['7', '7', '7']";"[0.7070334999998522, 1.0109229999998206, 1.4589872999999898]";343.8528637999998;None;;;S11941;2022_Dec_20_1623;VideoMask;2021.1.2;120.06488306306387;
8.0;m;008_y_m_s_a.jpg;sad;7.0;happy_29.1ns.avi;happy;9.0;incongruent;130.0;150.0;120.0316142834122;s_h;;;;;0;25;25;25;;;;;;;346.86149019999993;None;348.07764;348.40274980000004;349.5776541;349.5943446000001;352.21925740000006;None;9;0;352.21925740000006;None;;;;;;;;6;;;;;1.0765646999998353;;;353.76919009999983;None;None;None;[];353.76919009999983;None;['9'];[1.2226621999998315];353.76919009999983;None;;;S11941;2022_Dec_20_1623;VideoMask;2021.1.2;120.06488306306387;
6.0;m;016_y_m_s_a.jpg;sad;7.0;sad_8.3ns.avi;sad;7.0;congruent;130.0;160.0;152.85371098242734;s_s;;;;;0;26;26;26;;;;;;;356.77786479999986;None;358.30239819999997;358.62738850000005;359.8273200999997;359.8527669;367.51039709999986;None;None;0;367.51039709999986;None;;;;;;;;5;;;;;;;;369.1104375;None;None;None;[];369.1104375;None;None;;369.1104375;None;;;S11941;2022_Dec_20_1623;VideoMask;2021.1.2;120.06488306306387;
6.0;m;016_y_m_h_a.jpg;happy;9.0;sad_114.1.wmv;sad;7.0;incongruent;120.0;160.0;136.20550699298644;h_s;;;;;0;27;27;27;;;;;;;372.1436100000001;None;373.4934647;373.8185801999998;374.9436105;374.9601325999997;376.94345889999977;None;7;0;376.94345889999977;None;;;;;;;;5;;;;;0.9442715000000135;;;378.49338119999993;None;None;None;[];378.49338119999993;None;None;;378.49338119999993;None;;;S11941;2022_Dec_20_1623;VideoMask;2021.1.2;120.06488306306387;
7.0;m;027_o_m_s_a.jpg;sad;7.0;happy_117.3.wmv;happy;9.0;incongruent;130.0;150.0;215.61964028550614;s_h;;;;;0;28;28;28;;;;;;;381.5265316;None;383.5431848999997;383.8682799999997;384.99327889999995;385.0098561;386.9930982000001;None;None;0;386.9930982000001;None;;;;;;;;5;;;;;;;;388.5429279;None;None;None;[];388.5429279;None;None;;388.5429279;None;;;S11941;2022_Dec_20_1623;VideoMask;2021.1.2;120.06488306306387;
6.0;m;016_y_m_h_a.jpg;happy;9.0;happy_9.2ns.avi;happy;9.0;congruent;120.0;150.0;130.52042428082717;h_h;;;;;0;29;29;29;;;;;;;391.5679184999999;None;392.90126539999983;393.2262403999998;394.40959780000003;394.4261512999997;400.2843420999998;None;9;0;400.2843420999998;None;;;;;;;;7;;;;;1.4354206999996677;;;401.8342204999999;None;None;None;[];401.8342204999999;None;"['9', '9']";"[0.8377112999996825, 1.133719199999632]";401.8342204999999;None;;;S11941;2022_Dec_20_1623;VideoMask;2021.1.2;120.06488306306387;
0.0;f;040_y_f_s_a.jpg;sad;7.0;happy_127.3.wmv;happy;9.0;incongruent;130.0;150.0;131.7195455720239;s_h;;;;;0;30;30;30;;;;;;;404.8429624999999;None;406.1590467000001;406.48416039999984;407.6090647000001;407.62577280000005;409.67575609999994;None;9;0;409.67575609999994;None;;;;;;;;5;;;;;0.8681315000003451;;;411.2256792999997;None;None;None;[];411.2256792999997;None;None;;411.2256792999997;None;;;S11941;2022_Dec_20_1623;VideoMask;2021.1.2;120.06488306306387;
0.0;f;030_o_f_s_a.jpg;sad;7.0;happy_125.3.wmv;happy;9.0;incongruent;130.0;150.0;220.51454909128134;s_h;;;;;0;31;31;31;;;;;;;414.25058880000006;None;416.3087322000001;416.6338421999999;417.7671726999997;417.7837964999999;419.7586984999998;None;None;0;419.7586984999998;None;;;;;;;;8;;;;;;;;421.3086126999997;None;None;None;[];421.3086126999997;None;"['9', '9', '9', '9', '9']";"[0.01904240000021673, 0.6114061000002948, 0.8189955000002556, 1.1952154000000519, 1.5471416000000318]";421.3086126999997;None;;;S11941;2022_Dec_20_1623;VideoMask;2021.1.2;120.06488306306387;
0.0;f;030_o_f_s_a.jpg;sad;7.0;sad_64.3ns.avi;sad;7.0;congruent;130.0;160.0;165.78667874766072;s_s;;;;;0;32;32;32;;;;;;;424.31695390000004;None;425.9167585;426.2418656;427.4250351999999;427.4416289999999;432.3839683000001;None;7;0;432.3839683000001;None;;;;;;;;4;;;;;1.415592800000013;;;433.94155580000006;None;None;None;[];433.94155580000006;None;"['7', '7']";"[0.762366099999781, 1.234171300000071]";433.94155580000006;None;;;S11941;2022_Dec_20_1623;VideoMask;2021.1.2;120.06488306306387;
3.0;m;013_y_m_s_a.jpg;sad;7.0;sad_7.7ns.avi;sad;7.0;congruent;130.0;160.0;196.24182255763262;s_s;;;;;0;33;33;33;;;;;;;436.9417592;None;438.8163179999997;439.1330938000001;440.29958480000005;440.31637550000005;446.26611019999973;None;7;0;446.26611019999973;None;;;;;;;;3;;;;;0.8615425000002688;;;447.81621159999986;None;None;None;[];447.81621159999986;None;"['7', '7']";"[0.5514829999997346, 0.8797191999997267]";447.81621159999986;None;;;S11941;2022_Dec_20_1623;VideoMask;2021.1.2;120.06488306306387;
3.0;m;013_y_m_h_a.jpg;happy;9.0;happy_9.1ns.avi;happy;9.0;congruent;120.0;150.0;165.1890303600433;h_h;;;;;0;34;34;34;;;;;;;450.8164468;None;452.4326731000001;452.75766699999986;453.95924939999986;453.99098090000007;457.1074681;None;9;0;457.1074681;None;;;;;;;;6;;;;;1.0044522999996843;;;458.6575309;None;None;None;[];458.6575309;None;['9'];[0.5343717999999171];458.6575309;None;;;S11941;2022_Dec_20_1623;VideoMask;2021.1.2;120.06488306306387;
4.0;m;004_o_m_h_a.jpg;happy;9.0;sad_95.1ns.avi;sad;7.0;incongruent;120.0;160.0;152.68270002069931;h_s;;;;;0;35;35;35;;;;;;;461.6574111;None;463.2073277999998;463.5323318999999;464.6989361000001;464.71653979999974;473.4490657000001;None;None;0;473.4490657000001;None;;;;;;;;3;;;;;;;;475.00690140000006;None;None;None;[];475.00690140000006;None;"['7', '7', '7']";"[0.12881279999965045, 0.7606716000000233, 1.1767962999997508]";475.00690140000006;None;;;S11941;2022_Dec_20_1623;VideoMask;2021.1.2;120.06488306306387;
3.0;m;013_y_m_h_a.jpg;happy;9.0;sad_113.2.wmv;sad;7.0;incongruent;120.0;160.0;217.4973891947951;h_s;;;;;0;36;36;36;;;;;;;478.01565519999986;None;480.06501089999983;480.3901184000001;481.53181429999995;481.5484591999998;483.51501329999974;None;None;0;483.51501329999974;None;;;;;;;;5;;;;;;;;485.06499099999974;None;None;None;[];485.06499099999974;None;None;;485.06499099999974;None;;;S11941;2022_Dec_20_1623;VideoMask;2021.1.2;120.06488306306387;
4.0;m;004_o_m_h_a.jpg;happy;9.0;happy_25.1ns.avi;happy;9.0;congruent;120.0;150.0;216.63044503818386;h_h;;;;;0;37;37;37;;;;;;;488.0898715999997;None;490.1229797000001;490.4480891999997;491.6313623000001;491.64807199999996;495.26459750000004;None;9;0;495.26459750000004;None;;;;;;;;6;;;;;0.7032742000001235;;;496.81457509999973;None;None;None;[];496.81457509999973;None;['9'];[1.065121999999974];496.81457509999973;None;;;S11941;2022_Dec_20_1623;VideoMask;2021.1.2;120.06488306306387;
4.0;m;004_o_m_s_a.jpg;sad;7.0;happy_131.2.wmv;happy;9.0;incongruent;130.0;150.0;181.38407540847405;s_h;;;;;0;38;38;38;;;;;;;499.8232135999997;None;501.5642493999999;501.88939679999976;503.02253919999976;503.0392103999998;505.0142827999998;None;9;0;505.0142827999998;None;;;;;;;;6;;;;;1.0412867000000006;;;506.56419659999983;None;None;None;[];506.56419659999983;None;['9'];[0.6359065000001465];506.56419659999983;None;;;S11941;2022_Dec_20_1623;VideoMask;2021.1.2;120.06488306306387;
0.0;f;040_y_f_h_a.jpg;happy;9.0;happy_24.3ns.avi;happy;9.0;congruent;120.0;150.0;213.25460698950434;h_h;;;;;0;39;39;39;;;;;;;509.57265789999974;None;511.5473272999998;511.87242609999976;513.0558431;513.0723505000001;514.9222970000001;None;9;0;514.9222970000001;None;;;;;;;;5;;;;;1.1573825000000397;;;516.4722125999997;None;None;None;[];516.4722125999997;None;None;;516.4722125999997;None;;;S11941;2022_Dec_20_1623;VideoMask;2021.1.2;120.06488306306387;
2.0;f;012_o_f_s_a.jpg;sad;7.0;happy_139.1.wmv;happy;9.0;incongruent;130.0;150.0;162.31500468041804;s_h;;;;;0;40;40;40;;;;;;;519.4971990999998;None;521.0553384;521.3804686999997;522.513731;522.5303807999999;524.5136785999998;None;9;0;524.5136785999998;None;;;;;;;;6;;;;;1.310040200000003;;;526.0635948999998;None;None;None;[];526.0635948999998;None;['9'];[0.8560071000001699];526.0635948999998;None;;;S11941;2022_Dec_20_1623;VideoMask;2021.1.2;120.06488306306387;
0.0;f;030_o_f_h_a.jpg;happy;9.0;happy_24.1ns.avi;happy;9.0;congruent;120.0;150.0;168.36256624020774;h_h;;;;;0;41;41;41;;;;;;;529.0722664999998;None;530.7133424999997;531.0384426;532.230208;532.2466331;535.4882558999998;None;9;0;535.4882558999998;None;;;;;;;;7;;;;;1.1674302000001262;;;537.0382354999997;None;None;None;[];537.0382354999997;None;"['9', '9', '9']";"[0.8655406999996558, 1.1533313999998427, 1.5295843999997487]";537.0382354999997;None;;;S11941;2022_Dec_20_1623;VideoMask;2021.1.2;120.06488306306387;
2.0;f;012_o_f_h_a.jpg;happy;9.0;sad_113.1.wmv;sad;7.0;incongruent;120.0;160.0;177.44551734737394;h_s;;;;;0;42;42;42;;;;;;;540.0465844999999;None;541.7296311999999;542.0547855;543.1878308999999;543.2045528999997;545.1796420999999;None;7;0;545.1796420999999;None;;;;;;;;5;;;;;1.0840425000001233;;;546.7295819000001;None;None;None;[];546.7295819000001;None;None;;546.7295819000001;None;;;S11941;2022_Dec_20_1623;VideoMask;2021.1.2;120.06488306306387;
3.0;m;033_o_m_s_a.jpg;sad;7.0;sad_64.5ns.avi;sad;7.0;congruent;130.0;160.0;130.55717223801247;s_s;;;;;0;43;43;43;;;;;;;549.7546213;None;551.0878201;551.4127837000001;552.5627307;552.5792551;559.1208684999997;None;7;0;559.1208684999997;None;;;;;;;;4;;;;;1.3908199000002242;;;560.6708355000001;None;None;None;[];560.6708355000001;None;['7'];[0.6090186999999787];560.6708355000001;None;;;S11941;2022_Dec_20_1623;VideoMask;2021.1.2;120.06488306306387;
7.0;m;027_o_m_h_a.jpg;happy;9.0;sad_117.1.wmv;sad;7.0;incongruent;120.0;160.0;181.28665202824095;h_s;;;;;0;44;44;44;;;;;;;563.6711329;None;565.4121941999997;565.7373542999999;566.8706391999999;566.8873026000001;568.8621822999999;None;7;0;568.8621822999999;None;;;;;;;;5;;;;;1.0413969999999608;;;570.4121467999998;None;None;None;[];570.4121467999998;None;None;;570.4121467999998;None;;;S11941;2022_Dec_20_1623;VideoMask;2021.1.2;120.06488306306387;
3.0;m;033_o_m_s_a.jpg;sad;7.0;happy_126.3.wmv;happy;9.0;incongruent;130.0;150.0;198.85252030535366;s_h;;;;;0;45;45;45;;;;;;;573.4453924999998;None;575.3286229999999;575.6537294999998;576.7869099;576.8036290999999;578.7785879999997;None;None;0;578.7785879999997;None;;;;;;;;7;;;;;;;;580.3200813999997;None;None;None;[];580.3200813999997;None;"['9', '9']";"[0.015600999999605847, 1.0154083999996146]";580.3200813999997;None;;;S11941;2022_Dec_20_1623;VideoMask;2021.1.2;120.06488306306387;
3.0;m;033_o_m_h_a.jpg;happy;9.0;sad_136.1.wmv;sad;7.0;incongruent;120.0;160.0;176.97002883463455;h_s;;;;;0;46;46;46;;;;;;;583.3371161999999;None;585.0198866000001;585.3449615999998;586.4699427999999;586.4865516;588.4698717000001;None;None;0;588.4698717000001;None;;;;;;;;3;;;;;;;;590.0199459999999;None;None;None;[];590.0199459999999;None;"['7', '7', '7']";"[0.2276123000001462, 0.7156057000001965, 1.0596540000001369]";590.0199459999999;None;;;S11941;2022_Dec_20_1623;VideoMask;2021.1.2;120.06488306306387;
9.0;f;019_m_f_h_a.jpg;happy;9.0;happy_10.1ns.avi;happy;9.0;congruent;120.0;150.0;157.2463435658512;h_h;;;;;0;47;47;47;;;;;;;593.0284985999997;None;594.6030401999997;594.9280622000001;596.1197127;596.1362478000001;603.5027010999997;None;9;0;603.5027010999997;None;;;;;;;;5;;;;;0.8328194999999141;;;605.0527047999999;None;None;None;[];605.0527047999999;None;None;;605.0527047999999;None;;;S11941;2022_Dec_20_1623;VideoMask;2021.1.2;120.06488306306387;
2.0;f;012_o_f_h_a.jpg;happy;9.0;happy_2.2ns.avi;happy;9.0;congruent;120.0;150.0;206.34800317295262;h_h;;;;;0;48;48;48;;;;;;;608.0775980999997;None;610.0608410999998;610.3774152999999;611.5525561;611.5774842000001;623.7187629999999;None;9;0;623.7187629999999;None;;;;;;;;7;;;;;1.2488815000001523;;;625.2686954999999;None;None;None;[];625.2686954999999;None;"['9', '9']";"[0.6670230999998239, 0.9468007000000398]";625.2686954999999;None;;;S11941;2022_Dec_20_1623;VideoMask;2021.1.2;120.06488306306387;
3.0;m;033_o_m_h_a.jpg;happy;9.0;happy_24.2ns.avi;happy;9.0;congruent;120.0;150.0;167.9423847659953;h_h;;;;;0;49;49;49;;;;;;;628.2775305;None;629.9101218000001;630.2267474999999;631.3852208999997;631.4018688000001;635.0850236000001;None;9;0;635.0850236000001;None;;;;;;;;7;;;;;0.9548472000001311;;;636.6349110000001;None;None;None;[];636.6349110000001;None;"['9', '9']";"[0.6126916000002893, 0.924587800000154]";636.6349110000001;None;;;S11941;2022_Dec_20_1623;VideoMask;2021.1.2;120.06488306306387;
1.0;f;021_o_f_s_a.jpg;sad;7.0;happy_61.2ns.avi;happy;9.0;incongruent;130.0;150.0;210.94664004826666;s_h;;;;;0;50;50;50;;;;;;;639.6432294000001;None;641.6264756999999;641.9426900999997;643.1429629999998;643.1597001;647.6013536999999;None;8;0;647.6013536999999;None;;;;;;;;5;;;;;0.8781748000001244;;;649.1512419000001;None;None;None;[];649.1512419000001;None;None;;649.1512419000001;None;;;S11941;2022_Dec_20_1623;VideoMask;2021.1.2;120.06488306306387;
4.0;m;004_o_m_s_a.jpg;sad;7.0;sad_2.4ns.avi;sad;7.0;congruent;130.0;160.0;153.02079367163634;s_s;;;;;0;51;51;51;;;;;;;652.1845106999999;None;653.7010022999998;654.0258905999999;655.2105914999997;655.2343836;663.1258416000001;None;7;0;663.1258416000001;None;;;;;;;;5;;;;;1.065651699999762;;;664.6757979999998;None;None;None;[];664.6757979999998;None;None;;664.6757979999998;None;;;S11941;2022_Dec_20_1623;VideoMask;2021.1.2;120.06488306306387;
8.0;m;008_y_m_h_a.jpg;happy;9.0;happy_1.2ns.avi;happy;9.0;congruent;120.0;150.0;210.98946429383824;h_h;;;;;0;52;52;52;;;;;;;667.7006541000001;None;669.7506045999999;670.0756299;671.2422375000001;671.2594306000001;683.9918342000001;None;9;0;683.9918342000001;None;;;;;;;;8;;;;;1.367892899999788;;;685.5417165999997;None;None;None;[];685.5417165999997;None;"['9', '9', '9', '9']";"[0.6737730999998348, 0.8736552999998821, 1.1778199000000313, 1.537829999999758]";685.5417165999997;None;;;S11941;2022_Dec_20_1623;VideoMask;2021.1.2;120.06488306306387;
2.0;f;012_o_f_s_a.jpg;sad;7.0;happy_52.2ns.avi;happy;9.0;incongruent;130.0;150.0;172.57202848318138;s_h;;;;;0;53;53;53;;;;;;;688.5416704999998;None;690.1998015999998;690.5248548999998;691.7426433999999;691.758339;695.2081278999999;None;9;0;695.2081278999999;None;;;;;;;;8;;;;;0.9994304000001648;;;696.7662522;None;None;None;[];696.7662522;None;"['9', '9', '9']";"[0.5212907000000087, 0.7291291999999885, 1.0492828000001282]";696.7662522;None;;;S11941;2022_Dec_20_1623;VideoMask;2021.1.2;120.06488306306387;
9.0;f;019_m_f_s_a.jpg;sad;7.0;happy_61.1ns.avi;happy;9.0;incongruent;130.0;150.0;181.3003220572762;s_h;;;;;0;54;54;54;;;;;;;699.7666309000001;None;701.5412209000001;701.8577427;703.0327689999999;703.0493572999999;710.3826540999999;None;9;0;710.3826540999999;None;;;;;;;;6;;;;;1.0247872999998435;;;711.9325165999999;None;None;None;[];711.9325165999999;None;['9'];[1.1151519999998527];711.9325165999999;None;;;S11941;2022_Dec_20_1623;VideoMask;2021.1.2;120.06488306306387;
0.0;f;030_o_f_h_a.jpg;happy;9.0;sad_133.1.wmv;sad;7.0;incongruent;120.0;160.0;198.86251500867985;h_s;;;;;0;55;55;55;;;;;;;714.9410002999998;None;716.8073009999998;717.1323877;718.2574463999999;718.2739819999997;720.257239;None;None;0;720.257239;None;;;;;;;;3;;;;;;;;721.8072373;None;None;None;[];721.8072373;None;"['7', '7']";"[0.04023649999999179, 1.8961018999998487]";721.8072373;None;;;S11941;2022_Dec_20_1623;VideoMask;2021.1.2;120.06488306306387;
0.0;f;040_y_f_h_a.jpg;happy;9.0;sad_128.2.wmv;sad;7.0;incongruent;120.0;160.0;206.10005857915363;h_s;;;;;0;56;56;56;;;;;;;724.8155893999997;None;726.7569644999999;727.0820842999997;728.2152523999998;728.2320202999999;730.2069812999998;None;7;0;730.2069812999998;None;;;;;;;;3;;;;;0.864495799999986;;;731.7568886999998;None;None;None;[];731.7568886999998;None;"['7', '7']";"[0.7785234999996646, 1.2268251999998938]";731.7568886999998;None;;;S11941;2022_Dec_20_1623;VideoMask;2021.1.2;120.06488306306387;
1.0;f;021_o_f_s_a.jpg;sad;7.0;sad_9.5ns.avi;sad;7.0;congruent;130.0;160.0;206.16642757875042;s_s;;;;;0;57;57;57;;;;;;;734.7569786999998;None;736.6900529999998;737.0150977999997;738.1983971999998;738.2170308999998;743.8733225999999;None;7;0;743.8733225999999;None;;;;;;;;3;;;;;1.0061673000000155;;;745.4230991;None;None;None;[];745.4230991;None;"['7', '7', '7']";"[0.6164229000000887, 0.9522898999998688, 1.3684066999999231]";745.4230991;None;;;S11941;2022_Dec_20_1623;VideoMask;2021.1.2;120.06488306306387;
1.0;f;021_o_f_h_a.jpg;happy;9.0;happy_12.1ns.avi;happy;9.0;congruent;120.0;150.0;132.59080005900228;h_h;;;;;0;58;58;58;;;;;;;748.4317720999998;None;749.8062251000001;750.1313184;751.2979061999999;751.3145664999997;758.8726748999998;None;9;0;758.8726748999998;None;;;;;;;;7;;;;;0.9508098999999675;;;760.4226034999997;None;None;None;[];760.4226034999997;None;"['9', '9']";"[0.6490076999998564, 0.9852289999998902]";760.4226034999997;None;;;S11941;2022_Dec_20_1623;VideoMask;2021.1.2;120.06488306306387;
3.0;m;013_y_m_s_a.jpg;sad;7.0;happy_56.2ns.avi;happy;9.0;incongruent;130.0;150.0;163.39234110935848;s_h;;;;;0;59;59;59;;;;;;;763.4227069999997;None;765.0224807999998;765.3390448;766.4891297999998;766.5059258000001;771.5056492999997;None;9;0;771.5056492999997;None;;;;;;;;5;;;;;1.029772000000321;;;773.0556078999998;None;None;None;[];773.0556078999998;None;None;;773.0556078999998;None;;;S11941;2022_Dec_20_1623;VideoMask;2021.1.2;120.06488306306387;
;;;;;;;;;;;;;;;;;;;;;;;;;;;;;;;;;;;;;;;;;;;;;;;;;;;;;;;;;;;;;;;;;776.0888087999997;None;;;;;;
