primePerson;primeGender;prime;primeEmotion;corrAnsPrime;target;targetEmotion;corrAnsTar;Cond;ID_Primer;ID_Target;JitterTime;example.thisRepN;example.thisTrialN;example.thisN;example.thisIndex;study.thisRepN;study.thisTrialN;study.thisN;study.thisIndex;MR_trigger_time;MR_trigger_number;text_intro.started;text_intro.stopped;text_probe.started;text_probe.stopped;polygon_ISI.started;polygon_ISI.stopped;polygon.started;polygon.stopped;primerImage.started;primerImage.stopped;response.started;response.stopped;key_resp.keys;key_resp.corr;key_resp.started;key_resp.stopped;slider_Text.started;slider_Text.stopped;slider_ex.response;slider_ex.rt;slider_ex.history;slider_ex.started;slider_ex.stopped;Rating;slider_resp_response.keys;slider_resp_response.rt;slider_resp_response.started;slider_resp_response.stopped;text_start.started;text_start.stopped;key_resp.rt;text_slider.started;text_slider.stopped;slider_stud.response;slider_stud.rt;slider_stud.history;slider_stud.started;slider_stud.stopped;slider_resp_study.keys;slider_resp_study.rt;slider_resp_study.started;slider_resp_study.stopped;text_ende.started;text_ende.stopped;participant;date;expName;psychopyVersion;frameRate;
1111;m;1111_m_m_h_a.jpg;happy;9;example_30.4ns.avi;neutral;7;incongruent;120.0;170.0;189.5874364012288;0;0;0;0;;;;;20.5119480000576;1;20.601130499970168;22.601278600050136;22.601278600050136;None;24.6092022000812;None;26.55926010000985;26.85958649998065;28.017815200029872;28.03500020003412;32.334364100010134;None;None;0;32.334364100010134;None;33.850970300030895;None;None;None;[];33.850970300030895;None;6;['9'];[1.0315200999611989];33.850970300030895;None;;;;;;;;;;;;;;;;;EmoCon006;2021_Jun_16_1629;VideoMask;2021.1.2;120.06877530315825;
1113;f;1113_y_f_s_a.jpg;sad;7;example_30.3ns.avi;neutral;7;incongruent;130.0;170.0;229.02432995836998;0;1;1;1;;;;;;;;;;;35.842553499969654;None;37.984019899973646;38.28433719999157;39.48413090000395;39.50070570001844;41.425735200056806;None;None;0;41.425735200056806;None;42.9340191000374;None;None;None;[];42.9340191000374;None;7;"['9', '9']";"[0.32417119992896914, 0.5724693000083789]";42.9340191000374;None;;;;;;;;;;;;;;;;;EmoCon006;2021_Jun_16_1629;VideoMask;2021.1.2;120.06877530315825;
3.0;m;033_o_m_s_a.jpg;sad;7.0;sad_94.2ns.avi;sad;7.0;congruent;130.0;160.0;228.63582583242618;;;;;0;0;0;0;;;;;;;45.96717299998272;None;48.11711930006277;48.41723869997077;49.57536210003309;49.59220269997604;52.242086000042036;None;7;0;52.242086000042036;None;;;;;;;;2;;;;;44.942302000010386;None;0.3841010000323877;53.75026200001594;None;None;None;[];53.75026200001594;None;"['7', '7', '7']";"[0.34825180005282164, 0.5320776000153273, 1.0438585999654606]";53.75026200001594;None;;;EmoCon006;2021_Jun_16_1629;VideoMask;2021.1.2;120.06877530315825;
0.0;f;030_o_f_s_a.jpg;sad;7.0;sad_68.1ns.avi;sad;7.0;congruent;130.0;160.0;163.14738846961149;;;;;0;1;1;1;;;;;;;55.75035019998904;None;57.37502849998418;57.67529510008171;58.784105099970475;58.82521550008096;66.23334480007179;None;None;0;66.23334480007179;None;;;;;;;;1;;;;;;;;67.74158590007573;None;None;None;[];67.74158590007573;None;"['7', '7', '7', '7', '7']";"[0.24493159994017333, 0.4286216999171302, 0.5805455999216065, 0.7325060999719426, 0.8846290999790654]";67.74158590007573;None;;;EmoCon006;2021_Jun_16_1629;VideoMask;2021.1.2;120.06877530315825;
8.0;m;008_y_m_h_a.jpg;happy;9.0;happy_26.1ns.avi;happy;9.0;congruent;140.0;150.0;184.58211837191982;;;;;0;2;2;2;;;;;;;69.74993010004982;None;71.51631289999932;71.81662950001191;72.9830951000331;72.99973240005784;74.94136729999445;None;None;0;74.94136729999445;None;;;;;;;;8;;;;;;;;76.44961120001972;None;None;None;[];76.44961120001972;None;"['9', '9', '9']";"[0.4247019999893382, 0.6166411000303924, 1.1688983000349253]";76.44961120001972;None;;;EmoCon006;2021_Jun_16_1629;VideoMask;2021.1.2;120.06877530315825;
0.0;f;030_o_f_s_a.jpg;sad;7.0;happy_125.3.wmv;happy;9.0;incongruent;130.0;150.0;189.50417957278896;;;;;0;3;3;3;;;;;;;78.44953079998959;None;80.28274010005407;80.58284930000082;81.691126300022;81.70782310003415;83.71614699997008;None;None;0;83.71614699997008;None;;;;;;;;7;;;;;;;;85.22441490006167;None;None;None;[];85.22441490006167;None;"['9', '9']";"[0.34610930003691465, 1.2102582999505103]";85.22441490006167;None;;;EmoCon006;2021_Jun_16_1629;VideoMask;2021.1.2;120.06877530315825;
1.0;f;021_o_f_s_a.jpg;sad;7.0;sad_9.5ns.avi;sad;7.0;congruent;130.0;160.0;156.55128602613038;;;;;0;4;4;4;;;;;;;87.22430050000548;None;88.74915360007435;89.04926040000282;90.24086350004654;90.2582764000399;95.9243051999947;None;None;0;95.9243051999947;None;;;;;;;;3;;;;;;;;97.4323529000394;None;None;None;[];97.4323529000394;None;"['7', '7', '7', '7', '7', '7']";"[0.410105700022541, 0.5937725999392569, 0.7857820999342948, 0.9939064999343827, 1.3457611999474466, 1.770323499920778]";97.4323529000394;None;;;EmoCon006;2021_Jun_16_1629;VideoMask;2021.1.2;120.06877530315825;
4.0;m;004_o_m_s_a.jpg;sad;7.0;happy_28.1ns.avi;happy;9.0;incongruent;130.0;150.0;219.83540383939274;;;;;0;5;5;5;;;;;;;99.43232760007959;None;101.50698569999076;101.80739129998256;103.01563779998105;103.03248150006402;107.33201610005926;None;None;0;107.33201610005926;None;;;;;;;;7;;;;;;;;108.84039530006703;None;None;None;[];108.84039530006703;None;"['9', '9']";"[0.28207270009443164, 0.4578156000934541]";108.84039530006703;None;;;EmoCon006;2021_Jun_16_1629;VideoMask;2021.1.2;120.06877530315825;
2.0;f;012_o_f_s_a.jpg;sad;7.0;sad_7.5ns.avi;sad;7.0;congruent;130.0;160.0;147.95125229894379;;;;;0;6;6;6;;;;;;;110.84029179997742;None;112.29009160003625;112.59022640006151;113.7318981999997;113.74849200004246;116.50690450007096;None;None;0;116.50690450007096;None;;;;;;;;4;;;;;;;;118.0323990000179;None;None;None;[];118.0323990000179;None;"['7', '7']";"[0.34582020004745573, 0.7858899000566453]";118.0323990000179;None;;;EmoCon006;2021_Jun_16_1629;VideoMask;2021.1.2;120.06877530315825;
2.0;f;012_o_f_s_a.jpg;sad;7.0;happy_52.2ns.avi;happy;9.0;incongruent;130.0;150.0;144.3898903070799;;;;;0;7;7;7;;;;;;;120.02340269996785;None;121.4397362000309;121.74014040001202;122.90653350006323;122.92325160000473;126.42315190006047;None;None;0;126.42315190006047;None;;;;;;;;7;;;;;;;;127.93144800001755;None;None;None;[];127.93144800001755;None;"['9', '9']";"[0.28674380003940314, 0.4466673999559134]";127.93144800001755;None;;;EmoCon006;2021_Jun_16_1629;VideoMask;2021.1.2;120.06877530315825;
0.0;f;040_y_f_s_a.jpg;sad;7.0;sad_67.2ns.avi;sad;7.0;congruent;130.0;160.0;192.80086779892653;;;;;0;8;8;8;;;;;;;129.93141329998616;None;131.814474600018;132.11484529997688;133.29859540006146;133.31521320005413;142.48098840005696;None;None;0;142.48098840005696;None;;;;;;;;2;;;;;;;;143.98926319996826;None;None;None;[];143.98926319996826;None;"['7', '7', '7']";"[0.42908910010010004, 0.6209053000202402, 0.7889545001089573]";143.98926319996826;None;;;EmoCon006;2021_Jun_16_1629;VideoMask;2021.1.2;120.06877530315825;
3.0;m;013_y_m_s_a.jpg;sad;7.0;happy_56.2ns.avi;happy;9.0;incongruent;130.0;150.0;134.62621969351147;;;;;0;9;9;9;;;;;;;145.98924510006327;None;147.34728049999103;147.6476991000818;148.77242799999658;148.78907399997115;153.80564669996966;None;None;0;153.80564669996966;None;;;;;;;;5;;;;;;;;155.31397430005018;None;None;None;[];155.31397430005018;None;None;;155.31397430005018;None;;;EmoCon006;2021_Jun_16_1629;VideoMask;2021.1.2;120.06877530315825;
0.0;f;030_o_f_h_a.jpg;happy;9.0;sad_133.1.wmv;sad;7.0;incongruent;120.0;160.0;238.4103736452693;;;;;0;10;10;10;;;;;;;157.32231600000523;None;159.55535180005245;159.85558860003948;160.9804675000487;160.99701180006377;162.98034210002515;None;None;0;162.98034210002515;None;;;;;;;;4;;;;;;;;164.48861700005364;None;None;None;[];164.48861700005364;None;['7'];[1.8338586000027135];164.48861700005364;None;;;EmoCon006;2021_Jun_16_1629;VideoMask;2021.1.2;120.06877530315825;
2.0;f;012_o_f_h_a.jpg;happy;9.0;happy_2.2ns.avi;happy;9.0;congruent;140.0;150.0;120.08648649110712;;;;;0;11;11;11;;;;;;;166.49706590001006;None;167.78857420000713;168.0886901000049;169.21419790002983;169.2388802000787;181.42173589998856;None;None;0;181.42173589998856;None;;;;;;;;5;;;;;;;;182.93812050006818;None;None;None;[];182.93812050006818;None;None;;182.93812050006818;None;;;EmoCon006;2021_Jun_16_1629;VideoMask;2021.1.2;120.06877530315825;
9.0;f;019_m_f_s_a.jpg;sad;7.0;sad_8.4ns.avi;sad;7.0;congruent;130.0;160.0;169.3395974323834;;;;;0;12;12;12;;;;;;;184.94650880002882;None;186.63800210005138;186.9381652000593;188.09694519999903;188.12985180004034;196.20437709998805;None;None;0;196.20437709998805;None;;;;;;;;4;;;;;;;;197.71274119999725;None;None;None;[];197.71274119999725;None;"['7', '7', '9']";"[0.321475200005807, 0.5213728999951854, 1.2895475999685004]";197.71274119999725;None;;;EmoCon006;2021_Jun_16_1629;VideoMask;2021.1.2;120.06877530315825;
8.0;m;008_y_m_s_a.jpg;sad;7.0;sad_6.5ns.avi;sad;7.0;congruent;130.0;160.0;124.24628091899196;;;;;0;13;13;13;;;;;;;199.7127292000223;None;201.03739359998144;201.3378331999993;202.52176620007958;202.5377267000731;207.46234129997902;None;None;0;207.46234129997902;None;;;;;;;;4;;;;;;;;208.97068420005962;None;None;None;[];208.97068420005962;None;"['7', '7', '9', '7']";"[0.3598182999994606, 0.887400999898091, 1.375664799939841, 1.735485199955292]";208.97068420005962;None;;;EmoCon006;2021_Jun_16_1629;VideoMask;2021.1.2;120.06877530315825;
1.0;f;021_o_f_h_a.jpg;happy;9.0;happy_12.1ns.avi;happy;9.0;congruent;140.0;150.0;236.6487020138435;;;;;0;14;14;14;;;;;;;210.97080020001158;None;213.20376030006446;213.50389569997787;214.64544660004321;214.6621270000469;222.24591180006973;None;9;0;222.24591180006973;None;;;;;;;;6;;;;;;;0.30020579998381436;223.75360599998385;None;None;None;[];223.75360599998385;None;['9'];[0.2565548000857234];223.75360599998385;None;;;EmoCon006;2021_Jun_16_1629;VideoMask;2021.1.2;120.06877530315825;
8.0;f;028_y_f_s_a.jpg;sad;7.0;sad_64.2ns.avi;sad;7.0;congruent;130.0;160.0;238.8507440172915;;;;;0;15;15;15;;;;;;;225.75350670004264;None;228.0534586000722;228.35351599997375;229.48672510008328;229.5039453000063;240.47805989999324;None;None;0;240.47805989999324;None;;;;;;;;3;;;;;;;;241.98633440001868;None;None;None;[];241.98633440001868;None;"['7', '7', '7']";"[0.33591729996260256, 0.599794700043276, 1.0398347000591457]";241.98633440001868;None;;;EmoCon006;2021_Jun_16_1629;VideoMask;2021.1.2;120.06877530315825;
2.0;f;012_o_f_s_a.jpg;sad;7.0;happy_139.1.wmv;happy;9.0;incongruent;130.0;150.0;185.59030554143408;;;;;0;16;16;16;;;;;;;243.98621800006367;None;245.77774340007454;246.07806039997377;247.1867180999834;247.22771700005978;249.20288380002603;None;None;0;249.20288380002603;None;;;;;;;;5;;;;;;;;250.71110060007777;None;None;None;[];250.71110060007777;None;None;;250.71110060007777;None;;;EmoCon006;2021_Jun_16_1629;VideoMask;2021.1.2;120.06877530315825;
3.0;m;033_o_m_s_a.jpg;sad;7.0;sad_64.5ns.avi;sad;7.0;congruent;130.0;160.0;159.52646627166388;;;;;0;17;17;17;;;;;;;252.7110717999749;None;254.2774775000289;254.57760229997803;255.7191300999839;255.73596810002346;262.2941803999711;None;7;0;262.2941803999711;None;;;;;;;;1;;;;;;;0.28380859992466867;263.80239249998704;None;None;None;[];263.80239249998704;None;"['7', '7', '7', '7']";"[0.21586029999889433, 0.3838303000666201, 0.535535000031814, 0.6876403000205755]";263.80239249998704;None;;;EmoCon006;2021_Jun_16_1629;VideoMask;2021.1.2;120.06877530315825;
0.0;f;040_y_f_s_a.jpg;sad;7.0;happy_127.3.wmv;happy;9.0;incongruent;130.0;150.0;131.0431594605889;;;;;0;18;18;18;;;;;;;265.8024035000708;None;267.1188035000814;267.41897140000947;268.5193134000292;268.53587819996756;270.61880830000155;None;None;0;270.61880830000155;None;;;;;;;;7;;;;;;;;272.12709660001565;None;None;None;[];272.12709660001565;None;"['9', '9']";"[0.25114069995470345, 1.267044399981387]";272.12709660001565;None;;;EmoCon006;2021_Jun_16_1629;VideoMask;2021.1.2;120.06877530315825;
3.0;m;033_o_m_h_a.jpg;happy;9.0;sad_128.1.wmv;sad;7.0;incongruent;120.0;160.0;168.97426303437265;;;;;0;19;19;19;;;;;;;274.135488800006;None;275.77687250007875;276.07714020006824;277.18586650001816;277.20227060001343;279.20200609997846;None;None;0;279.20200609997846;None;;;;;;;;1;;;;;;;;280.7102319999831;None;None;None;[];280.7102319999831;None;"['7', '7', '7', '7', '7', '9']";"[0.43563199997879565, 0.588065900024958, 0.7476269999751821, 0.9556921999901533, 1.0916647999547422, 1.4358398000476882]";280.7102319999831;None;;;EmoCon006;2021_Jun_16_1629;VideoMask;2021.1.2;120.06877530315825;
9.0;f;019_m_f_h_a.jpg;happy;9.0;sad_115.1.wmv;sad;7.0;incongruent;120.0;160.0;202.13700247699333;;;;;0;20;20;20;;;;;;;282.71018300007563;None;284.64338080002926;284.94355640001595;286.04338210006244;286.0603574999841;288.0681847999804;None;None;0;288.0681847999804;None;;;;;;;;3;;;;;;;;289.57655620004516;None;None;None;[];289.57655620004516;None;"['7', '7']";"[0.28164930001366884, 0.7057111000176519]";289.57655620004516;None;;;EmoCon006;2021_Jun_16_1629;VideoMask;2021.1.2;120.06877530315825;
8.0;m;008_y_m_h_a.jpg;happy;9.0;happy_1.2ns.avi;happy;9.0;congruent;140.0;150.0;155.22310421045015;;;;;0;21;21;21;;;;;;;291.5764811000554;None;293.16813840006944;293.4683291000547;294.61812920006923;294.6347398000071;307.38441000005696;None;None;0;307.38441000005696;None;;;;;;;;7;;;;;;;;308.892720200005;None;None;None;[];308.892720200005;None;"['9', '9']";"[0.3335884000407532, 0.5734598999843001]";308.892720200005;None;;;EmoCon006;2021_Jun_16_1629;VideoMask;2021.1.2;120.06877530315825;
0.0;f;040_y_f_s_a.jpg;sad;7.0;sad_94.3ns.avi;sad;7.0;congruent;130.0;160.0;157.18644691248227;;;;;0;22;22;22;;;;;;;310.89269880007487;None;312.4340686000651;312.7343241000781;313.87683349999133;313.8932520999806;316.49241269996855;None;None;0;316.49241269996855;None;;;;;;;;3;;;;;;;;318.00075350003317;None;None;None;[];318.00075350003317;None;"['7', '7']";"[0.3134624999947846, 0.913454300025478]";318.00075350003317;None;;;EmoCon006;2021_Jun_16_1629;VideoMask;2021.1.2;120.06877530315825;
6.0;m;016_y_m_s_a.jpg;sad;7.0;happy_60.4ns.avi;happy;9.0;incongruent;130.0;150.0;135.96622391936876;;;;;0;23;23;23;;;;;;;320.009070500033;None;321.3922827000497;321.69245189998765;322.81782140000723;322.83450170001015;328.60886799998116;None;None;0;328.60886799998116;None;;;;;;;;5;;;;;;;;330.1169474000344;None;None;None;[];330.1169474000344;None;None;;330.1169474000344;None;;;EmoCon006;2021_Jun_16_1629;VideoMask;2021.1.2;120.06877530315825;
0.0;f;030_o_f_h_a.jpg;happy;9.0;happy_24.1ns.avi;happy;9.0;congruent;140.0;150.0;187.2363405679046;;;;;0;24;24;24;;;;;;;332.11707560007926;None;333.92524610005785;334.2253271000227;335.36677319998853;335.38410580006894;338.68344230006915;None;None;0;338.68344230006915;None;;;;;;;;7;;;;;;;;340.1917382000247;None;None;None;[];340.1917382000247;None;"['9', '9']";"[0.23437950003426522, 1.554488499998115]";340.1917382000247;None;;;EmoCon006;2021_Jun_16_1629;VideoMask;2021.1.2;120.06877530315825;
8.0;m;008_y_m_s_a.jpg;sad;7.0;happy_133.3.wmv;happy;9.0;incongruent;130.0;150.0;151.65964880545846;;;;;0;25;25;25;;;;;;;342.20017179998104;None;343.7002694000257;344.0002094000811;345.11641530005727;345.13324290001765;347.1331161999842;None;None;0;347.1331161999842;None;;;;;;;;6;;;;;;;;348.6415034000529;None;None;None;[];348.6415034000529;None;['9'];[1.080306199961342];348.6415034000529;None;;;EmoCon006;2021_Jun_16_1629;VideoMask;2021.1.2;120.06877530315825;
1.0;f;021_o_f_s_a.jpg;sad;7.0;happy_61.2ns.avi;happy;9.0;incongruent;130.0;150.0;146.79956415721207;;;;;0;26;26;26;;;;;;;350.641593700042;None;352.1078100000741;352.4080306000542;353.516002300079;353.53301360004116;358.06616699998267;None;9;0;358.06616699998267;None;;;;;;;;7;;;;;;;0.2798239999683574;359.5744646000676;None;None;None;[];359.5744646000676;None;"['9', '9']";"[0.49975519999861717, 0.6994516999693587]";359.5744646000676;None;;;EmoCon006;2021_Jun_16_1629;VideoMask;2021.1.2;120.06877530315825;
1.0;f;021_o_f_h_a.jpg;happy;9.0;sad_116.1.wmv;sad;7.0;incongruent;120.0;160.0;205.93899364307754;;;;;0;27;27;27;;;;;;;361.5745637000073;None;363.51586450007744;363.8161706000101;364.9242125999881;364.94095570000354;366.9408875000663;None;None;0;366.9408875000663;None;;;;;;;;3;;;;;;;;368.4498642999679;None;None;None;[];368.4498642999679;None;"['7', '7']";"[0.25623270007781684, 0.8642658001044765]";368.4498642999679;None;;;EmoCon006;2021_Jun_16_1629;VideoMask;2021.1.2;120.06877530315825;
7.0;m;027_o_m_h_a.jpg;happy;9.0;happy_20.1ns.avi;happy;9.0;congruent;140.0;150.0;145.4488529976734;;;;;0;28;28;28;;;;;;;370.4491562000476;None;371.8906371999765;372.19087699998636;373.3168481000466;373.3326853000326;376.3322984999977;None;None;0;376.3322984999977;None;;;;;;;;6;;;;;;;;377.8406610999955;None;None;None;[];377.8406610999955;None;['9'];[1.721449000062421];377.8406610999955;None;;;EmoCon006;2021_Jun_16_1629;VideoMask;2021.1.2;120.06877530315825;
3.0;m;033_o_m_s_a.jpg;sad;7.0;happy_126.3.wmv;happy;9.0;incongruent;130.0;150.0;220.47504181707743;;;;;0;29;29;29;;;;;;;379.84063330001663;None;381.90695620002225;382.20724460005295;383.3327035000548;383.35719430004247;385.3319956000196;None;None;0;385.3319956000196;None;;;;;;;;5;;;;;;;;386.8403343000682;None;None;None;[];386.8403343000682;None;None;;386.8403343000682;None;;;EmoCon006;2021_Jun_16_1629;VideoMask;2021.1.2;120.06877530315825;
4.0;m;004_o_m_s_a.jpg;sad;7.0;sad_2.4ns.avi;sad;7.0;congruent;130.0;160.0;153.9424691910033;;;;;0;30;30;30;;;;;;;388.8402401000494;None;390.35667480004486;390.6570216000546;391.7744719000766;391.791049499996;399.7483498000074;None;None;0;399.7483498000074;None;;;;;;;;3;;;;;;;;401.2649288000539;None;None;None;[];401.2649288000539;None;"['7', '7', '7']";"[0.3451806999510154, 0.5608420999487862, 1.0413186999503523]";401.2649288000539;None;;;EmoCon006;2021_Jun_16_1629;VideoMask;2021.1.2;120.06877530315825;
8.0;m;008_y_m_h_a.jpg;happy;9.0;sad_111.1.wmv;sad;7.0;incongruent;120.0;160.0;182.0123397825363;;;;;0;31;31;31;;;;;;;403.27320419996977;None;405.0312265000539;405.33162880002055;406.43192430003546;406.4483508999692;408.4564417999936;None;None;0;408.4564417999936;None;;;;;;;;3;;;;;;;;409.9646606000606;None;None;None;[];409.9646606000606;None;"['7', '7']";"[0.3414797999430448, 0.7331445999443531]";409.9646606000606;None;;;EmoCon006;2021_Jun_16_1629;VideoMask;2021.1.2;120.06877530315825;
4.0;m;004_o_m_h_a.jpg;happy;9.0;happy_1.1ns.avi;happy;9.0;congruent;140.0;150.0;145.41905773865074;;;;;0;32;32;32;;;;;;;411.9730442999862;None;413.4893253999762;413.78961189999245;414.91441550001036;414.9317589000566;429.39746690005995;None;None;0;429.39746690005995;None;;;;;;;;6;;;;;;;;430.9056772000622;None;None;None;[];430.9056772000622;None;['9'];[0.30436929990537465];430.9056772000622;None;;;EmoCon006;2021_Jun_16_1629;VideoMask;2021.1.2;120.06877530315825;
4.0;m;004_o_m_s_a.jpg;sad;7.0;happy_131.2.wmv;happy;9.0;incongruent;130.0;150.0;163.9874412082805;;;;;0;33;33;33;;;;;;;432.905596000026;None;434.52207730000373;434.82242560002487;435.9301778000081;435.9471683000447;437.9471991000464;None;None;0;437.9471991000464;None;;;;;;;;6;;;;;;;;439.4554006999824;None;None;None;[];439.4554006999824;None;['9'];[0.7465378000633791];439.4554006999824;None;;;EmoCon006;2021_Jun_16_1629;VideoMask;2021.1.2;120.06877530315825;
2.0;f;012_o_f_h_a.jpg;happy;9.0;happy_27.1ns.avi;happy;9.0;congruent;140.0;150.0;207.9053492649655;;;;;0;34;34;34;;;;;;;441.4636563999811;None;443.4052156000398;443.7053602000233;444.83918490004726;444.85559569997713;447.3301617000252;None;None;0;447.3301617000252;None;;;;;;;;8;;;;;;;;448.8384414999746;None;None;None;[];448.8384414999746;None;"['9', '9', '9']";"[0.2995155000826344, 0.5153240000363439, 0.7711963000474498]";448.8384414999746;None;;;EmoCon006;2021_Jun_16_1629;VideoMask;2021.1.2;120.06877530315825;
7.0;m;027_o_m_s_a.jpg;sad;7.0;happy_117.3.wmv;happy;9.0;incongruent;130.0;150.0;218.0520785974414;;;;;0;35;35;35;;;;;;;450.8385255000321;None;452.87985330005176;453.18008870002814;454.2890156999929;454.30523379996885;456.3132761999732;None;None;0;456.3132761999732;None;;;;;;;;7;;;;;;;;457.82988470001146;None;None;None;[];457.82988470001146;None;"['9', '9']";"[0.8759219000348821, 1.1238865000195801]";457.82988470001146;None;;;EmoCon006;2021_Jun_16_1629;VideoMask;2021.1.2;120.06877530315825;
2.0;f;012_o_f_h_a.jpg;happy;9.0;sad_113.1.wmv;sad;7.0;incongruent;120.0;160.0;192.53137802384992;;;;;0;36;36;36;;;;;;;459.8298598000547;None;461.6545939000789;461.9548940000823;463.05471559998114;463.071945099975;465.07966709998436;None;None;0;465.07966709998436;None;;;;;;;;4;;;;;;;;466.58793140004855;None;None;None;[];466.58793140004855;None;"['7', '7']";"[0.2781189000234008, 1.054081100039184]";466.58793140004855;None;;;EmoCon006;2021_Jun_16_1629;VideoMask;2021.1.2;120.06877530315825;
8.0;f;028_y_f_h_a.jpg;happy;9.0;happy_23.1ns.avi;happy;9.0;congruent;140.0;150.0;159.76384515822056;;;;;0;37;37;37;;;;;;;468.59608669998124;None;470.1543434000341;470.4545535000507;471.5711135000456;471.5877160000382;476.16257569997106;None;None;0;476.16257569997106;None;;;;;;;;6;;;;;;;;477.6709917000262;None;None;None;[];477.6709917000262;None;"['9', '9', '7']";"[0.29906130000017583, 1.1068393000168726, 1.6828328999690711]";477.6709917000262;None;;;EmoCon006;2021_Jun_16_1629;VideoMask;2021.1.2;120.06877530315825;
0.0;f;030_o_f_s_a.jpg;sad;7.0;sad_64.3ns.avi;sad;7.0;congruent;130.0;160.0;172.91738127163183;;;;;0;38;38;38;;;;;;;479.6791286000516;None;481.3706231000833;481.67101739998907;482.87895729998127;482.89572799997404;487.7956882000435;None;None;0;487.7956882000435;None;;;;;;;;4;;;;;;;;489.3122488000663;None;None;None;[];489.3122488000663;None;['7'];[1.0019993999740109];489.3122488000663;None;;;EmoCon006;2021_Jun_16_1629;VideoMask;2021.1.2;120.06877530315825;
6.0;m;016_y_m_h_a.jpg;happy;9.0;sad_114.1.wmv;sad;7.0;incongruent;120.0;160.0;196.03539454983184;;;;;0;39;39;39;;;;;;;491.3121900999686;None;493.2036230000667;493.50373360002413;494.65367580007296;494.670409000013;496.6287139999913;None;None;0;496.6287139999913;None;;;;;;;;3;;;;;;;;498.1368915999774;None;None;None;[];498.1368915999774;None;"['7', '7']";"[0.5366827000398189, 0.7288639000616968]";498.1368915999774;None;;;EmoCon006;2021_Jun_16_1629;VideoMask;2021.1.2;120.06877530315825;
6.0;m;016_y_m_s_a.jpg;sad;7.0;sad_8.3ns.avi;sad;7.0;congruent;130.0;160.0;139.87174075953956;;;;;0;40;40;40;;;;;;;500.14534300006926;None;501.5783216999844;501.8789487000322;503.0123420000309;503.028698900016;510.7615796000464;None;None;0;510.7615796000464;None;;;;;;;;5;;;;;;;;512.2699006000767;None;None;None;[];512.2699006000767;None;None;;512.2699006000767;None;;;EmoCon006;2021_Jun_16_1629;VideoMask;2021.1.2;120.06877530315825;
7.0;m;027_o_m_s_a.jpg;sad;7.0;sad_10.4ns.avi;sad;7.0;congruent;130.0;160.0;163.89298117292617;;;;;0;41;41;41;;;;;;;514.2781834000489;None;515.8697072999785;516.1698532999726;517.3034653000068;517.3201528000645;520.4697146000108;None;None;0;520.4697146000108;None;;;;;;;;3;;;;;;;;521.9778517000377;None;None;None;[];521.9778517000377;None;"['7', '7']";"[0.384248899994418, 0.6557210999308154]";521.9778517000377;None;;;EmoCon006;2021_Jun_16_1629;VideoMask;2021.1.2;120.06877530315825;
3.0;m;013_y_m_h_a.jpg;happy;9.0;happy_9.1ns.avi;happy;9.0;congruent;140.0;150.0;128.37211756912527;;;;;0;42;42;42;;;;;;;523.986141600064;None;525.3276686000172;525.627951500006;526.752671699971;526.76948430005;529.9860248999903;None;None;0;529.9860248999903;None;;;;;;;;5;;;;;;;;531.4942704000277;None;None;None;[];531.4942704000277;None;None;;531.4942704000277;None;;;EmoCon006;2021_Jun_16_1629;VideoMask;2021.1.2;120.06877530315825;
7.0;m;027_o_m_h_a.jpg;happy;9.0;sad_117.1.wmv;sad;7.0;incongruent;120.0;160.0;163.19466748508617;;;;;0;43;43;43;;;;;;;533.5026479000226;None;535.0940207000822;535.3943310000468;536.4949462000513;536.5109588999767;538.5191309000365;None;None;0;538.5191309000365;None;;;;;;;;5;;;;;;;;540.0274214000674;None;None;None;[];540.0274214000674;None;None;;540.0274214000674;None;;;EmoCon006;2021_Jun_16_1629;VideoMask;2021.1.2;120.06877530315825;
4.0;m;004_o_m_h_a.jpg;happy;9.0;sad_95.1ns.avi;sad;7.0;incongruent;120.0;160.0;162.95060606286506;;;;;0;44;44;44;;;;;;;542.0357758000027;None;543.6771140000783;543.9774160999805;545.1279190999921;545.1441514000762;553.9023605000693;None;None;0;553.9023605000693;None;;;;;;;;3;;;;;;;;555.4185574000003;None;None;None;[];555.4185574000003;None;"['7', '7', '7']";"[0.4954106999794021, 0.8311599000589922, 1.8554451999953017]";555.4185574000003;None;;;EmoCon006;2021_Jun_16_1629;VideoMask;2021.1.2;120.06877530315825;
0.0;f;040_y_f_h_a.jpg;happy;9.0;sad_128.2.wmv;sad;7.0;incongruent;120.0;160.0;121.98396994352893;;;;;0;45;45;45;;;;;;;557.4183563999832;None;558.6599825000158;558.9603309000377;560.0767384000355;560.0934173000278;562.0851531000808;None;None;0;562.0851531000808;None;;;;;;;;3;;;;;;;;563.5933137000538;None;None;None;[];563.5933137000538;None;"['7', '7']";"[0.2645112000172958, 1.0723465000046417]";563.5933137000538;None;;;EmoCon006;2021_Jun_16_1629;VideoMask;2021.1.2;120.06877530315825;
0.0;f;040_y_f_h_a.jpg;happy;9.0;sad_138.1.wmv;sad;7.0;incongruent;120.0;160.0;195.60264978061832;;;;;0;46;46;46;;;;;;;565.593309000018;None;567.4516028000508;567.7517112999922;568.8521724999882;568.8689123999793;570.8764923000708;None;None;0;570.8764923000708;None;;;;;;;;7;;;;;;;;572.3847717000172;None;None;None;[];572.3847717000172;None;"['9', '9', '9', '9']";"[0.32884019997436553, 0.5609434000216424, 1.4891596999950707, 1.9288922999985516]";572.3847717000172;None;;;EmoCon006;2021_Jun_16_1629;VideoMask;2021.1.2;120.06877530315825;
8.0;m;008_y_m_s_a.jpg;sad;7.0;happy_29.1ns.avi;happy;9.0;incongruent;130.0;150.0;212.92407054126133;;;;;0;47;47;47;;;;;;;574.3929828000255;None;576.3929065000266;576.6929174000397;577.8346455000574;577.8511838000268;580.5178415999981;None;None;0;580.5178415999981;None;;;;;;;;7;;;;;;;;582.3094284000108;None;None;None;[];582.3094284000108;None;"['9', '9']";"[0.2843882000306621, 0.5562498000217602]";582.3094284000108;None;;;EmoCon006;2021_Jun_16_1629;VideoMask;2021.1.2;120.06877530315825;
0.0;f;040_y_f_h_a.jpg;happy;9.0;happy_24.3ns.avi;happy;9.0;congruent;140.0;150.0;190.23859628619445;;;;;0;48;48;48;;;;;;;584.3178741000593;None;586.1425528000109;586.4427431999939;587.5506103000371;587.5675717999693;589.5009005999891;None;None;0;589.5009005999891;None;;;;;;;;7;;;;;;;;591.0091784000397;None;None;None;[];591.0091784000397;None;"['9', '9', '9']";"[0.552675399929285, 0.9126788999419659, 1.5683628999395296]";591.0091784000397;None;;;EmoCon006;2021_Jun_16_1629;VideoMask;2021.1.2;120.06877530315825;
3.0;m;033_o_m_h_a.jpg;happy;9.0;happy_24.2ns.avi;happy;9.0;congruent;140.0;150.0;127.28107088671867;;;;;0;49;49;49;;;;;;;593.0174764000112;None;594.317273600027;594.6174591999734;595.7676075000782;595.7842916999944;599.4755770000629;None;None;0;599.4755770000629;None;;;;;;;;7;;;;;;;;600.9925715000136;None;None;None;[];600.9925715000136;None;"['9', '9', '9']";"[0.33724729996174574, 0.5769253999460489, 0.9535105000250041]";600.9925715000136;None;;;EmoCon006;2021_Jun_16_1629;VideoMask;2021.1.2;120.06877530315825;
9.0;f;019_m_f_s_a.jpg;sad;7.0;happy_61.1ns.avi;happy;9.0;incongruent;130.0;150.0;190.9434091532566;;;;;0;50;50;50;;;;;;;602.9839274999686;None;604.8510824000696;605.1504976999713;606.3259921000572;606.3677451000549;613.6753427999793;None;None;0;613.6753427999793;None;;;;;;;;5;;;;;;;;615.1918026000494;None;None;None;[];615.1918026000494;None;None;;615.1918026000494;None;;;EmoCon006;2021_Jun_16_1629;VideoMask;2021.1.2;120.06877530315825;
8.0;f;028_y_f_h_a.jpg;happy;9.0;sad_119.1.wmv;sad;7.0;incongruent;120.0;160.0;178.10396226647933;;;;;0;51;51;51;;;;;;;617.19186120003;None;618.9082304000622;619.2084041000344;620.3249548000749;620.341659000027;622.3998498000437;None;None;0;622.3998498000437;None;;;;;;;;5;;;;;;;;623.9086772999726;None;None;None;[];623.9086772999726;None;None;;623.9086772999726;None;;;EmoCon006;2021_Jun_16_1629;VideoMask;2021.1.2;120.06877530315825;
3.0;m;033_o_m_h_a.jpg;happy;9.0;sad_136.1.wmv;sad;7.0;incongruent;120.0;160.0;206.04367658109783;;;;;0;52;52;52;;;;;;;625.9170862999745;None;627.8580366000533;628.158331100014;629.2744209000375;629.291335200076;631.2829577000812;None;None;0;631.2829577000812;None;;;;;;;;3;;;;;;;;632.7912536000367;None;None;None;[];632.7912536000367;None;"['7', '7']";"[0.3626076999353245, 0.5463903999188915]";632.7912536000367;None;;;EmoCon006;2021_Jun_16_1629;VideoMask;2021.1.2;120.06877530315825;
6.0;m;016_y_m_h_a.jpg;happy;9.0;happy_9.2ns.avi;happy;9.0;congruent;140.0;150.0;136.52220806776708;;;;;0;53;53;53;;;;;;;634.7913462000433;None;636.1743084000191;636.4746245000279;637.5916807000758;637.6079639000818;643.5326983999694;None;None;0;643.5326983999694;None;;;;;;;;7;;;;;;;;645.0408654999919;None;None;None;[];645.0408654999919;None;"['9', '9']";"[0.4329161000205204, 0.6248901999788359]";645.0408654999919;None;;;EmoCon006;2021_Jun_16_1629;VideoMask;2021.1.2;120.06877530315825;
9.0;f;019_m_f_h_a.jpg;happy;9.0;happy_10.1ns.avi;happy;9.0;congruent;140.0;150.0;180.35091595488527;;;;;0;54;54;54;;;;;;;647.0408760000719;None;648.8239325999748;649.1241680000676;650.2490296000615;650.2656704999972;657.6988342000404;None;None;0;657.6988342000404;None;;;;;;;;5;;;;;;;;659.2404513000511;None;None;None;[];659.2404513000511;None;None;;659.2404513000511;None;;;EmoCon006;2021_Jun_16_1629;VideoMask;2021.1.2;120.06877530315825;
8.0;f;028_y_f_s_a.jpg;sad;7.0;happy_122.3.wmv;happy;9.0;incongruent;130.0;150.0;204.27932588393085;;;;;0;55;55;55;;;;;;;661.2487605999922;None;663.1987555000233;663.4987764999969;664.6069105999777;664.6236348000821;666.6235145999817;None;None;0;666.6235145999817;None;;;;;;;;6;;;;;;;;668.1318723000586;None;None;None;[];668.1318723000586;None;['9'];[0.22185560001526028];668.1318723000586;None;;;EmoCon006;2021_Jun_16_1629;VideoMask;2021.1.2;120.06877530315825;
3.0;m;013_y_m_s_a.jpg;sad;7.0;sad_7.7ns.avi;sad;7.0;congruent;130.0;160.0;192.40728800739942;;;;;0;56;56;56;;;;;;;670.1317810000619;None;671.9734046000522;672.2734794999706;673.4156267000362;673.4481937000528;679.3980922000483;None;None;0;679.3980922000483;None;;;;;;;;4;;;;;;;;680.9064180999994;None;None;None;[];680.9064180999994;None;"['7', '7']";"[0.33525030000600964, 0.8074622000567615]";680.9064180999994;None;;;EmoCon006;2021_Jun_16_1629;VideoMask;2021.1.2;120.06877530315825;
3.0;m;013_y_m_h_a.jpg;happy;9.0;sad_113.2.wmv;sad;7.0;incongruent;120.0;160.0;219.6544115751568;;;;;0;57;57;57;;;;;;;682.906531500048;None;684.9812574000098;685.2815412000054;686.3976447000168;686.414595499984;688.4061977000674;None;None;0;688.4061977000674;None;;;;;;;;5;;;;;;;;689.914581399993;None;None;None;[];689.914581399993;None;None;;689.914581399993;None;;;EmoCon006;2021_Jun_16_1629;VideoMask;2021.1.2;120.06877530315825;
4.0;m;004_o_m_h_a.jpg;happy;9.0;happy_25.1ns.avi;happy;9.0;congruent;140.0;150.0;237.98255695511958;;;;;0;58;58;58;;;;;;;691.9145097000292;None;694.1392256000545;694.4395427000709;695.597644399968;695.6149552999996;699.26436130004;None;None;0;699.26436130004;None;;;;;;;;7;;;;;;;;700.7808940999676;None;None;None;[];700.7808940999676;None;"['9', '9']";"[0.3089256000239402, 0.5248793000355363]";700.7808940999676;None;;;EmoCon006;2021_Jun_16_1629;VideoMask;2021.1.2;120.06877530315825;
0.0;f;030_o_f_h_a.jpg;happy;9.0;sad_127.1.wmv;sad;7.0;incongruent;120.0;160.0;231.85538291836468;;;;;0;59;59;59;;;;;;;702.7807881999761;None;704.9473013000097;705.2475311000599;706.3565950000193;706.372761900071;708.3723248000024;None;None;0;708.3723248000024;None;;;;;;;;5;;;;;;;;709.8806087999837;None;None;None;[];709.8806087999837;None;None;;709.8806087999837;None;;;EmoCon006;2021_Jun_16_1629;VideoMask;2021.1.2;120.06877530315825;
;;;;;;;;;;;;;;;;;;;;;;;;;;;;;;;;;;;;;;;;;;;;;;;;;;;;;;;;;;;;;;;;711.8889130000025;None;;;;;;
