primePerson;primeGender;prime;primeEmotion;corrAnsPrime;target;targetEmotion;corrAnsTar;Cond;ID_Primer;ID_Target;JitterTime;Condition;example.thisRepN;example.thisTrialN;example.thisN;example.thisIndex;study.thisRepN;study.thisTrialN;study.thisN;study.thisIndex;MR_trigger_time;MR_trigger_number;text_intro.started;text_intro.stopped;text_probe.started;text_probe.stopped;polygon_ISI.started;polygon_ISI.stopped;polygon.started;polygon.stopped;primerImage.started;primerImage.stopped;response.started;response.stopped;key_resp.keys;key_resp.corr;key_resp.rt;key_resp.started;key_resp.stopped;slider_Text.started;slider_Text.stopped;slider_ex.response;slider_ex.rt;slider_ex.history;slider_ex.started;slider_ex.stopped;Rating;slider_resp_response.keys;slider_resp_response.started;slider_resp_response.stopped;slider_resp_response.rt;text_start.started;text_start.stopped;text_slider.started;text_slider.stopped;slider_stud.response;slider_stud.rt;slider_stud.history;slider_stud.started;slider_stud.stopped;slider_resp_study.keys;slider_resp_study.started;slider_resp_study.stopped;slider_resp_study.rt;text_ende.started;text_ende.stopped;participant;date;expName;psychopyVersion;frameRate;
1111;m;1111_m_m_h_a.jpg;happy;9;example_30.4ns.avi;neutral;7;incongruent;120.0;170.0;189.5874364012288;;0;0;0;0;;;;;164.5978837000439;1;164.68384610000066;166.69235540006775;166.69235540006775;None;168.70122220006306;None;170.93375770002604;171.25031870009843;172.4585857000202;172.47525120002683;176.73377490008716;None;8;0;0.9573251999681816;176.73377490008716;None;178.29197310004383;None;None;None;[];178.29197310004383;None;5;None;178.29197310004383;None;;;;;;;;;;;;;;;;;S11393;2022_Apr_25_1419;VideoMask;2021.1.2;119.67391260341266;
1113;f;1113_y_f_s_a.jpg;sad;7;example_30.3ns.avi;neutral;7;incongruent;130.0;170.0;229.02432995836998;;0;1;1;1;;;;;;;;;;;181.30849690001924;None;183.4166749001015;183.73348730010912;184.90835490007885;184.92509090004023;186.88356190000195;None;None;0;;186.88356190000195;None;188.44146980007645;None;None;None;[];188.44146980007645;None;6;['9'];188.44146980007645;None;[0.6735703999875113];;;;;;;;;;;;;;;;S11393;2022_Apr_25_1419;VideoMask;2021.1.2;119.67391260341266;
9.0;f;019_m_f_h_a.jpg;happy;9.0;sad_115.1.wmv;sad;7.0;incongruent;120.0;160.0;128.09063432376465;h_s;;;;;0;0;0;0;;;;;;;192.483134200098;None;193.76640760002192;194.08311580005102;195.224519600044;195.24140060006175;197.21639210009016;None;None;0;;197.21639210009016;None;;;;;;;;5;;;;;191.44163200003095;None;198.79958079999778;None;None;None;[];198.79958079999778;None;None;198.79958079999778;None;;;;S11393;2022_Apr_25_1419;VideoMask;2021.1.2;119.67391260341266;
3.0;m;033_o_m_s_a.jpg;sad;7.0;sad_94.2ns.avi;sad;7.0;congruent;130.0;160.0;182.29120173647655;s_s;;;;;0;1;1;1;;;;;;;201.82458000001498;None;203.54108530003577;203.85777820006479;205.04955200001132;205.0662081000628;207.68263610010035;None;7;0;0.8564340999582782;207.68263610010035;None;;;;;;;;4;;;;;;;209.23266910004895;None;None;None;[];209.23266910004895;None;['7'];209.23266910004895;None;[0.9705218999879435];;;S11393;2022_Apr_25_1419;VideoMask;2021.1.2;119.67391260341266;
8.0;m;008_y_m_h_a.jpg;happy;9.0;happy_26.1ns.avi;happy;9.0;congruent;120.0;150.0;155.9437854594882;h_h;;;;;0;2;2;2;;;;;;;212.2326584000839;None;213.71579040004872;214.03234200004954;215.23320260003675;215.25751880009193;217.15743720007595;None;9;0;0.5415710000088438;217.15743720007595;None;;;;;;;;6;;;;;;;218.79074330010917;None;None;None;[];218.79074330010917;None;"['9', '9', '9']";218.79074330010917;None;"[0.47631339996587485, 1.0523212999105453, 2.0122056999243796]";;;S11393;2022_Apr_25_1419;VideoMask;2021.1.2;119.67391260341266;
0.0;f;040_y_f_h_a.jpg;happy;9.0;sad_138.1.wmv;sad;7.0;incongruent;120.0;160.0;133.99071306426532;h_s;;;;;0;3;3;3;;;;;;;221.79066000005696;None;223.10713120002765;223.42390920000616;224.55726850009523;224.57386860006955;226.5572903000284;None;None;0;;226.5572903000284;None;;;;;;;;3;;;;;;;228.131956600002;None;None;None;[];228.131956600002;None;"['7', '7']";228.131956600002;None;"[0.2310205000685528, 1.1354755000211298]";;;S11393;2022_Apr_25_1419;VideoMask;2021.1.2;119.67391260341266;
8.0;f;028_y_f_s_a.jpg;sad;7.0;sad_64.2ns.avi;sad;7.0;congruent;130.0;160.0;229.88540597086478;s_s;;;;;0;4;4;4;;;;;;;231.14043860009406;None;233.2902609000448;233.6068284000503;234.7739863001043;234.7986734000733;245.74006660003215;None;7;0;0.631078900070861;245.74006660003215;None;;;;;;;;4;;;;;;;247.29872810002416;None;None;None;[];247.29872810002416;None;['7'];247.29872810002416;None;[1.1206026000436395];;;S11393;2022_Apr_25_1419;VideoMask;2021.1.2;119.67391260341266;
7.0;m;027_o_m_s_a.jpg;sad;7.0;sad_10.4ns.avi;sad;7.0;congruent;130.0;160.0;185.20129417468752;s_s;;;;;0;5;5;5;;;;;;;250.28996800002642;None;252.03121730010025;252.34797180001624;253.54802099999506;253.56469450006261;256.64808160008397;None;7;0;0.7313139999751002;256.64808160008397;None;;;;;;;;2;;;;;;;258.2478404000867;None;None;None;[];258.2478404000867;None;"['7', '7', '7']";258.2478404000867;None;"[0.41969410004094243, 0.6912181000225246, 1.0754080000333488]";;;S11393;2022_Apr_25_1419;VideoMask;2021.1.2;119.67391260341266;
2.0;f;012_o_f_s_a.jpg;sad;7.0;sad_7.5ns.avi;sad;7.0;congruent;130.0;160.0;220.27842655424388;s_s;;;;;0;6;6;6;;;;;;;261.23950830008835;None;263.2642985000275;263.5810373000568;264.74749520001933;264.7641686000861;267.50611800001934;None;7;0;0.537127299932763;267.50611800001934;None;;;;;;;;4;;;;;;;269.0641774000833;None;None;None;[];269.0641774000833;None;['7'];269.0641774000833;None;[0.9390380999539047];;;S11393;2022_Apr_25_1419;VideoMask;2021.1.2;119.67391260341266;
2.0;f;012_o_f_h_a.jpg;happy;9.0;happy_27.1ns.avi;happy;9.0;congruent;120.0;150.0;146.44967055810616;h_h;;;;;0;7;7;7;;;;;;;272.06415160000324;None;273.47230450005736;273.7888618001016;274.96434410009533;274.9889663000358;277.4139119000174;None;9;0;0.5413068999769166;277.4139119000174;None;;;;;;;;6;;;;;;;278.97227270004805;None;None;None;[];278.97227270004805;None;"['9', '9']";278.97227270004805;None;"[0.9749212000751868, 2.3269433000823483]";;;S11393;2022_Apr_25_1419;VideoMask;2021.1.2;119.67391260341266;
8.0;f;028_y_f_h_a.jpg;happy;9.0;sad_119.1.wmv;sad;7.0;incongruent;120.0;160.0;148.71526953572538;h_s;;;;;0;8;8;8;;;;;;;281.97217030008323;None;283.4302627000725;283.74697690003086;284.88030430010986;284.8968686000444;286.9469467001036;None;7;0;0.648250799975358;286.9469467001036;None;;;;;;;;5;;;;;;;288.49682630004827;None;None;None;[];288.49682630004827;None;None;288.49682630004827;None;;;;S11393;2022_Apr_25_1419;VideoMask;2021.1.2;119.67391260341266;
6.0;m;016_y_m_s_a.jpg;sad;7.0;happy_60.4ns.avi;happy;9.0;incongruent;130.0;150.0;126.02367393611817;s_h;;;;;0;9;9;9;;;;;;;291.51344300003257;None;292.7717565000057;293.08858650003094;294.2717583000194;294.28841890010517;300.01322030008305;None;9;0;0.8540581000270322;300.01322030008305;None;;;;;;;;6;;;;;;;301.6048442000756;None;None;None;[];301.6048442000756;None;['9'];301.6048442000756;None;[1.0542832999490201];;;S11393;2022_Apr_25_1419;VideoMask;2021.1.2;119.67391260341266;
9.0;f;019_m_f_s_a.jpg;sad;7.0;sad_8.4ns.avi;sad;7.0;congruent;130.0;160.0;171.6633093155257;s_s;;;;;0;10;10;10;;;;;;;304.60480170010123;None;306.2630131000187;306.5797428000951;307.7213908000849;307.7380888001062;315.84624760004226;None;7;0;0.5649124000919983;315.84624760004226;None;;;;;;;;3;;;;;;;317.3959129001014;None;None;None;[];317.3959129001014;None;"['7', '7', '7']";317.3959129001014;None;"[0.5273265999276191, 1.0473190000047907, 1.495271399966441]";;;S11393;2022_Apr_25_1419;VideoMask;2021.1.2;119.67391260341266;
4.0;m;004_o_m_h_a.jpg;happy;9.0;happy_1.1ns.avi;happy;9.0;congruent;120.0;150.0;203.50057144619865;h_h;;;;;0;11;11;11;;;;;;;320.39615540008526;None;322.34581920003984;322.66260190005414;323.86257120000664;323.8792558000423;338.2878116000211;None;9;0;0.7634233999997377;338.2878116000211;None;;;;;;;;7;;;;;;;340.0953945000656;None;None;None;[];340.0953945000656;None;"['9', '9']";340.0953945000656;None;"[0.7556046000681818, 1.3078963999869302]";;;S11393;2022_Apr_25_1419;VideoMask;2021.1.2;119.67391260341266;
7.0;m;027_o_m_h_a.jpg;happy;9.0;happy_20.1ns.avi;happy;9.0;congruent;120.0;150.0;152.91127178874285;h_h;;;;;0;12;12;12;;;;;;;343.0952255000593;None;344.57011760002933;344.8869255000027;346.0785506000975;346.09603440004867;349.0367837001104;None;9;0;0.5743018999928609;349.0367837001104;None;;;;;;;;8;;;;;;;350.5867412000662;None;None;None;[];350.5867412000662;None;"['9', '9', '9']";350.5867412000662;None;"[0.48077240004204214, 0.9126320000505075, 1.6566264000721276]";;;S11393;2022_Apr_25_1419;VideoMask;2021.1.2;119.67391260341266;
0.0;f;040_y_f_s_a.jpg;sad;7.0;sad_94.3ns.avi;sad;7.0;congruent;130.0;160.0;155.27414203894395;s_s;;;;;0;13;13;13;;;;;;;353.58678190002684;None;355.0697609001072;355.3865436000051;356.6197455000365;356.63656260003336;359.1451343999943;None;7;0;0.6181712000397965;359.1451343999943;None;;;;;;;;5;;;;;;;360.7032686000457;None;None;None;[];360.7032686000457;None;None;360.7032686000457;None;;;;S11393;2022_Apr_25_1419;VideoMask;2021.1.2;119.67391260341266;
0.0;f;030_o_f_s_a.jpg;sad;7.0;sad_68.1ns.avi;sad;7.0;congruent;130.0;160.0;158.9411396037211;s_s;;;;;0;14;14;14;;;;;;;363.7280406000791;None;365.26956760010216;365.58630500000436;366.7610093000112;366.77790090010967;374.14439010003116;None;7;0;0.4828451999928802;374.14439010003116;None;;;;;;;;3;;;;;;;375.76935860002413;None;None;None;[];375.76935860002413;None;"['7', '7']";375.76935860002413;None;"[0.4179109000833705, 0.6977695000823587]";;;S11393;2022_Apr_25_1419;VideoMask;2021.1.2;119.67391260341266;
0.0;f;030_o_f_h_a.jpg;happy;9.0;sad_127.1.wmv;sad;7.0;incongruent;120.0;160.0;180.59976631384873;h_s;;;;;0;15;15;15;;;;;;;378.76930939999875;None;380.4857405000366;380.80245590000413;381.9276169000659;381.9441972000059;383.9357865001075;None;7;0;1.3315288999583572;383.9357865001075;None;;;;;;;;3;;;;;;;385.56073720008135;None;None;None;[];385.56073720008135;None;"['7', '7']";385.56073720008135;None;"[0.5227248000446707, 1.7386726000113413]";;;S11393;2022_Apr_25_1419;VideoMask;2021.1.2;119.67391260341266;
8.0;m;008_y_m_s_a.jpg;sad;7.0;happy_133.3.wmv;happy;9.0;incongruent;130.0;150.0;152.577966552593;s_h;;;;;0;16;16;16;;;;;;;388.56910310010426;None;390.0520928000333;390.36876560002565;391.4939050000394;391.5105092000449;393.50218720000703;None;9;0;0.5812138000037521;393.50218720000703;None;;;;;;;;8;;;;;;;395.04376160004176;None;None;None;[];395.04376160004176;None;"['9', '9', '9']";395.04376160004176;None;"[0.39157520001754165, 0.6875403000740334, 1.0075384000083432]";;;S11393;2022_Apr_25_1419;VideoMask;2021.1.2;119.67391260341266;
3.0;m;033_o_m_h_a.jpg;happy;9.0;sad_128.1.wmv;sad;7.0;incongruent;120.0;160.0;171.0492454518585;h_s;;;;;0;17;17;17;;;;;;;398.0436670000199;None;399.6768423001049;399.9936010000529;401.13511250005104;401.15193590009585;403.12672920001205;None;7;0;0.6527746999636292;403.12672920001205;None;;;;;;;;4;;;;;;;404.67681110010017;None;None;None;[];404.67681110010017;None;['7'];404.67681110010017;None;[0.4865683999378234];;;S11393;2022_Apr_25_1419;VideoMask;2021.1.2;119.67391260341266;
1.0;f;021_o_f_h_a.jpg;happy;9.0;sad_116.1.wmv;sad;7.0;incongruent;120.0;160.0;184.06847610053055;h_s;;;;;0;18;18;18;;;;;;;407.67686260002665;None;409.41820380010176;409.7349377000937;410.86866960010957;410.8933333000168;412.86836560000665;None;7;0;1.151074399938807;412.86836560000665;None;;;;;;;;4;;;;;;;414.41819600004237;None;None;None;[];414.41819600004237;None;"['7', '7']";414.41819600004237;None;"[0.3695407999912277, 0.9854775000130758]";;;S11393;2022_Apr_25_1419;VideoMask;2021.1.2;119.67391260341266;
4.0;m;004_o_m_s_a.jpg;sad;7.0;happy_28.1ns.avi;happy;9.0;incongruent;130.0;150.0;157.40741103039684;s_h;;;;;0;19;19;19;;;;;;;417.418201600085;None;418.93462290009484;419.25135220005177;420.46804130007513;420.4846715000458;424.7762192999944;None;9;0;0.5230925999348983;424.7762192999944;None;;;;;;;;7;;;;;;;426.32615390000865;None;None;None;[];426.32615390000865;None;"['9', '9', '9']";426.32615390000865;None;"[1.0772509999806061, 1.573196699959226, 1.9252735000336543]";;;S11393;2022_Apr_25_1419;VideoMask;2021.1.2;119.67391260341266;
8.0;f;028_y_f_s_a.jpg;sad;7.0;happy_122.3.wmv;happy;9.0;incongruent;130.0;150.0;171.8670540936116;s_h;;;;;0;20;20;20;;;;;;;429.327494300087;None;430.9676321001025;431.28428940009326;432.42582150001545;432.44265860004816;434.4175761000952;None;9;0;0.8337189999874681;434.4175761000952;None;;;;;;;;7;;;;;;;435.96750180004165;None;None;None;[];435.96750180004165;None;"['9', '9']";435.96750180004165;None;"[0.4999461000552401, 0.819952700054273]";;;S11393;2022_Apr_25_1419;VideoMask;2021.1.2;119.67391260341266;
8.0;m;008_y_m_s_a.jpg;sad;7.0;sad_6.5ns.avi;sad;7.0;congruent;130.0;160.0;170.39333839271438;s_s;;;;;0;21;21;21;;;;;;;438.97593960002996;None;440.6007429000456;440.9173983000219;442.17609090008773;442.20101830002386;447.0505675000604;None;7;0;0.5608383000362664;447.0505675000604;None;;;;;;;;4;;;;;;;448.60052160010673;None;None;None;[];448.60052160010673;None;['7'];448.60052160010673;None;[0.5549353000242263];;;S11393;2022_Apr_25_1419;VideoMask;2021.1.2;119.67391260341266;
8.0;f;028_y_f_h_a.jpg;happy;9.0;happy_23.1ns.avi;happy;9.0;congruent;120.0;150.0;225.70986890587952;h_h;;;;;0;22;22;22;;;;;;;451.6004166000057;None;453.68357710004784;454.0003690000158;455.15844080003444;455.1752560000168;459.708463100018;None;9;0;0.4709658999927342;459.708463100018;None;;;;;;;;7;;;;;;;461.3167428000597;None;None;None;[];461.3167428000597;None;"['9', '9']";461.3167428000597;None;"[0.35885289998259395, 0.6707874999847263]";;;S11393;2022_Apr_25_1419;VideoMask;2021.1.2;119.67391260341266;
8.0;m;008_y_m_h_a.jpg;happy;9.0;sad_111.1.wmv;sad;7.0;incongruent;120.0;160.0;152.63076835312847;h_s;;;;;0;23;23;23;;;;;;;464.3168208000716;None;465.79154120001476;466.1082656000508;467.28326250007376;467.2999554000562;469.241559300106;None;7;0;0.7140015999320894;469.241559300106;None;;;;;;;;4;;;;;;;470.791530800052;None;None;None;[];470.791530800052;None;['7'];470.791530800052;None;[0.500066600041464];;;S11393;2022_Apr_25_1419;VideoMask;2021.1.2;119.67391260341266;
0.0;f;040_y_f_s_a.jpg;sad;7.0;sad_67.2ns.avi;sad;7.0;congruent;130.0;160.0;220.9892697323079;s_s;;;;;0;24;24;24;;;;;;;473.79142280004453;None;475.8497083000839;476.16639330005273;477.308065899997;477.3244990000967;486.52432530000806;None;7;0;0.5111699000699446;486.52432530000806;None;;;;;;;;2;;;;;;;488.07430370000657;None;None;None;[];488.07430370000657;None;"['7', '7', '7']";488.07430370000657;None;"[0.36106539994943887, 0.6169964999426156, 1.0092354000080377]";;;S11393;2022_Apr_25_1419;VideoMask;2021.1.2;119.67391260341266;
8.0;m;008_y_m_s_a.jpg;sad;7.0;happy_29.1ns.avi;happy;9.0;incongruent;130.0;150.0;120.0316142834122;s_h;;;;;0;25;25;25;;;;;;;491.08264300005976;None;492.282375000068;492.5990976000903;493.749075800064;493.76574650011025;496.42404610000085;None;9;0;0.6434234000043944;496.42404610000085;None;;;;;;;;7;;;;;;;497.9739678000333;None;None;None;[];497.9739678000333;None;"['9', '9']";497.9739678000333;None;"[0.37340720009524375, 0.645329000079073]";;;S11393;2022_Apr_25_1419;VideoMask;2021.1.2;119.67391260341266;
6.0;m;016_y_m_s_a.jpg;sad;7.0;sad_8.3ns.avi;sad;7.0;congruent;130.0;160.0;152.85371098242734;s_s;;;;;0;26;26;26;;;;;;;500.97391850000713;None;502.45706840010826;502.77386350010056;503.9152773000533;503.9321524000261;511.66518320003524;None;None;0;;511.66518320003524;None;;;;;;;;4;;;;;;;513.665054500103;None;None;None;[];513.665054500103;None;['7'];513.665054500103;None;[1.3063054999802262];;;S11393;2022_Apr_25_1419;VideoMask;2021.1.2;119.67391260341266;
6.0;m;016_y_m_h_a.jpg;happy;9.0;sad_114.1.wmv;sad;7.0;incongruent;120.0;160.0;136.20550699298644;h_s;;;;;0;27;27;27;;;;;;;516.6652080001077;None;517.9983751000836;518.3150844000047;519.4650854000356;519.4816473000683;521.448330800049;None;7;0;0.7232314000139013;521.448330800049;None;;;;;;;;3;;;;;;;523.0148718000855;None;None;None;[];523.0148718000855;None;"['7', '7']";523.0148718000855;None;"[0.4445302999811247, 2.596653199987486]";;;S11393;2022_Apr_25_1419;VideoMask;2021.1.2;119.67391260341266;
7.0;m;027_o_m_s_a.jpg;sad;7.0;happy_117.3.wmv;happy;9.0;incongruent;130.0;150.0;215.61964028550614;s_h;;;;;0;28;28;28;;;;;;;526.0149661001051;None;528.0146747000981;528.3314137000125;529.4564664000645;529.4728563000681;531.464703100035;None;9;0;0.4666792000643909;531.464703100035;None;;;;;;;;6;;;;;;;533.014575200039;None;None;None;[];533.014575200039;None;['9'];533.014575200039;None;[0.3650092000607401];;;S11393;2022_Apr_25_1419;VideoMask;2021.1.2;119.67391260341266;
6.0;m;016_y_m_h_a.jpg;happy;9.0;happy_9.2ns.avi;happy;9.0;congruent;120.0;150.0;130.52042428082717;h_h;;;;;0;29;29;29;;;;;;;536.0228874000022;None;537.3227485000389;537.6393145000329;538.8393832000438;538.8561540000373;544.69762240001;None;9;0;0.5618046999443322;544.69762240001;None;;;;;;;;7;;;;;;;546.2475541000022;None;None;None;[];546.2475541000022;None;"['9', '9']";546.2475541000022;None;"[0.2520180999999866, 0.5317467999411747]";;;S11393;2022_Apr_25_1419;VideoMask;2021.1.2;119.67391260341266;
0.0;f;040_y_f_s_a.jpg;sad;7.0;happy_127.3.wmv;happy;9.0;incongruent;130.0;150.0;131.7195455720239;s_h;;;;;0;30;30;30;;;;;;;549.24758570001;None;550.5723553000716;550.8889664000599;552.0224810000509;552.0389534001006;554.0889239000389;None;9;0;0.8506182000273839;554.0889239000389;None;;;;;;;;6;;;;;;;555.655617200071;None;None;None;[];555.655617200071;None;['9'];555.655617200071;None;[0.26785059995017946];;;S11393;2022_Apr_25_1419;VideoMask;2021.1.2;119.67391260341266;
0.0;f;030_o_f_s_a.jpg;sad;7.0;happy_125.3.wmv;happy;9.0;incongruent;130.0;150.0;220.51454909128134;s_h;;;;;0;31;31;31;;;;;;;558.6556071999948;None;560.7052242000354;561.0219981000992;562.1804488000926;562.1969357000198;564.1554670000914;None;9;0;0.783967399969697;564.1554670000914;None;;;;;;;;7;;;;;;;565.7136390000815;None;None;None;[];565.7136390000815;None;"['9', '9']";565.7136390000815;None;"[0.44189659995026886, 0.7217570999637246]";;;S11393;2022_Apr_25_1419;VideoMask;2021.1.2;119.67391260341266;
0.0;f;030_o_f_s_a.jpg;sad;7.0;sad_64.3ns.avi;sad;7.0;congruent;130.0;160.0;165.78667874766072;s_s;;;;;0;32;32;32;;;;;;;568.7135457000695;None;570.3050908000441;570.6218654999975;571.8051565000787;571.8216077000834;576.7549941000761;None;7;0;0.6485451000044122;576.7549941000761;None;;;;;;;;3;;;;;;;578.3049079000484;None;None;None;[];578.3049079000484;None;"['7', '7']";578.3049079000484;None;"[0.5466130999848247, 1.0828901000786573]";;;S11393;2022_Apr_25_1419;VideoMask;2021.1.2;119.67391260341266;
3.0;m;013_y_m_s_a.jpg;sad;7.0;sad_7.7ns.avi;sad;7.0;congruent;130.0;160.0;196.24182255763262;s_s;;;;;0;33;33;33;;;;;;;581.3133012000471;None;583.1629628000082;583.4797694000881;584.6463527000742;584.6629250000697;590.6130019000266;None;7;0;0.6546538999537006;590.6130019000266;None;;;;;;;;3;;;;;;;592.6294202000136;None;None;None;[];592.6294202000136;None;"['7', '7']";592.6294202000136;None;"[0.4141448999289423, 0.7181647999677807]";;;S11393;2022_Apr_25_1419;VideoMask;2021.1.2;119.67391260341266;
3.0;m;013_y_m_h_a.jpg;happy;9.0;happy_9.1ns.avi;happy;9.0;congruent;120.0;150.0;165.1890303600433;h_h;;;;;0;34;34;34;;;;;;;595.6295284000225;None;597.2124756000703;597.5293103000149;598.6709431000054;598.6876575000351;601.8875347001012;None;9;0;0.6601962000131607;601.8875347001012;None;;;;;;;;7;;;;;;;603.5208242000081;None;None;None;[];603.5208242000081;None;"['9', '9']";603.5208242000081;None;"[0.3150482999626547, 0.5706188000040129]";;;S11393;2022_Apr_25_1419;VideoMask;2021.1.2;119.67391260341266;
4.0;m;004_o_m_h_a.jpg;happy;9.0;sad_95.1ns.avi;sad;7.0;incongruent;120.0;160.0;152.68270002069931;h_s;;;;;0;35;35;35;;;;;;;606.5209049000405;None;608.0290683000349;608.3456264000852;609.545579800033;609.562691600062;618.2705250000581;None;7;0;0.653087200014852;618.2705250000581;None;;;;;;;;2;;;;;;;619.8286568000913;None;None;None;[];619.8286568000913;None;"['7', '7', '7', '7']";619.8286568000913;None;"[0.3432042000349611, 0.63117109995801, 1.7029053999576718, 2.439044400001876]";;;S11393;2022_Apr_25_1419;VideoMask;2021.1.2;119.67391260341266;
3.0;m;013_y_m_h_a.jpg;happy;9.0;sad_113.2.wmv;sad;7.0;incongruent;120.0;160.0;217.4973891947951;h_s;;;;;0;36;36;36;;;;;;;622.8371099000797;None;624.8701408000197;625.1867498001084;626.3119182001101;626.3284024000168;628.3200907000573;None;7;0;1.2435343000106514;628.3200907000573;None;;;;;;;;4;;;;;;;629.8784198000794;None;None;None;[];629.8784198000794;None;['7'];629.8784198000794;None;[0.5412427999544889];;;S11393;2022_Apr_25_1419;VideoMask;2021.1.2;119.67391260341266;
4.0;m;004_o_m_h_a.jpg;happy;9.0;happy_25.1ns.avi;happy;9.0;congruent;120.0;150.0;216.63044503818386;h_h;;;;;0;37;37;37;;;;;;;632.8783759000944;None;634.8781218000222;635.1946819000877;636.4530368000269;636.4697356000543;640.0198066000594;None;9;0;0.5995977999409661;640.0198066000594;None;;;;;;;;6;;;;;;;641.5696871000109;None;None;None;[];641.5696871000109;None;['9'];641.5696871000109;None;[0.3538920999271795];;;S11393;2022_Apr_25_1419;VideoMask;2021.1.2;119.67391260341266;
4.0;m;004_o_m_s_a.jpg;sad;7.0;happy_131.2.wmv;happy;9.0;incongruent;130.0;150.0;181.38407540847405;s_h;;;;;0;38;38;38;;;;;;;644.5782912001014;None;646.3027766000014;646.6193688000785;647.7527963001048;647.7695009000599;649.7529115000507;None;9;0;0.6026316999923438;649.7529115000507;None;;;;;;;;6;;;;;;;651.3360720000928;None;None;None;[];651.3360720000928;None;['9'];651.3360720000928;None;[0.30760079994797707];;;S11393;2022_Apr_25_1419;VideoMask;2021.1.2;119.67391260341266;
0.0;f;040_y_f_h_a.jpg;happy;9.0;happy_24.3ns.avi;happy;9.0;congruent;120.0;150.0;213.25460698950434;h_h;;;;;0;39;39;39;;;;;;;654.3359758000588;None;656.3024271000177;656.6191780000227;657.7858084000181;657.8027552000713;659.6775058000349;None;9;0;0.6782064000144601;659.6775058000349;None;;;;;;;;6;;;;;;;661.2274340000004;None;None;None;[];661.2274340000004;None;['9'];661.2274340000004;None;[0.4882443000096828];;;S11393;2022_Apr_25_1419;VideoMask;2021.1.2;119.67391260341266;
2.0;f;012_o_f_s_a.jpg;sad;7.0;happy_139.1.wmv;happy;9.0;incongruent;130.0;150.0;162.31500468041804;s_h;;;;;0;40;40;40;;;;;;;664.2273503000615;None;665.7770912999986;666.0938698000973;667.2276154001011;667.2437386000529;669.2271519000642;None;9;0;0.6245104999979958;669.2271519000642;None;;;;;;;;7;;;;;;;670.7688011000864;None;None;None;[];670.7688011000864;None;"['9', '9']";670.7688011000864;None;"[0.22706900001503527, 0.5067245999816805]";;;S11393;2022_Apr_25_1419;VideoMask;2021.1.2;119.67391260341266;
0.0;f;030_o_f_h_a.jpg;happy;9.0;happy_24.1ns.avi;happy;9.0;congruent;120.0;150.0;168.36256624020774;h_h;;;;;0;41;41;41;;;;;;;673.7687163000228;None;675.376891400083;675.693665000028;676.8936509001069;676.9103344000177;680.1519095000112;None;9;0;0.7476126999827102;680.1519095000112;None;;;;;;;;7;;;;;;;681.7018287000246;None;None;None;[];681.7018287000246;None;"['9', '9']";681.7018287000246;None;"[0.2458922000369057, 0.5097407000139356]";;;S11393;2022_Apr_25_1419;VideoMask;2021.1.2;119.67391260341266;
2.0;f;012_o_f_h_a.jpg;happy;9.0;sad_113.1.wmv;sad;7.0;incongruent;120.0;160.0;177.44551734737394;h_s;;;;;0;42;42;42;;;;;;;684.701836100081;None;686.3765671000583;686.6932805000106;687.8266281000106;687.8431085000047;689.8266020000447;None;7;0;0.5610626999987289;689.8266020000447;None;;;;;;;;5;;;;;;;691.3765005000168;None;None;None;[];691.3765005000168;None;None;691.3765005000168;None;;;;S11393;2022_Apr_25_1419;VideoMask;2021.1.2;119.67391260341266;
3.0;m;033_o_m_s_a.jpg;sad;7.0;sad_64.5ns.avi;sad;7.0;congruent;130.0;160.0;130.55717223801247;s_s;;;;;0;43;43;43;;;;;;;694.4014817000134;None;695.7013076000148;696.0179636999965;697.1680871000281;697.1847043000162;703.7345162000274;None;7;0;0.7731496000196785;703.7345162000274;None;;;;;;;;3;;;;;;;705.2844297999982;None;None;None;[];705.2844297999982;None;"['7', '7', '7']";705.2844297999982;None;"[0.719284399994649, 1.2634843999985605, 2.2711662999354303]";;;S11393;2022_Apr_25_1419;VideoMask;2021.1.2;119.67391260341266;
7.0;m;027_o_m_h_a.jpg;happy;9.0;sad_117.1.wmv;sad;7.0;incongruent;120.0;160.0;181.28665202824095;h_s;;;;;0;44;44;44;;;;;;;708.2927131000906;None;710.0175763000734;710.3343641000101;711.4679707000032;711.4926132000983;713.4675098001026;None;8;0;1.2480763000203297;713.4675098001026;None;;;;;;;;5;;;;;;;715.1008735001087;None;None;None;[];715.1008735001087;None;None;715.1008735001087;None;;;;S11393;2022_Apr_25_1419;VideoMask;2021.1.2;119.67391260341266;
3.0;m;033_o_m_s_a.jpg;sad;7.0;happy_126.3.wmv;happy;9.0;incongruent;130.0;150.0;198.85252030535366;s_h;;;;;0;45;45;45;;;;;;;718.1255607000785;None;719.9838881000178;720.3006685000146;721.4588870001025;721.4926307999995;723.4339070999995;None;9;0;0.6898454999318346;723.4339070999995;None;;;;;;;;7;;;;;;;725.0422144000186;None;None;None;[];725.0422144000186;None;"['9', '9', '9']";725.0422144000186;None;"[0.3776257000863552, 0.641582400072366, 1.3694840000243858]";;;S11393;2022_Apr_25_1419;VideoMask;2021.1.2;119.67391260341266;
3.0;m;033_o_m_h_a.jpg;happy;9.0;sad_136.1.wmv;sad;7.0;incongruent;120.0;160.0;176.97002883463455;h_s;;;;;0;46;46;46;;;;;;;728.0421408000402;None;729.716931700008;730.0336269000545;731.166936499998;731.1837393000023;733.1669658001047;None;7;0;1.3409052999923006;733.1669658001047;None;;;;;;;;3;;;;;;;734.725247800001;None;None;None;[];734.725247800001;None;"['7', '7', '7', '7']";734.725247800001;None;"[0.9105445999884978, 1.3268369999714196, 1.70251279999502, 2.3024107000092044]";;;S11393;2022_Apr_25_1419;VideoMask;2021.1.2;119.67391260341266;
9.0;f;019_m_f_h_a.jpg;happy;9.0;happy_10.1ns.avi;happy;9.0;congruent;120.0;150.0;157.2463435658512;h_h;;;;;0;47;47;47;;;;;;;737.7335032999981;None;739.2584429000271;739.5748429000378;740.7081870000111;740.7250838000327;748.1499714000383;None;9;0;0.6138488000724465;748.1499714000383;None;;;;;;;;5;;;;;;;749.8997429000447;None;None;None;[];749.8997429000447;None;None;749.8997429000447;None;;;;S11393;2022_Apr_25_1419;VideoMask;2021.1.2;119.67391260341266;
2.0;f;012_o_f_h_a.jpg;happy;9.0;happy_2.2ns.avi;happy;9.0;congruent;120.0;150.0;206.34800317295262;h_h;;;;;0;48;48;48;;;;;;;752.9163867000025;None;754.8744510000106;755.1912169000134;756.3829914000817;756.3995034000836;768.5243444000371;None;9;0;0.543573800008744;768.5243444000371;None;;;;;;;;7;;;;;;;770.1074963000137;None;None;None;[];770.1074963000137;None;"['9', '9', '9']";770.1074963000137;None;"[0.3522897999500856, 0.7923194000031799, 1.3363111999351531]";;;S11393;2022_Apr_25_1419;VideoMask;2021.1.2;119.67391260341266;
3.0;m;033_o_m_h_a.jpg;happy;9.0;happy_24.2ns.avi;happy;9.0;congruent;120.0;150.0;167.9423847659953;h_h;;;;;0;49;49;49;;;;;;;773.1159274000674;None;774.7072264000308;775.0240025999956;776.1906160000945;776.2076035001082;779.8905889000744;None;9;0;0.7290961999678984;779.8905889000744;None;;;;;;;;6;;;;;;;781.4571284000995;None;None;None;[];781.4571284000995;None;['9'];781.4571284000995;None;[0.40255230001639575];;;S11393;2022_Apr_25_1419;VideoMask;2021.1.2;119.67391260341266;
1.0;f;021_o_f_s_a.jpg;sad;7.0;happy_61.2ns.avi;happy;9.0;incongruent;130.0;150.0;210.94664004826666;s_h;;;;;0;50;50;50;;;;;;;784.4570816000924;None;786.4068749001017;786.7236614000285;787.8819976000814;787.8986702000257;792.3818466000957;None;9;0;0.5099189999746159;792.3818466000957;None;;;;;;;;5;;;;;;;794.0485771000385;None;None;None;[];794.0485771000385;None;None;794.0485771000385;None;;;;S11393;2022_Apr_25_1419;VideoMask;2021.1.2;119.67391260341266;
4.0;m;004_o_m_s_a.jpg;sad;7.0;sad_2.4ns.avi;sad;7.0;congruent;130.0;160.0;153.02079367163634;s_s;;;;;0;51;51;51;;;;;;;797.0733073001029;None;798.5733321000589;798.8898471000139;800.0398959000595;800.0565988000017;807.9814894000301;None;7;0;0.7182019000174478;807.9814894000301;None;;;;;;;;4;;;;;;;809.539594000089;None;None;None;[];809.539594000089;None;['7'];809.539594000089;None;[1.1760959000093862];;;S11393;2022_Apr_25_1419;VideoMask;2021.1.2;119.67391260341266;
8.0;m;008_y_m_h_a.jpg;happy;9.0;happy_1.2ns.avi;happy;9.0;congruent;120.0;150.0;210.98946429383824;h_h;;;;;0;52;52;52;;;;;;;812.5395367000019;None;814.5310785000911;814.8478002001066;816.014490300091;816.0311572001083;828.7807892001001;None;9;0;0.47941169992554933;828.7807892001001;None;;;;;;;;7;;;;;;;830.3307047000853;None;None;None;[];830.3307047000853;None;"['9', '9']";830.3307047000853;None;"[0.2571928999386728, 0.6009820000035688]";;;S11393;2022_Apr_25_1419;VideoMask;2021.1.2;119.67391260341266;
2.0;f;012_o_f_s_a.jpg;sad;7.0;happy_52.2ns.avi;happy;9.0;incongruent;130.0;150.0;172.57202848318138;s_h;;;;;0;53;53;53;;;;;;;833.3306536000455;None;834.9554203000152;835.2721268000314;836.438658200088;836.4553387000924;839.9554371000268;None;9;0;0.6883665000787005;839.9554371000268;None;;;;;;;;6;;;;;;;841.5886633000337;None;None;None;[];841.5886633000337;None;['9'];841.5886633000337;None;[0.6552220000885427];;;S11393;2022_Apr_25_1419;VideoMask;2021.1.2;119.67391260341266;
9.0;f;019_m_f_s_a.jpg;sad;7.0;happy_61.1ns.avi;happy;9.0;incongruent;130.0;150.0;181.3003220572762;s_h;;;;;0;54;54;54;;;;;;;844.5887041999958;None;846.3219241000479;846.6384007000597;847.8058531000279;847.8388320000377;855.1634471000871;None;9;0;0.6564300000900403;855.1634471000871;None;;;;;;;;5;;;;;;;856.721583000035;None;None;None;[];856.721583000035;None;None;856.721583000035;None;;;;S11393;2022_Apr_25_1419;VideoMask;2021.1.2;119.67391260341266;
0.0;f;030_o_f_h_a.jpg;happy;9.0;sad_133.1.wmv;sad;7.0;incongruent;120.0;160.0;198.86251500867985;h_s;;;;;0;55;55;55;;;;;;;859.7548382000532;None;861.6130099000875;861.9296735000098;863.0548435000237;863.0714829000644;865.0629820000613;None;7;0;0.5488543000537902;865.0629820000613;None;;;;;;;;4;;;;;;;866.6130070000654;None;None;None;[];866.6130070000654;None;['7'];866.6130070000654;None;[0.5747874999651685];;;S11393;2022_Apr_25_1419;VideoMask;2021.1.2;119.67391260341266;
0.0;f;040_y_f_h_a.jpg;happy;9.0;sad_128.2.wmv;sad;7.0;incongruent;120.0;160.0;206.10005857915363;h_s;;;;;0;56;56;56;;;;;;;869.6128673000494;None;871.5375800000038;871.8543963000411;873.0294297001092;873.0459041000577;874.9875770000508;None;None;0;;874.9875770000508;None;;;;;;;;3;;;;;;;876.5374645000556;None;None;None;[];876.5374645000556;None;"['7', '7']";876.5374645000556;None;"[0.010467899963259697, 0.7304655000334606]";;;S11393;2022_Apr_25_1419;VideoMask;2021.1.2;119.67391260341266;
1.0;f;021_o_f_s_a.jpg;sad;7.0;sad_9.5ns.avi;sad;7.0;congruent;130.0;160.0;206.16642757875042;s_s;;;;;0;57;57;57;;;;;;;879.5465049000923;None;881.4707544000121;881.787456799997;883.0291240001097;883.0455835000612;888.6457914001076;None;None;0;;888.6457914001076;None;;;;;;;;5;;;;;;;890.2122720000334;None;None;None;[];890.2122720000334;None;None;890.2122720000334;None;;;;S11393;2022_Apr_25_1419;VideoMask;2021.1.2;119.67391260341266;
1.0;f;021_o_f_h_a.jpg;happy;9.0;happy_12.1ns.avi;happy;9.0;congruent;120.0;150.0;132.59080005900228;h_h;;;;;0;58;58;58;;;;;;;893.2287195000099;None;894.553598400089;894.8703630000819;896.0370894001098;896.0537327000638;903.6201219001086;None;9;0;1.1039882999612018;903.6201219001086;None;;;;;;;;4;;;;;;;905.1618321000133;None;None;None;[];905.1618321000133;None;['7'];905.1618321000133;None;[1.4499936999054626];;;S11393;2022_Apr_25_1419;VideoMask;2021.1.2;119.67391260341266;
3.0;m;013_y_m_s_a.jpg;sad;7.0;happy_56.2ns.avi;happy;9.0;incongruent;130.0;150.0;163.39234110935848;s_h;;;;;0;59;59;59;;;;;;;908.1700719000073;None;909.7281346000964;910.0449581000721;911.2536197000882;911.2783173000207;916.2032479000045;None;9;0;0.728747499990277;916.2032479000045;None;;;;;;;;6;;;;;;;917.9862184000667;None;None;None;[];917.9862184000667;None;['9'];917.9862184000667;None;[0.35383110004477203];;;S11393;2022_Apr_25_1419;VideoMask;2021.1.2;119.67391260341266;
;;;;;;;;;;;;;;;;;;;;;;;;;;;;;;;;;;;;;;;;;;;;;;;;;;;;;;;;;;;;;;;;;920.9781046001008;None;;;;;;
