primePerson;primeGender;prime;primeEmotion;corrAnsPrime;target;targetEmotion;corrAnsTar;Cond;ID_Primer;ID_Target;JitterTime;Condition;example.thisRepN;example.thisTrialN;example.thisN;example.thisIndex;study.thisRepN;study.thisTrialN;study.thisN;study.thisIndex;MR_trigger_time;MR_trigger_number;text_intro.started;text_intro.stopped;text_probe.started;text_probe.stopped;polygon_ISI.started;polygon_ISI.stopped;polygon.started;polygon.stopped;primerImage.started;primerImage.stopped;response.started;response.stopped;key_resp.keys;key_resp.corr;key_resp.started;key_resp.stopped;slider_Text.started;slider_Text.stopped;slider_ex.response;slider_ex.rt;slider_ex.history;slider_ex.started;slider_ex.stopped;Rating;slider_resp_response.keys;slider_resp_response.rt;slider_resp_response.started;slider_resp_response.stopped;key_resp.rt;text_start.started;text_start.stopped;text_slider.started;text_slider.stopped;slider_stud.response;slider_stud.rt;slider_stud.history;slider_stud.started;slider_stud.stopped;slider_resp_study.keys;slider_resp_study.rt;slider_resp_study.started;slider_resp_study.stopped;text_ende.started;text_ende.stopped;participant;date;expName;psychopyVersion;frameRate;
1111;m;1111_m_m_h_a.jpg;happy;9;example_30.4ns.avi;neutral;7;incongruent;120.0;170.0;189.5874364012288;;0;0;0;0;;;;;37.67175730000599;1;37.7503585999948;39.81717929999286;39.81717929999286;None;41.77544630000193;None;43.7504775999987;44.066923299993505;45.283528899992234;45.30024319999211;49.55830259999493;None;None;0;49.55830259999493;None;51.50011179999274;None;None;None;[];51.50011179999274;None;6;['9'];[1.5613229000009596];51.50011179999274;None;;;;;;;;;;;;;;;;;S12004;2023_Feb_07_1803;VideoMask;2021.1.2;121.34920903488837;
1113;f;1113_y_f_s_a.jpg;sad;7;example_30.3ns.avi;neutral;7;incongruent;130.0;170.0;229.02432995836998;;0;1;1;1;;;;;;;;;;;54.516909199999645;None;56.64143669999612;56.96678889999748;58.1331807999959;58.149702499998966;60.09997399999702;None;9;0;60.09997399999702;None;61.69146689999616;None;None;None;[];61.69146689999616;None;6;"['9', '9', '7']";"[0.5141851000080351, 1.3548985000088578, 2.090229699999327]";61.69146689999616;None;0.9375675000046613;;;;;;;;;;;;;;;;S12004;2023_Feb_07_1803;VideoMask;2021.1.2;121.34920903488837;
9.0;f;019_m_f_h_a.jpg;happy;9.0;sad_115.1.wmv;sad;7.0;incongruent;120.0;160.0;128.09063432376465;h_s;;;;;0;0;0;0;;;;;;;65.72453310000128;None;67.01614439999685;67.33268449999741;68.47441110000364;68.49126310000429;70.46611269999994;None;7;0;70.46611269999994;None;;;;;;;;4;;;;;0.8755490999901667;64.70811819999653;None;72.02437709999504;None;None;None;[];72.02437709999504;None;['7'];[1.1731462000025203];72.02437709999504;None;;;S12004;2023_Feb_07_1803;VideoMask;2021.1.2;121.34920903488837;
3.0;m;033_o_m_s_a.jpg;sad;7.0;sad_94.2ns.avi;sad;7.0;congruent;130.0;160.0;182.29120173647655;s_s;;;;;0;1;1;1;;;;;;;75.02430469999672;None;76.74912989999575;77.06581099999312;78.26594040000055;78.2826012000005;80.89081339999393;None;7;0;80.89081339999393;None;;;;;;;;4;;;;;0.8186854000086896;;;82.76561940000101;None;None;None;[];82.76561940000101;None;['7'];[0.607812100002775];82.76561940000101;None;;;S12004;2023_Feb_07_1803;VideoMask;2021.1.2;121.34920903488837;
8.0;m;008_y_m_h_a.jpg;happy;9.0;happy_26.1ns.avi;happy;9.0;congruent;120.0;150.0;155.9437854594882;h_h;;;;;0;2;2;2;;;;;;;85.76551460000337;None;87.2904858999973;87.60708220000379;88.8072228999954;88.82400510000298;90.73217449999356;None;9;0;90.73217449999356;None;;;;;;;;8;;;;;0.5774914999929024;;;92.99049310000555;None;None;None;[];92.99049310000555;None;"['9', '9', '9']";"[0.3750665999978082, 0.5988771999982418, 0.879304799993406]";92.99049310000555;None;;;S12004;2023_Feb_07_1803;VideoMask;2021.1.2;121.34920903488837;
0.0;f;040_y_f_h_a.jpg;happy;9.0;sad_138.1.wmv;sad;7.0;incongruent;120.0;160.0;133.99071306426532;h_s;;;;;0;3;3;3;;;;;;;95.9819920000009;None;97.3067810000066;97.62348100000236;98.74844399999711;98.76519399999233;100.75689509999938;None;7;0;100.75689509999938;None;;;;;;;;3;;;;;0.6488701999915065;;;102.50677949999226;None;None;None;[];102.50677949999226;None;"['7', '7']";"[0.37859919999027625, 0.5787736999918707]";102.50677949999226;None;;;S12004;2023_Feb_07_1803;VideoMask;2021.1.2;121.34920903488837;
8.0;f;028_y_f_s_a.jpg;sad;7.0;sad_64.2ns.avi;sad;7.0;congruent;130.0;160.0;229.88540597086478;s_s;;;;;0;4;4;4;;;;;;;105.515127199993;None;107.66494519999833;107.98154860000068;109.12319990000105;109.14053160000185;120.11448329999985;None;7;0;120.11448329999985;None;;;;;;;;3;;;;;0.5951709999935701;;;121.66447499999776;None;None;None;[];121.66447499999776;None;"['7', '7']";"[0.3734966999909375, 0.5969878999894718]";121.66447499999776;None;;;S12004;2023_Feb_07_1803;VideoMask;2021.1.2;121.34920903488837;
7.0;m;027_o_m_s_a.jpg;sad;7.0;sad_10.4ns.avi;sad;7.0;congruent;130.0;160.0;185.20129417468752;s_s;;;;;0;5;5;5;;;;;;;124.6728948999953;None;126.42251180000312;126.73930849999306;127.90591040000436;127.92258440000296;131.05608439999924;None;7;0;131.05608439999924;None;;;;;;;;3;;;;;0.677521000005072;;;132.60574139999517;None;None;None;[];132.60574139999517;None;"['7', '7', '7']";"[0.34394029999384657, 0.5438984999927925, 1.02416760000051]";132.60574139999517;None;;;S12004;2023_Feb_07_1803;VideoMask;2021.1.2;121.34920903488837;
2.0;f;012_o_f_s_a.jpg;sad;7.0;sad_7.5ns.avi;sad;7.0;congruent;130.0;160.0;220.27842655424388;s_s;;;;;0;6;6;6;;;;;;;135.60585659999924;None;137.63885010000376;137.9555468000035;139.17263410000305;139.19731570000295;141.88066919999255;None;7;0;141.88066919999255;None;;;;;;;;2;;;;;0.4131576999934623;;;143.43883270000515;None;None;None;[];143.43883270000515;None;"['7', '7', '7', '7', '7']";"[0.31872419999854174, 0.5266362999973353, 0.7506696000054944, 0.9987835000065388, 1.270776699995622]";143.43883270000515;None;;;S12004;2023_Feb_07_1803;VideoMask;2021.1.2;121.34920903488837;
2.0;f;012_o_f_h_a.jpg;happy;9.0;happy_27.1ns.avi;happy;9.0;congruent;120.0;150.0;146.44967055810616;h_h;;;;;0;7;7;7;;;;;;;146.44713970000157;None;147.85516750000534;148.1718785999983;149.33838980000291;149.35504490000312;151.7969468999945;None;9;0;151.7969468999945;None;;;;;;;;8;;;;;0.576913600001717;;;153.3967852999922;None;None;None;[];153.3967852999922;None;"['9', '9', '9']";"[0.3366526000027079, 0.6407397000002675, 2.536992499997723]";153.3967852999922;None;;;S12004;2023_Feb_07_1803;VideoMask;2021.1.2;121.34920903488837;
8.0;f;028_y_f_h_a.jpg;happy;9.0;sad_119.1.wmv;sad;7.0;incongruent;120.0;160.0;148.71526953572538;h_s;;;;;0;8;8;8;;;;;;;156.3966947000008;None;157.8465051999956;158.16324730000633;159.29659729999548;159.31330510000407;161.3631591000012;None;7;0;161.3631591000012;None;;;;;;;;2;;;;;0.5545497999992222;;;162.92981800000416;None;None;None;[];162.92981800000416;None;"['7', '7', '7']";"[0.292171099994448, 0.5317368999967584, 0.7957623999973293]";162.92981800000416;None;;;S12004;2023_Feb_07_1803;VideoMask;2021.1.2;121.34920903488837;
6.0;m;016_y_m_s_a.jpg;sad;7.0;happy_60.4ns.avi;happy;9.0;incongruent;130.0;150.0;126.02367393611817;s_h;;;;;0;9;9;9;;;;;;;165.9381085000059;None;167.196102300004;167.512870999999;168.66289690000121;168.67959790000168;174.43790809999336;None;8;0;174.43790809999336;None;;;;;;;;5;;;;;0.4559301000117557;;;175.98771649999253;None;None;None;[];175.98771649999253;None;None;;175.98771649999253;None;;;S12004;2023_Feb_07_1803;VideoMask;2021.1.2;121.34920903488837;
9.0;f;019_m_f_s_a.jpg;sad;7.0;sad_8.4ns.avi;sad;7.0;congruent;130.0;160.0;171.6633093155257;s_s;;;;;0;10;10;10;;;;;;;179.01264489999448;None;180.6709101000015;180.98742130000028;182.13754209999752;182.15421130000323;190.26227259999723;None;7;0;190.26227259999723;None;;;;;;;;3;;;;;0.3513987000042107;;;191.8454536000063;None;None;None;[];191.8454536000063;None;"['7', '7']";"[0.3922294999938458, 0.7281145000015385]";191.8454536000063;None;;;S12004;2023_Feb_07_1803;VideoMask;2021.1.2;121.34920903488837;
4.0;m;004_o_m_h_a.jpg;happy;9.0;happy_1.1ns.avi;happy;9.0;congruent;120.0;150.0;203.50057144619865;h_h;;;;;0;11;11;11;;;;;;;194.86222189999535;None;196.82849420000275;197.14522299999953;198.31201589999546;198.32863449999422;212.76158950000536;None;9;0;212.76158950000536;None;;;;;;;;8;;;;;0.41202430000703316;;;214.31152279999515;None;None;None;[];214.31152279999515;None;"['9', '9', '9']";"[0.27829339999880176, 0.5581931000051554, 0.8298957000079099]";214.31152279999515;None;;;S12004;2023_Feb_07_1803;VideoMask;2021.1.2;121.34920903488837;
7.0;m;027_o_m_h_a.jpg;happy;9.0;happy_20.1ns.avi;happy;9.0;congruent;120.0;150.0;152.91127178874285;h_h;;;;;0;12;12;12;;;;;;;217.31157910000184;None;218.8114210000058;219.12793299999612;220.26968230000057;220.2861971999955;223.27787890000036;None;9;0;223.27787890000036;None;;;;;;;;9;;;;;0.43965539999771863;;;224.81948570000532;None;None;None;[];224.81948570000532;None;"['9', '9', '9', '9']";"[0.2902914000005694, 0.49799519999942277, 0.6903021000034641, 0.9299634000053629]";224.81948570000532;None;;;S12004;2023_Feb_07_1803;VideoMask;2021.1.2;121.34920903488837;
0.0;f;040_y_f_s_a.jpg;sad;7.0;sad_94.3ns.avi;sad;7.0;congruent;130.0;160.0;155.27414203894395;s_s;;;;;0;13;13;13;;;;;;;227.81939299999794;None;229.31088160000218;229.62751370000478;230.79415879999578;230.8109717000043;233.38592220000282;None;7;0;233.38592220000282;None;;;;;;;;4;;;;;1.2920192000019597;;;235.2025047000061;None;None;None;[];235.2025047000061;None;"['7', '7']";"[0.2431557999952929, 0.9071969999931753]";235.2025047000061;None;;;S12004;2023_Feb_07_1803;VideoMask;2021.1.2;121.34920903488837;
0.0;f;030_o_f_s_a.jpg;sad;7.0;sad_68.1ns.avi;sad;7.0;congruent;130.0;160.0;158.9411396037211;s_s;;;;;0;14;14;14;;;;;;;238.20245599999907;None;239.7438267999969;240.0606614999997;241.2856291000062;241.30221249999886;248.61877919999824;None;9;0;248.61877919999824;None;;;;;;;;4;;;;;1.4908494999981485;;;250.1770375000051;None;None;None;[];250.1770375000051;None;"['7', '7']";"[0.4366446000058204, 0.940742799997679]";250.1770375000051;None;;;S12004;2023_Feb_07_1803;VideoMask;2021.1.2;121.34920903488837;
0.0;f;030_o_f_h_a.jpg;happy;9.0;sad_127.1.wmv;sad;7.0;incongruent;120.0;160.0;180.59976631384873;h_s;;;;;0;15;15;15;;;;;;;253.17707069999597;None;254.90169489999244;255.21851089999836;256.35186599999724;256.3684615999955;258.35178820000147;None;None;0;258.35178820000147;None;;;;;;;;4;;;;;;;;259.90153190000274;None;None;None;[];259.90153190000274;None;['7'];[0.24835650000022724];259.90153190000274;None;;;S12004;2023_Feb_07_1803;VideoMask;2021.1.2;121.34920903488837;
8.0;m;008_y_m_s_a.jpg;sad;7.0;happy_133.3.wmv;happy;9.0;incongruent;130.0;150.0;152.577966552593;s_h;;;;;0;16;16;16;;;;;;;262.9015941999969;None;264.4014148999995;264.7180951000046;265.8432612000033;265.8598071000015;267.851433799995;None;9;0;267.851433799995;None;;;;;;;;8;;;;;0.36222260000067763;;;269.40141089999815;None;None;None;[];269.40141089999815;None;"['9', '9', '9', '9']";"[0.3641201999998884, 0.6360707999992883, 1.068562300002668, 1.3720555000036256]";269.40141089999815;None;;;S12004;2023_Feb_07_1803;VideoMask;2021.1.2;121.34920903488837;
3.0;m;033_o_m_h_a.jpg;happy;9.0;sad_128.1.wmv;sad;7.0;incongruent;120.0;160.0;171.0492454518585;h_s;;;;;0;17;17;17;;;;;;;272.4013941000012;None;274.0427478000056;274.3595206000027;275.4926579000021;275.5095161000063;277.49280819999694;None;7;0;277.49280819999694;None;;;;;;;;4;;;;;0.3206265000044368;;;279.0426995000016;None;None;None;[];279.0426995000016;None;['7'];[0.4829273999930592];279.0426995000016;None;;;S12004;2023_Feb_07_1803;VideoMask;2021.1.2;121.34920903488837;
1.0;f;021_o_f_h_a.jpg;happy;9.0;sad_116.1.wmv;sad;7.0;incongruent;120.0;160.0;184.06847610053055;h_s;;;;;0;18;18;18;;;;;;;282.0425966000039;None;283.792498099996;284.10918970000057;285.2425102999987;285.25919139999314;287.2425321000046;None;7;0;287.2425321000046;None;;;;;;;;1;;;;;0.42703549998987;;;288.7924098999938;None;None;None;[];288.7924098999938;None;"['7', '7', '7', '7', '7']";"[0.19736000000557397, 0.4373482000082731, 0.6610683000035351, 0.9091320000006817, 1.1573763000051258]";288.7924098999938;None;;;S12004;2023_Feb_07_1803;VideoMask;2021.1.2;121.34920903488837;
4.0;m;004_o_m_s_a.jpg;sad;7.0;happy_28.1ns.avi;happy;9.0;incongruent;130.0;150.0;157.40741103039684;s_h;;;;;0;19;19;19;;;;;;;291.79239529999904;None;293.3088604999939;293.62558579999313;294.7755810999952;294.7922331000009;299.1505157000065;None;9;0;299.1505157000065;None;;;;;;;;9;;;;;0.32716880000953097;;;300.7004356999969;None;None;None;[];300.7004356999969;None;"['9', '9', '9', '9']";"[0.393470700000762, 0.6090881999989506, 0.8252646999899298, 1.0491211999906227]";300.7004356999969;None;;;S12004;2023_Feb_07_1803;VideoMask;2021.1.2;121.34920903488837;
8.0;f;028_y_f_s_a.jpg;sad;7.0;happy_122.3.wmv;happy;9.0;incongruent;130.0;150.0;171.8670540936116;s_h;;;;;0;20;20;20;;;;;;;303.7086677000043;None;305.35846350000065;305.67522499999905;306.8085473999963;306.8252099999954;308.8084658000007;None;9;0;308.8084658000007;None;;;;;;;;7;;;;;0.3654192000103649;;;310.3584081000008;None;None;None;[];310.3584081000008;None;"['9', '9', '9']";"[0.3354207999946084, 0.6152237999922363, 1.0311740999895846]";310.3584081000008;None;;;S12004;2023_Feb_07_1803;VideoMask;2021.1.2;121.34920903488837;
8.0;m;008_y_m_s_a.jpg;sad;7.0;sad_6.5ns.avi;sad;7.0;congruent;130.0;160.0;170.39333839271438;s_s;;;;;0;21;21;21;;;;;;;313.35853929999575;None;314.991472099995;315.3082324999996;316.44150190000073;316.45823600000585;321.4415987999964;None;7;0;321.4415987999964;None;;;;;;;;2;;;;;0.3882815999968443;;;323.0412808999972;None;None;None;[];323.0412808999972;None;"['7', '7', '7']";"[0.3564884999941569, 0.6123594999953639, 0.8843543999973917]";323.0412808999972;None;;;S12004;2023_Feb_07_1803;VideoMask;2021.1.2;121.34920903488837;
8.0;f;028_y_f_h_a.jpg;happy;9.0;happy_23.1ns.avi;happy;9.0;congruent;120.0;150.0;225.70986890587952;h_h;;;;;0;22;22;22;;;;;;;326.04121419999865;None;328.12438769999426;328.4410474000033;329.57463659999485;329.5911216999957;334.1493511000008;None;9;0;334.1493511000008;None;;;;;;;;9;;;;;0.41626800000085495;;;335.69926100000157;None;None;None;[];335.69926100000157;None;"['9', '9', '9', '9']";"[0.2182011999975657, 0.49025329999858513, 0.77037100000598, 1.0343397999968147]";335.69926100000157;None;;;S12004;2023_Feb_07_1803;VideoMask;2021.1.2;121.34920903488837;
8.0;m;008_y_m_h_a.jpg;happy;9.0;sad_111.1.wmv;sad;7.0;incongruent;120.0;160.0;152.63076835312847;h_s;;;;;0;23;23;23;;;;;;;338.69914729999437;None;340.18235170000116;340.49910489999456;341.64079889999994;341.6574311000004;343.63238660000206;None;7;0;343.63238660000206;None;;;;;;;;3;;;;;0.3092199999955483;;;345.79059730000154;None;None;None;[];345.79059730000154;None;"['7', '7']";"[0.34316050000779796, 0.5670702000061283]";345.79059730000154;None;;;S12004;2023_Feb_07_1803;VideoMask;2021.1.2;121.34920903488837;
0.0;f;040_y_f_s_a.jpg;sad;7.0;sad_67.2ns.avi;sad;7.0;congruent;130.0;160.0;220.9892697323079;s_s;;;;;0;24;24;24;;;;;;;348.79061779999756;None;350.8653692999942;351.18227010000555;352.31529990000126;352.33204740000656;361.54006869999284;None;7;0;361.54006869999284;None;;;;;;;;4;;;;;0.329525699999067;;;363.09006069999305;None;None;None;[];363.09006069999305;None;['7'];[0.4036121999961324];363.09006069999305;None;;;S12004;2023_Feb_07_1803;VideoMask;2021.1.2;121.34920903488837;
8.0;m;008_y_m_s_a.jpg;sad;7.0;happy_29.1ns.avi;happy;9.0;incongruent;130.0;150.0;120.0316142834122;s_h;;;;;0;25;25;25;;;;;;;366.0984144999966;None;367.3064574000018;367.6232558000047;368.7898478999996;368.8065429999988;371.4481136999966;None;9;0;371.4481136999966;None;;;;;;;;8;;;;;0.669496699993033;;;372.99809759999334;None;None;None;[];372.99809759999334;None;"['9', '9', '9']";"[0.24763549999624956, 0.5194287000049371, 0.791437699997914]";372.99809759999334;None;;;S12004;2023_Feb_07_1803;VideoMask;2021.1.2;121.34920903488837;
6.0;m;016_y_m_s_a.jpg;sad;7.0;sad_8.3ns.avi;sad;7.0;congruent;130.0;160.0;152.85371098242734;s_s;;;;;0;26;26;26;;;;;;;375.99804170000425;None;377.4978138000006;377.8145525;378.9642643999978;378.98119760000554;386.7060988000012;None;7;0;386.7060988000012;None;;;;;;;;4;;;;;0.6596333000052255;;;388.2642259999993;None;None;None;[];388.2642259999993;None;"['7', '7']";"[0.301506400006474, 0.7734528000000864]";388.2642259999993;None;;;S12004;2023_Feb_07_1803;VideoMask;2021.1.2;121.34920903488837;
6.0;m;016_y_m_h_a.jpg;happy;9.0;sad_114.1.wmv;sad;7.0;incongruent;120.0;160.0;136.20550699298644;h_s;;;;;0;27;27;27;;;;;;;391.2726655000006;None;392.6222820999974;392.9390185999946;394.0724396000005;394.08906240000215;396.0722753000009;None;7;0;396.0722753000009;None;;;;;;;;3;;;;;0.7255628000129946;;;397.62227999999595;None;None;None;[];397.62227999999595;None;"['7', '7']";"[0.2875649999914458, 0.5512209000007715]";397.62227999999595;None;;;S12004;2023_Feb_07_1803;VideoMask;2021.1.2;121.34920903488837;
7.0;m;027_o_m_s_a.jpg;sad;7.0;happy_117.3.wmv;happy;9.0;incongruent;130.0;150.0;215.61964028550614;s_h;;;;;0;28;28;28;;;;;;;400.622126000002;None;402.6219942000025;402.9385998999933;404.06374369999685;404.0804097999935;406.0721377000009;None;9;0;406.0721377000009;None;;;;;;;;7;;;;;1.2855097999999998;;;407.6219553999981;None;None;None;[];407.6219553999981;None;"['9', '9']";"[0.8638382999924943, 1.1436628999945242]";407.6219553999981;None;;;S12004;2023_Feb_07_1803;VideoMask;2021.1.2;121.34920903488837;
6.0;m;016_y_m_h_a.jpg;happy;9.0;happy_9.2ns.avi;happy;9.0;congruent;120.0;150.0;130.52042428082717;h_h;;;;;0;29;29;29;;;;;;;410.62191289999464;None;411.91327780000574;412.2300811000023;413.3634796999977;413.3800829999964;419.3048531999957;None;9;0;419.3048531999957;None;;;;;;;;8;;;;;0.38879549999546725;;;420.84652969999297;None;None;None;[];420.84652969999297;None;"['9', '9', '9']";"[0.2872351999976672, 0.5430519000074128, 1.6552058999950532]";420.84652969999297;None;;;S12004;2023_Feb_07_1803;VideoMask;2021.1.2;121.34920903488837;
0.0;f;040_y_f_s_a.jpg;sad;7.0;happy_127.3.wmv;happy;9.0;incongruent;130.0;150.0;131.7195455720239;s_h;;;;;0;30;30;30;;;;;;;423.84648520000337;None;425.15463140000065;425.47130999999354;426.5963922999945;426.6129643000022;428.67125379999925;None;9;0;428.67125379999925;None;;;;;;;;8;;;;;0.622615100000985;;;430.22121530000004;None;None;None;[];430.22121530000004;None;"['9', '9', '9']";"[0.23275770001055207, 0.4562844000029145, 0.6881494000117527]";430.22121530000004;None;;;S12004;2023_Feb_07_1803;VideoMask;2021.1.2;121.34920903488837;
0.0;f;030_o_f_s_a.jpg;sad;7.0;happy_125.3.wmv;happy;9.0;incongruent;130.0;150.0;220.51454909128134;s_h;;;;;0;31;31;31;;;;;;;433.22117119999893;None;435.2876066000026;435.604233399994;436.73769609999727;436.75435810000636;438.73759980000614;None;9;0;438.73759980000614;None;;;;;;;;7;;;;;0.4600133000058122;;;440.2875776000001;None;None;None;[];440.2875776000001;None;"['9', '9', '9']";"[0.2620059000037145, 0.4862208999984432, 0.934058200000436]";440.2875776000001;None;;;S12004;2023_Feb_07_1803;VideoMask;2021.1.2;121.34920903488837;
0.0;f;030_o_f_s_a.jpg;sad;7.0;sad_64.3ns.avi;sad;7.0;congruent;130.0;160.0;165.78667874766072;s_s;;;;;0;32;32;32;;;;;;;443.29602100000193;None;444.89566500000365;445.212320000006;446.4124560000055;446.42900960000406;451.3457492000016;None;7;0;451.3457492000016;None;;;;;;;;2;;;;;0.34790540000540204;;;452.8954636999988;None;None;None;[];452.8954636999988;None;"['7', '7', '7']";"[0.4062995999993291, 0.6461399999971036, 0.8941771999961929]";452.8954636999988;None;;;S12004;2023_Feb_07_1803;VideoMask;2021.1.2;121.34920903488837;
3.0;m;013_y_m_s_a.jpg;sad;7.0;sad_7.7ns.avi;sad;7.0;congruent;130.0;160.0;196.24182255763262;s_s;;;;;0;33;33;33;;;;;;;455.89548370000557;None;457.7453073999932;458.0618489000044;459.2283102999936;459.24513480000314;465.21179040000425;None;8;0;465.21179040000425;None;;;;;;;;5;;;;;1.4659572999953525;;;466.761674399997;None;None;None;[];466.761674399997;None;None;;466.761674399997;None;;;S12004;2023_Feb_07_1803;VideoMask;2021.1.2;121.34920903488837;
3.0;m;013_y_m_h_a.jpg;happy;9.0;happy_9.1ns.avi;happy;9.0;congruent;120.0;150.0;165.1890303600433;h_h;;;;;0;34;34;34;;;;;;;469.77812610000547;None;471.36141840000346;471.6781986999995;472.86961530000553;472.88637429999653;476.0363928000006;None;9;0;476.0363928000006;None;;;;;;;;8;;;;;0.6173169999965467;;;477.58638160000555;None;None;None;[];477.58638160000555;None;"['9', '9', '9', '9']";"[0.2673533000051975, 0.5152258000016445, 1.0512790999928256, 1.4594369999977062]";477.58638160000555;None;;;S12004;2023_Feb_07_1803;VideoMask;2021.1.2;121.34920903488837;
4.0;m;004_o_m_h_a.jpg;happy;9.0;sad_95.1ns.avi;sad;7.0;incongruent;120.0;160.0;152.68270002069931;h_s;;;;;0;35;35;35;;;;;;;480.58644939999795;None;482.08609470000374;482.4027383999928;483.55291569999827;483.5696140999935;492.32784600000014;None;7;0;492.32784600000014;None;;;;;;;;1;;;;;0.357910599996103;;;493.9858746999962;None;None;None;[];493.9858746999962;None;"['7', '7', '7', '7', '7']";"[0.28376039999420755, 0.5636407999991206, 0.8196016000001691, 1.147626300007687, 1.4516474999982165]";493.9858746999962;None;;;S12004;2023_Feb_07_1803;VideoMask;2021.1.2;121.34920903488837;
3.0;m;013_y_m_h_a.jpg;happy;9.0;sad_113.2.wmv;sad;7.0;incongruent;120.0;160.0;217.4973891947951;h_s;;;;;0;36;36;36;;;;;;;496.9941032999923;None;499.0272230999981;499.34377409999433;500.4774286000029;500.49398280000605;502.4772609999927;None;7;0;502.4772609999927;None;;;;;;;;2;;;;;0.6085976000031224;;;504.0271824999945;None;None;None;[];504.0271824999945;None;"['7', '7', '7', '7']";"[0.33047000000078697, 0.5943572999967728, 0.8581468999909703, 1.1463088000018615]";504.0271824999945;None;;;S12004;2023_Feb_07_1803;VideoMask;2021.1.2;121.34920903488837;
4.0;m;004_o_m_h_a.jpg;happy;9.0;happy_25.1ns.avi;happy;9.0;congruent;120.0;150.0;216.63044503818386;h_h;;;;;0;37;37;37;;;;;;;507.02712749999773;None;509.03524440000183;509.35193920000165;510.5103225000057;510.5268494000047;514.1769812999992;None;9;0;514.1769812999992;None;;;;;;;;8;;;;;0.5328873999969801;;;515.7350330000045;None;None;None;[];515.7350330000045;None;"['9', '9', '9']";"[0.23063800000818446, 0.5106240000022808, 0.7746775999985402]";515.7350330000045;None;;;S12004;2023_Feb_07_1803;VideoMask;2021.1.2;121.34920903488837;
4.0;m;004_o_m_s_a.jpg;sad;7.0;happy_131.2.wmv;happy;9.0;incongruent;130.0;150.0;181.38407540847405;s_h;;;;;0;38;38;38;;;;;;;518.7351071000012;None;520.4598506000038;520.776583400002;521.9097036000021;521.9266301000025;523.9098352000001;None;9;0;523.9098352000001;None;;;;;;;;8;;;;;0.35982130000775214;;;525.4598300999933;None;None;None;[];525.4598300999933;None;"['9', '9', '9']";"[0.23362590000033379, 0.5055928000074346, 0.761667300001136]";525.4598300999933;None;;;S12004;2023_Feb_07_1803;VideoMask;2021.1.2;121.34920903488837;
0.0;f;040_y_f_h_a.jpg;happy;9.0;happy_24.3ns.avi;happy;9.0;congruent;120.0;150.0;213.25460698950434;h_h;;;;;0;39;39;39;;;;;;;528.4598426000011;None;530.4261108000064;530.7428724000056;531.8929483999964;531.9095974999946;533.8012339999987;None;9;0;533.8012339999987;None;;;;;;;;8;;;;;0.4603657999978168;;;535.342787799993;None;None;None;[];535.342787799993;None;"['9', '9', '9']";"[0.2308978999935789, 0.4947916999954032, 0.7910983000037959]";535.342787799993;None;;;S12004;2023_Feb_07_1803;VideoMask;2021.1.2;121.34920903488837;
2.0;f;012_o_f_s_a.jpg;sad;7.0;happy_139.1.wmv;happy;9.0;incongruent;130.0;150.0;162.31500468041804;s_h;;;;;0;40;40;40;;;;;;;538.3428284999973;None;539.9008994000033;540.2176179999951;541.3513992999942;541.3674704000005;543.3509085999976;None;9;0;543.3509085999976;None;;;;;;;;9;;;;;0.5027836999943247;;;544.9008873999992;None;None;None;[];544.9008873999992;None;"['9', '9', '9', '9']";"[0.28079660001094453, 0.576608600007603, 0.784772700004396, 1.0646496000117622]";544.9008873999992;None;;;S12004;2023_Feb_07_1803;VideoMask;2021.1.2;121.34920903488837;
0.0;f;030_o_f_h_a.jpg;happy;9.0;happy_24.1ns.avi;happy;9.0;congruent;120.0;150.0;168.36256624020774;h_h;;;;;0;41;41;41;;;;;;;547.9091040000058;None;549.5172013999982;549.8339524000039;551.0256174999959;551.0421533000044;554.3005305999977;None;9;0;554.3005305999977;None;;;;;;;;8;;;;;0.32117440000001807;;;555.8755492000055;None;None;None;[];555.8755492000055;None;"['9', '9', '9']";"[0.3061087999958545, 0.5620037000044249, 0.8259992999956012]";555.8755492000055;None;;;S12004;2023_Feb_07_1803;VideoMask;2021.1.2;121.34920903488837;
2.0;f;012_o_f_h_a.jpg;happy;9.0;sad_113.1.wmv;sad;7.0;incongruent;120.0;160.0;177.44551734737394;h_s;;;;;0;42;42;42;;;;;;;558.8754632000055;None;560.5584738000034;560.8751982999966;562.0085092999943;562.0253576999967;564.0087043999956;None;7;0;564.0087043999956;None;;;;;;;;3;;;;;0.5649681000068085;;;565.5585439999995;None;None;None;[];565.5585439999995;None;"['7', '7']";"[0.20677570000407286, 0.45489430001180153]";565.5585439999995;None;;;S12004;2023_Feb_07_1803;VideoMask;2021.1.2;121.34920903488837;
3.0;m;033_o_m_s_a.jpg;sad;7.0;sad_64.5ns.avi;sad;7.0;congruent;130.0;160.0;130.55717223801247;s_s;;;;;0;43;43;43;;;;;;;568.5586360000016;None;569.8582943999936;570.174970299995;571.3249716999999;571.341694799994;577.8917062999972;None;7;0;577.8917062999972;None;;;;;;;;1;;;;;0.44193620000442024;;;579.441433800006;None;None;None;[];579.441433800006;None;"['7', '9', '7', '7', '7', '7', '7']";"[0.2522293000074569, 0.5001714999962132, 0.5080407000059495, 0.756094900003518, 1.1403338000091026, 1.3880611000058707, 1.6042362000007415]";579.441433800006;None;;;S12004;2023_Feb_07_1803;VideoMask;2021.1.2;121.34920903488837;
7.0;m;027_o_m_h_a.jpg;happy;9.0;sad_117.1.wmv;sad;7.0;incongruent;120.0;160.0;181.28665202824095;h_s;;;;;0;44;44;44;;;;;;;582.449655000004;None;584.1745819000062;584.4912104999967;585.6249310999992;585.6496788999939;587.6245229000051;None;7;0;587.6245229000051;None;;;;;;;;4;;;;;0.9491686999972444;;;589.1743852999934;None;None;None;[];589.1743852999934;None;['7'];[0.5991914999904111];589.1743852999934;None;;;S12004;2023_Feb_07_1803;VideoMask;2021.1.2;121.34920903488837;
3.0;m;033_o_m_s_a.jpg;sad;7.0;happy_126.3.wmv;happy;9.0;incongruent;130.0;150.0;198.85252030535366;s_h;;;;;0;45;45;45;;;;;;;592.1743377999956;None;594.0408485999942;594.3575530999951;595.4990947000042;595.5159317999933;597.4908199000056;None;9;0;597.4908199000056;None;;;;;;;;7;;;;;0.6108443999983137;;;599.0407997000002;None;None;None;[];599.0407997000002;None;"['9', '9']";"[0.33297860001039226, 1.044900700013386]";599.0407997000002;None;;;S12004;2023_Feb_07_1803;VideoMask;2021.1.2;121.34920903488837;
3.0;m;033_o_m_h_a.jpg;happy;9.0;sad_136.1.wmv;sad;7.0;incongruent;120.0;160.0;176.97002883463455;h_s;;;;;0;46;46;46;;;;;;;602.0407445000019;None;603.732211399998;604.0489876000065;605.1739914999926;605.190489200002;607.1821474000026;None;7;0;607.1821474000026;None;;;;;;;;4;;;;;0.4874588000093354;;;608.748823300004;None;None;None;[];608.748823300004;None;"['7', '7']";"[0.34481599999708124, 1.3851528999948641]";608.748823300004;None;;;S12004;2023_Feb_07_1803;VideoMask;2021.1.2;121.34920903488837;
9.0;f;019_m_f_h_a.jpg;happy;9.0;happy_10.1ns.avi;happy;9.0;congruent;120.0;150.0;157.2463435658512;h_h;;;;;0;47;47;47;;;;;;;611.7486480999942;None;613.2734978999943;613.5902519999945;614.7819808000058;614.7986613999965;622.1732824999926;None;9;0;622.1732824999926;None;;;;;;;;7;;;;;0.3923047999996925;;;623.7232560999983;None;None;None;[];623.7232560999983;None;"['9', '9', '9', '9']";"[0.31454849999863654, 0.6103450999944471, 0.970465399994282, 1.434540999995079]";623.7232560999983;None;;;S12004;2023_Feb_07_1803;VideoMask;2021.1.2;121.34920903488837;
2.0;f;012_o_f_h_a.jpg;happy;9.0;happy_2.2ns.avi;happy;9.0;congruent;120.0;150.0;206.34800317295262;h_h;;;;;0;48;48;48;;;;;;;626.731698699994;None;628.6896454999951;629.0064416999958;630.1981513000064;630.2148470999964;642.3478682999994;None;9;0;642.3478682999994;None;;;;;;;;7;;;;;0.4258184999926016;;;643.9060707000026;None;None;None;[];643.9060707000026;None;"['9', '9', '9']";"[0.2837121000047773, 0.6274425000010524, 0.9397105000098236]";643.9060707000026;None;;;S12004;2023_Feb_07_1803;VideoMask;2021.1.2;121.34920903488837;
3.0;m;033_o_m_h_a.jpg;happy;9.0;happy_24.2ns.avi;happy;9.0;congruent;120.0;150.0;167.9423847659953;h_h;;;;;0;49;49;49;;;;;;;646.9061259000009;None;648.5057826999982;648.8224588000012;649.9557572000049;649.9728366000054;653.689056999996;None;9;0;653.689056999996;None;;;;;;;;8;;;;;0.40457969999988563;;;655.264024499993;None;None;None;[];655.264024499993;None;"['9', '9', '9']";"[0.35786849999567494, 0.6614159000018844, 0.9414574999973411]";655.264024499993;None;;;S12004;2023_Feb_07_1803;VideoMask;2021.1.2;121.34920903488837;
1.0;f;021_o_f_s_a.jpg;sad;7.0;happy_61.2ns.avi;happy;9.0;incongruent;130.0;150.0;210.94664004826666;s_h;;;;;0;50;50;50;;;;;;;658.263976400005;None;660.2220444999984;660.5388254999998;661.6975133999949;661.7136767000047;666.196984299997;None;9;0;666.196984299997;None;;;;;;;;6;;;;;0.5047448999976041;;;667.7468969000038;None;None;None;[];667.7468969000038;None;['9'];[0.29866109999420587];667.7468969000038;None;;;S12004;2023_Feb_07_1803;VideoMask;2021.1.2;121.34920903488837;
4.0;m;004_o_m_s_a.jpg;sad;7.0;sad_2.4ns.avi;sad;7.0;congruent;130.0;160.0;153.02079367163634;s_s;;;;;0;51;51;51;;;;;;;670.7551347999979;None;672.2550053000014;672.5717520000035;673.7382351999986;673.7549238000065;681.6717128000018;None;7;0;681.6717128000018;None;;;;;;;;3;;;;;0.31809779998729937;;;683.2297304999956;None;None;None;[];683.2297304999956;None;"['7', '7', '7', '7', '9']";"[0.2558680999936769, 0.5358777999936137, 0.8159386000043014, 1.111863700003596, 2.519867199996952]";683.2297304999956;None;;;S12004;2023_Feb_07_1803;VideoMask;2021.1.2;121.34920903488837;
8.0;m;008_y_m_h_a.jpg;happy;9.0;happy_1.2ns.avi;happy;9.0;congruent;120.0;150.0;210.98946429383824;h_h;;;;;0;52;52;52;;;;;;;686.2297583000036;None;688.2210296999983;688.5378897000046;689.6713122999936;689.6879750999942;702.4625121999998;None;9;0;702.4625121999998;None;;;;;;;;8;;;;;0.4393875000096159;;;704.3624196000019;None;None;None;[];704.3624196000019;None;"['9', '9', '9', '9', '9']";"[0.6352956000046106, 0.9953050000040093, 1.3150424999912502, 1.6192127999966033, 1.9872048999968683]";704.3624196000019;None;;;S12004;2023_Feb_07_1803;VideoMask;2021.1.2;121.34920903488837;
2.0;f;012_o_f_s_a.jpg;sad;7.0;happy_52.2ns.avi;happy;9.0;incongruent;130.0;150.0;172.57202848318138;s_h;;;;;0;53;53;53;;;;;;;707.3625033999997;None;708.9954562000057;709.312179200002;710.4953236000001;710.5122308999998;714.0039484000008;None;9;0;714.0039484000008;None;;;;;;;;9;;;;;0.43389220000244677;;;715.5537049999984;None;None;None;[];715.5537049999984;None;"['9', '9', '9', '9']";"[0.25978930000565015, 0.4996571999945445, 0.7558526000066195, 1.0118515000067418]";715.5537049999984;None;;;S12004;2023_Feb_07_1803;VideoMask;2021.1.2;121.34920903488837;
9.0;f;019_m_f_s_a.jpg;sad;7.0;happy_61.1ns.avi;happy;9.0;incongruent;130.0;150.0;181.3003220572762;s_h;;;;;0;54;54;54;;;;;;;718.5537552000023;None;720.2950131999969;720.6118754000054;721.7789893000008;721.8034742000018;729.1368060999957;None;8;0;729.1368060999957;None;;;;;;;;5;;;;;0.6929907000012463;;;730.6865866000007;None;None;None;[];730.6865866000007;None;None;;730.6865866000007;None;;;S12004;2023_Feb_07_1803;VideoMask;2021.1.2;121.34920903488837;
0.0;f;030_o_f_h_a.jpg;happy;9.0;sad_133.1.wmv;sad;7.0;incongruent;120.0;160.0;198.86251500867985;h_s;;;;;0;55;55;55;;;;;;;733.7030509000033;None;735.5696606999991;735.8863886000036;737.0196154000005;737.0363141999987;739.0196602999931;None;7;0;739.0196602999931;None;;;;;;;;2;;;;;0.5700168000039412;;;740.5695412000059;None;None;None;[];740.5695412000059;None;"['7', '7', '7', '7', '7']";"[0.23616179999953602, 0.5323846000101184, 0.820002000007662, 1.1160192000097595, 1.372146600013366]";740.5695412000059;None;;;S12004;2023_Feb_07_1803;VideoMask;2021.1.2;121.34920903488837;
0.0;f;040_y_f_h_a.jpg;happy;9.0;sad_128.2.wmv;sad;7.0;incongruent;120.0;160.0;206.10005857915363;h_s;;;;;0;56;56;56;;;;;;;743.5695999000018;None;745.5026553999924;745.8194624000025;746.952446299998;746.9691692000051;748.9526500999928;None;7;0;748.9526500999928;None;;;;;;;;3;;;;;1.045065500002238;;;750.7025065000053;None;None;None;[];750.7025065000053;None;"['7', '7']";"[0.29536010000447277, 0.5671196000039345]";750.7025065000053;None;;;S12004;2023_Feb_07_1803;VideoMask;2021.1.2;121.34920903488837;
1.0;f;021_o_f_s_a.jpg;sad;7.0;sad_9.5ns.avi;sad;7.0;congruent;130.0;160.0;206.16642757875042;s_s;;;;;0;57;57;57;;;;;;;753.7025565999938;None;755.6273430000001;755.9440147999994;757.1688756999938;757.1855691999954;762.8021635000041;None;7;0;762.8021635000041;None;;;;;;;;2;;;;;0.3396186000027228;;;764.3521733999951;None;None;None;[];764.3521733999951;None;"['7', '7', '7']";"[0.23762519999581855, 0.5894602999906056, 0.8773436000046786]";764.3521733999951;None;;;S12004;2023_Feb_07_1803;VideoMask;2021.1.2;121.34920903488837;
1.0;f;021_o_f_h_a.jpg;happy;9.0;happy_12.1ns.avi;happy;9.0;congruent;120.0;150.0;132.59080005900228;h_h;;;;;0;58;58;58;;;;;;;767.3605124000023;None;768.6852226000046;769.0019398000004;770.1686811999971;770.1851386000053;777.7517280000029;None;9;0;777.7517280000029;None;;;;;;;;7;;;;;0.4062334999907762;;;779.3017104000028;None;None;None;[];779.3017104000028;None;"['9', '9']";"[0.4079195999947842, 0.6799831999960588]";779.3017104000028;None;;;S12004;2023_Feb_07_1803;VideoMask;2021.1.2;121.34920903488837;
3.0;m;013_y_m_s_a.jpg;sad;7.0;happy_56.2ns.avi;happy;9.0;incongruent;130.0;150.0;163.39234110935848;s_h;;;;;0;59;59;59;;;;;;;782.3016329999955;None;783.8596977999987;784.176371900001;785.3596372000029;785.3764650999947;790.3345970999944;None;9;0;790.3345970999944;None;;;;;;;;6;;;;;0.9110829999990528;;;791.8844796000049;None;None;None;[];791.8844796000049;None;['9'];[0.3133405999979004];791.8844796000049;None;;;S12004;2023_Feb_07_1803;VideoMask;2021.1.2;121.34920903488837;
;;;;;;;;;;;;;;;;;;;;;;;;;;;;;;;;;;;;;;;;;;;;;;;;;;;;;;;;;;;;;;;;;794.8928751000058;None;;;;;;
