primePerson;primeGender;prime;primeEmotion;corrAnsPrime;target;targetEmotion;corrAnsTar;Cond;ID_Primer;ID_Target;JitterTime;Condition;example.thisRepN;example.thisTrialN;example.thisN;example.thisIndex;study.thisRepN;study.thisTrialN;study.thisN;study.thisIndex;MR_trigger_time;MR_trigger_number;text_intro.started;text_intro.stopped;text_probe.started;text_probe.stopped;polygon_ISI.started;polygon_ISI.stopped;polygon.started;polygon.stopped;primerImage.started;primerImage.stopped;response.started;response.stopped;key_resp.keys;key_resp.corr;key_resp.rt;key_resp.started;key_resp.stopped;slider_Text.started;slider_Text.stopped;slider_ex.response;slider_ex.rt;slider_ex.history;slider_ex.started;slider_ex.stopped;Rating;slider_resp_response.keys;slider_resp_response.started;slider_resp_response.stopped;slider_resp_response.rt;text_start.started;text_start.stopped;text_slider.started;text_slider.stopped;slider_stud.response;slider_stud.rt;slider_stud.history;slider_stud.started;slider_stud.stopped;slider_resp_study.keys;slider_resp_study.rt;slider_resp_study.started;slider_resp_study.stopped;text_ende.started;text_ende.stopped;participant;date;expName;psychopyVersion;frameRate;
1111;m;1111_m_m_h_a.jpg;happy;9;example_30.4ns.avi;neutral;7;incongruent;120.0;170.0;189.5874364012288;;0;0;0;0;;;;;30.346347600221634;1;30.43210310023278;32.43221040023491;32.43221040023491;None;34.44953450001776;None;38.14027750026435;38.456906700041145;39.63196239992976;39.648627100046724;43.93179470021278;None;8;0;1.4768785000778735;43.93179470021278;None;45.490210300311446;None;None;None;[];45.490210300311446;None;5;None;45.490210300311446;None;;;;;;;;;;;;;;;;;S11504;2022_Jun_08_1017;VideoMask;2021.1.2;120.12488182712171;
1113;f;1113_y_f_s_a.jpg;sad;7;example_30.3ns.avi;neutral;7;incongruent;130.0;170.0;229.02432995836998;;0;1;1;1;;;;;;;;;;;48.515053200069815;None;50.63152140006423;50.94806140009314;52.18997830012813;52.206576799973845;54.08156040031463;None;8;0;1.0471367998979986;54.08156040031463;None;55.63126590009779;None;None;None;[];55.63126590009779;None;6;['9'];55.63126590009779;None;[0.8334375000558794];;;;;;;;;;;;;;;;S11504;2022_Jun_08_1017;VideoMask;2021.1.2;120.12488182712171;
9.0;f;019_m_f_h_a.jpg;happy;9.0;sad_115.1.wmv;sad;7.0;incongruent;120.0;160.0;128.09063432376465;h_s;;;;;0;0;0;0;;;;;;;59.6647594999522;None;60.9401290002279;61.25625179987401;62.39776149997488;62.41464320011437;64.38957099989057;None;7;0;0.9632498002611101;64.38957099989057;None;;;;;;;;4;;;;;58.6314400001429;None;65.9478815998882;None;None;None;[];65.9478815998882;None;"['7', '7']";"[1.484854199923575, 2.3730037002824247]";65.9478815998882;None;;;S11504;2022_Jun_08_1017;VideoMask;2021.1.2;120.12488182712171;
3.0;m;033_o_m_s_a.jpg;sad;7.0;sad_94.2ns.avi;sad;7.0;congruent;130.0;160.0;182.29120173647655;s_s;;;;;0;1;1;1;;;;;;;68.93940620031208;None;70.65588450012729;70.97260680003092;72.13930490007624;72.15596040012315;74.79752420028672;None;7;0;0.4671865999698639;74.79752420028672;None;;;;;;;;2;;;;;;;76.36409160029143;None;None;None;[];76.36409160029143;None;"['7', '7', '7']";"[0.42070440016686916, 0.724779300391674, 1.1407408001832664]";76.36409160029143;None;;;S11504;2022_Jun_08_1017;VideoMask;2021.1.2;120.12488182712171;
8.0;m;008_y_m_h_a.jpg;happy;9.0;happy_26.1ns.avi;happy;9.0;congruent;120.0;150.0;155.9437854594882;h_h;;;;;0;2;2;2;;;;;;;79.36413899995387;None;80.8472970998846;81.16418329998851;82.32229730021209;82.33891190029681;84.28896850021556;None;9;0;0.5597747000865638;84.28896850021556;None;;;;;;;;7;;;;;;;86.03049750020728;None;None;None;[];86.03049750020728;None;"['9', '9']";"[0.4580851001664996, 0.8022064003162086]";86.03049750020728;None;;;S11504;2022_Jun_08_1017;VideoMask;2021.1.2;120.12488182712171;
0.0;f;040_y_f_h_a.jpg;happy;9.0;sad_138.1.wmv;sad;7.0;incongruent;120.0;160.0;133.99071306426532;h_s;;;;;0;3;3;3;;;;;;;89.03046730021015;None;90.34684750018641;90.66367170028389;91.78878180030733;91.80541360005736;93.79699110006914;None;7;0;0.6356085003353655;93.79699110006914;None;;;;;;;;5;;;;;;;95.34694149997085;None;None;None;[];95.34694149997085;None;None;;95.34694149997085;None;;;S11504;2022_Jun_08_1017;VideoMask;2021.1.2;120.12488182712171;
8.0;f;028_y_f_s_a.jpg;sad;7.0;sad_64.2ns.avi;sad;7.0;congruent;130.0;160.0;229.88540597086478;s_s;;;;;0;4;4;4;;;;;;;98.3716887999326;None;100.51321480004117;100.8300259001553;102.00508349994197;102.02166659990326;112.9799077003263;None;7;0;0.6291141998954117;112.9799077003263;None;;;;;;;;3;;;;;;;114.61288750031963;None;None;None;[];114.61288750031963;None;"['7', '7']";"[0.371777500025928, 0.6117545003071427]";114.61288750031963;None;;;S11504;2022_Jun_08_1017;VideoMask;2021.1.2;120.12488182712171;
7.0;m;027_o_m_s_a.jpg;sad;7.0;sad_10.4ns.avi;sad;7.0;congruent;130.0;160.0;185.20129417468752;s_s;;;;;0;5;5;5;;;;;;;117.62140750000253;None;119.36276199994609;119.6794591001235;120.81260350020602;120.82937090005726;123.98787719989195;None;7;0;0.7088751001283526;123.98787719989195;None;;;;;;;;2;;;;;;;125.53763400018215;None;None;None;[];125.53763400018215;None;"['7', '7', '7', '7']";"[0.3351189000532031, 0.5989378998056054, 0.9669975000433624, 1.7914212001487613]";125.53763400018215;None;;;S11504;2022_Jun_08_1017;VideoMask;2021.1.2;120.12488182712171;
2.0;f;012_o_f_s_a.jpg;sad;7.0;sad_7.5ns.avi;sad;7.0;congruent;130.0;160.0;220.27842655424388;s_s;;;;;0;6;6;6;;;;;;;128.53758860006928;None;130.5540571999736;130.8707842999138;132.0381742999889;132.0626520998776;134.79593669995666;None;7;0;0.5408071000128984;134.79593669995666;None;;;;;;;;4;;;;;;;136.37070530001074;None;None;None;[];136.37070530001074;None;['7'];[0.686251999810338];136.37070530001074;None;;;S11504;2022_Jun_08_1017;VideoMask;2021.1.2;120.12488182712171;
2.0;f;012_o_f_h_a.jpg;happy;9.0;happy_27.1ns.avi;happy;9.0;congruent;120.0;150.0;146.44967055810616;h_h;;;;;0;7;7;7;;;;;;;139.3789273002185;None;140.7870575003326;141.1037155999802;142.24532129988074;142.26224520010874;144.7287453999743;None;9;0;0.760009499732405;144.7287453999743;None;;;;;;;;7;;;;;;;146.27872489998117;None;None;None;[];146.27872489998117;None;"['9', '9']";"[0.41017309995368123, 0.6579852001741529]";146.27872489998117;None;;;S11504;2022_Jun_08_1017;VideoMask;2021.1.2;120.12488182712171;
8.0;f;028_y_f_h_a.jpg;happy;9.0;sad_119.1.wmv;sad;7.0;incongruent;120.0;160.0;148.71526953572538;h_s;;;;;0;8;8;8;;;;;;;149.2787588001229;None;150.7284397003241;151.04516270011663;152.18665120005608;152.2034821002744;154.2451117001474;None;7;0;0.6036489000543952;154.2451117001474;None;;;;;;;;4;;;;;;;155.79508260032162;None;None;None;[];155.79508260032162;None;['7'];[0.6695681000128388];155.79508260032162;None;;;S11504;2022_Jun_08_1017;VideoMask;2021.1.2;120.12488182712171;
6.0;m;016_y_m_s_a.jpg;sad;7.0;happy_60.4ns.avi;happy;9.0;incongruent;130.0;150.0;126.02367393611817;s_h;;;;;0;9;9;9;;;;;;;158.79497299995273;None;160.06149470014498;160.37821729993448;161.55367740010843;161.57825000025332;167.30310910008848;None;8;0;0.505988699849695;167.30310910008848;None;;;;;;;;5;;;;;;;168.8529814002104;None;None;None;[];168.8529814002104;None;None;;168.8529814002104;None;;;S11504;2022_Jun_08_1017;VideoMask;2021.1.2;120.12488182712171;
9.0;f;019_m_f_s_a.jpg;sad;7.0;sad_8.4ns.avi;sad;7.0;congruent;130.0;160.0;171.6633093155257;s_s;;;;;0;10;10;10;;;;;;;171.88627750007436;None;173.54434410016984;173.8611322999932;174.99449780024588;175.01120130019262;183.12757420027629;None;7;0;0.5773833999410272;183.12757420027629;None;;;;;;;;3;;;;;;;184.67758140014485;None;None;None;[];184.67758140014485;None;"['7', '7']";"[0.7311742003075778, 0.9635650999844074]";184.67758140014485;None;;;S11504;2022_Jun_08_1017;VideoMask;2021.1.2;120.12488182712171;
4.0;m;004_o_m_h_a.jpg;happy;9.0;happy_1.1ns.avi;happy;9.0;congruent;120.0;150.0;203.50057144619865;h_h;;;;;0;11;11;11;;;;;;;187.6774341003038;None;189.63575690006837;189.9522605999373;191.09406760009006;191.11066960031167;205.56853400031105;None;9;0;0.7202774002216756;205.56853400031105;None;;;;;;;;6;;;;;;;207.11852020025253;None;None;None;[];207.11852020025253;None;['9'];[0.3620720002800226];207.11852020025253;None;;;S11504;2022_Jun_08_1017;VideoMask;2021.1.2;120.12488182712171;
7.0;m;027_o_m_h_a.jpg;happy;9.0;happy_20.1ns.avi;happy;9.0;congruent;120.0;150.0;152.91127178874285;h_h;;;;;0;12;12;12;;;;;;;210.1184745999053;None;211.61008170014247;211.92669560015202;213.08499910030514;213.10166160017252;216.0767637998797;None;9;0;0.8280278001911938;216.0767637998797;None;;;;;;;;5;;;;;;;217.62652030028403;None;None;None;[];217.62652030028403;None;None;;217.62652030028403;None;;;S11504;2022_Jun_08_1017;VideoMask;2021.1.2;120.12488182712171;
0.0;f;040_y_f_s_a.jpg;sad;7.0;sad_94.3ns.avi;sad;7.0;congruent;130.0;160.0;155.27414203894395;s_s;;;;;0;13;13;13;;;;;;;220.6512350998819;None;222.13458999991417;222.45136679988354;223.64277710020542;223.67663379991427;226.20959520014003;None;7;0;0.5032100998796523;226.20959520014003;None;;;;;;;;2;;;;;;;227.75953909987584;None;None;None;[];227.75953909987584;None;"['7', '7', '7']";"[0.3776530995965004, 0.6091777998954058, 0.81718929996714]";227.75953909987584;None;;;S11504;2022_Jun_08_1017;VideoMask;2021.1.2;120.12488182712171;
0.0;f;030_o_f_s_a.jpg;sad;7.0;sad_68.1ns.avi;sad;7.0;congruent;130.0;160.0;158.9411396037211;s_s;;;;;0;14;14;14;;;;;;;230.7679316001013;None;232.3259771000594;232.64249749993905;233.77604530006647;233.79268640000373;241.20085070002824;None;7;0;1.03183690039441;241.20085070002824;None;;;;;;;;3;;;;;;;242.7590847001411;None;None;None;[];242.7590847001411;None;"['7', '7']";"[0.457801700104028, 0.7378301001153886]";242.7590847001411;None;;;S11504;2022_Jun_08_1017;VideoMask;2021.1.2;120.12488182712171;
0.0;f;030_o_f_h_a.jpg;happy;9.0;sad_127.1.wmv;sad;7.0;incongruent;120.0;160.0;180.59976631384873;h_s;;;;;0;15;15;15;;;;;;;245.76746860006824;None;247.47546559991315;247.79218970006332;248.95061539998278;248.96712739998475;250.92562910029665;None;8;0;1.163155300077051;250.92562910029665;None;;;;;;;;5;;;;;;;252.46713520027697;None;None;None;[];252.46713520027697;None;None;;252.46713520027697;None;;;S11504;2022_Jun_08_1017;VideoMask;2021.1.2;120.12488182712171;
8.0;m;008_y_m_s_a.jpg;sad;7.0;happy_133.3.wmv;happy;9.0;incongruent;130.0;150.0;152.577966552593;s_h;;;;;0;16;16;16;;;;;;;255.5003899000585;None;256.9835303002037;257.3002297002822;258.42532670032233;258.44180200016126;260.43353420030326;None;9;0;0.6952555999159813;260.43353420030326;None;;;;;;;;7;;;;;;;262.000155699905;None;None;None;[];262.000155699905;None;"['9', '9']";"[0.36054790019989014, 0.6406450001522899]";262.000155699905;None;;;S11504;2022_Jun_08_1017;VideoMask;2021.1.2;120.12488182712171;
3.0;m;033_o_m_h_a.jpg;happy;9.0;sad_128.1.wmv;sad;7.0;incongruent;120.0;160.0;171.0492454518585;h_s;;;;;0;17;17;17;;;;;;;265.00006050011143;None;266.6416175002232;266.9582684999332;268.10814080014825;268.12477950006723;270.09167080000043;None;7;0;0.5091396002098918;270.09167080000043;None;;;;;;;;3;;;;;;;271.6415742998943;None;None;None;[];271.6415742998943;None;"['7', '7']";"[0.36725510004907846, 0.671142399776727]";271.6415742998943;None;;;S11504;2022_Jun_08_1017;VideoMask;2021.1.2;120.12488182712171;
1.0;f;021_o_f_h_a.jpg;happy;9.0;sad_116.1.wmv;sad;7.0;incongruent;120.0;160.0;184.06847610053055;h_s;;;;;0;18;18;18;;;;;;;274.64150170003995;None;276.3829109002836;276.69970649993047;277.84112789994106;277.8580034999177;279.8329226002097;None;7;0;0.6158179002813995;279.8329226002097;None;;;;;;;;4;;;;;;;281.3828977001831;None;None;None;[];281.3828977001831;None;['7'];[0.34579290030524135];281.3828977001831;None;;;S11504;2022_Jun_08_1017;VideoMask;2021.1.2;120.12488182712171;
4.0;m;004_o_m_s_a.jpg;sad;7.0;happy_28.1ns.avi;happy;9.0;incongruent;130.0;150.0;157.40741103039684;s_h;;;;;0;19;19;19;;;;;;;284.3827746002935;None;285.907617200166;286.2242375998758;287.3992025000043;287.41606110008433;291.7493096999824;None;9;0;0.46744999988004565;291.7493096999824;None;;;;;;;;6;;;;;;;293.29918870003894;None;None;None;[];293.29918870003894;None;"['9', '9']";"[0.4697339003905654, 1.301662300247699]";293.29918870003894;None;;;S11504;2022_Jun_08_1017;VideoMask;2021.1.2;120.12488182712171;
8.0;f;028_y_f_s_a.jpg;sad;7.0;happy_122.3.wmv;happy;9.0;incongruent;130.0;150.0;171.8670540936116;s_h;;;;;0;20;20;20;;;;;;;296.3075985000469;None;297.9490101002157;298.2655382002704;299.39939940022305;299.4239146001637;301.3989258999936;None;9;0;0.7939749998040497;301.3989258999936;None;;;;;;;;7;;;;;;;303.006998100318;None;None;None;[];303.006998100318;None;"['9', '9']";"[0.3138657999224961, 0.5219561997801065]";303.006998100318;None;;;S11504;2022_Jun_08_1017;VideoMask;2021.1.2;120.12488182712171;
8.0;m;008_y_m_s_a.jpg;sad;7.0;sad_6.5ns.avi;sad;7.0;congruent;130.0;160.0;170.39333839271438;s_s;;;;;0;21;21;21;;;;;;;306.00716920010746;None;307.6487777000293;307.9652702002786;309.12367470003664;309.140374599956;314.0985803999938;None;7;0;0.6141707999631763;314.0985803999938;None;;;;;;;;4;;;;;;;315.64012010023;None;None;None;[];315.64012010023;None;['7'];[0.840784499887377];315.64012010023;None;;;S11504;2022_Jun_08_1017;VideoMask;2021.1.2;120.12488182712171;
8.0;f;028_y_f_h_a.jpg;happy;9.0;happy_23.1ns.avi;happy;9.0;congruent;120.0;150.0;225.70986890587952;h_h;;;;;0;22;22;22;;;;;;;318.6484603001736;None;320.7231320999563;321.03994440007955;322.2150212000124;322.23161939997226;326.7481619003229;None;9;0;1.1006972999311984;326.7481619003229;None;;;;;;;;6;;;;;;;328.2981360000558;None;None;None;[];328.2981360000558;None;['9'];[0.6787897003814578];328.2981360000558;None;;;S11504;2022_Jun_08_1017;VideoMask;2021.1.2;120.12488182712171;
8.0;m;008_y_m_h_a.jpg;happy;9.0;sad_111.1.wmv;sad;7.0;incongruent;120.0;160.0;152.63076835312847;h_s;;;;;0;23;23;23;;;;;;;331.29809499997646;None;332.7728643999435;333.08960710000247;334.2233608001843;334.2479626000859;336.222878200002;None;7;0;0.7939206999726593;336.222878200002;None;;;;;;;;4;;;;;;;337.7727872999385;None;None;None;[];337.7727872999385;None;"['7', '7']";"[0.46802600007504225, 1.2360666999593377]";337.7727872999385;None;;;S11504;2022_Jun_08_1017;VideoMask;2021.1.2;120.12488182712171;
0.0;f;040_y_f_s_a.jpg;sad;7.0;sad_67.2ns.avi;sad;7.0;congruent;130.0;160.0;220.9892697323079;s_s;;;;;0;24;24;24;;;;;;;340.7810888001695;None;342.8474869001657;343.1641878001392;344.32263879990205;344.3392873001285;353.53067640028894;None;7;0;0.47814599983394146;353.53067640028894;None;;;;;;;;3;;;;;;;355.0973527999595;None;None;None;[];355.0973527999595;None;"['7', '7']";"[0.4716155999340117, 0.6874285000376403]";355.0973527999595;None;;;S11504;2022_Jun_08_1017;VideoMask;2021.1.2;120.12488182712171;
8.0;m;008_y_m_s_a.jpg;sad;7.0;happy_29.1ns.avi;happy;9.0;incongruent;130.0;150.0;120.0316142834122;s_h;;;;;0;25;25;25;;;;;;;358.0972370998934;None;359.29717139992863;359.61380770010874;360.78046650020406;360.79713320033625;363.438918299973;None;8;0;0.5222900998778641;363.438918299973;None;;;;;;;;5;;;;;;;365.05533630028367;None;None;None;[];365.05533630028367;None;None;;365.05533630028367;None;;;S11504;2022_Jun_08_1017;VideoMask;2021.1.2;120.12488182712171;
6.0;m;016_y_m_s_a.jpg;sad;7.0;sad_8.3ns.avi;sad;7.0;congruent;130.0;160.0;152.85371098242734;s_s;;;;;0;26;26;26;;;;;;;368.0801655999385;None;369.5633280002512;369.8801203998737;371.0718057001941;371.0884607001208;378.77171330014244;None;7;0;0.6371967000886798;378.77171330014244;None;;;;;;;;3;;;;;;;380.3215262000449;None;None;None;[];380.3215262000449;None;"['7', '7']";"[0.39127730019390583, 0.6473294999450445]";380.3215262000449;None;;;S11504;2022_Jun_08_1017;VideoMask;2021.1.2;120.12488182712171;
6.0;m;016_y_m_h_a.jpg;happy;9.0;sad_114.1.wmv;sad;7.0;incongruent;120.0;160.0;136.20550699298644;h_s;;;;;0;27;27;27;;;;;;;383.32981520006433;None;384.67960250005126;384.9963103001937;386.1296612001024;386.1462751002982;388.12961680023;None;7;0;0.8794362000189722;388.12961680023;None;;;;;;;;3;;;;;;;389.6796200000681;None;None;None;[];389.6796200000681;None;"['7', '7', '7', '7']";"[0.34514009999111295, 0.545500900130719, 0.9932538000866771, 1.8253577998839319]";389.6796200000681;None;;;S11504;2022_Jun_08_1017;VideoMask;2021.1.2;120.12488182712171;
7.0;m;027_o_m_s_a.jpg;sad;7.0;happy_117.3.wmv;happy;9.0;incongruent;130.0;150.0;215.61964028550614;s_h;;;;;0;28;28;28;;;;;;;392.6794100003317;None;394.6708345999941;394.98764810012653;396.12090600002557;396.13769660005346;398.1209807000123;None;9;0;0.639905400108546;398.1209807000123;None;;;;;;;;6;;;;;;;399.695946900174;None;None;None;[];399.695946900174;None;['9'];[0.43306259997189045];399.695946900174;None;;;S11504;2022_Jun_08_1017;VideoMask;2021.1.2;120.12488182712171;
6.0;m;016_y_m_h_a.jpg;happy;9.0;happy_9.2ns.avi;happy;9.0;congruent;120.0;150.0;130.52042428082717;h_h;;;;;0;29;29;29;;;;;;;402.6958506000228;None;403.9874824001454;404.30413690023124;405.50407769996673;405.5207592002116;411.3622443000786;None;9;0;0.49486490013077855;411.3622443000786;None;;;;;;;;7;;;;;;;412.9121518000029;None;None;None;[];412.9121518000029;None;"['9', '9']";"[0.4407552997581661, 0.6645629997365177]";412.9121518000029;None;;;S11504;2022_Jun_08_1017;VideoMask;2021.1.2;120.12488182712171;
0.0;f;040_y_f_s_a.jpg;sad;7.0;happy_127.3.wmv;happy;9.0;incongruent;130.0;150.0;131.7195455720239;s_h;;;;;0;30;30;30;;;;;;;415.91206380026415;None;417.2119257003069;417.5286511001177;418.65376850031316;418.67032260028645;420.73707470018417;None;9;0;0.927808600012213;420.73707470018417;None;;;;;;;;6;;;;;;;422.2868975000456;None;None;None;[];422.2868975000456;None;['9'];[0.3699055998586118];422.2868975000456;None;;;S11504;2022_Jun_08_1017;VideoMask;2021.1.2;120.12488182712171;
0.0;f;030_o_f_s_a.jpg;sad;7.0;happy_125.3.wmv;happy;9.0;incongruent;130.0;150.0;220.51454909128134;s_h;;;;;0;31;31;31;;;;;;;425.29518470028415;None;427.3449814002961;427.6617434001528;428.795435000211;428.8200197000988;430.7950050001964;None;9;0;0.41393470019102097;430.7950050001964;None;;;;;;;;8;;;;;;;432.3448856002651;None;None;None;[];432.3448856002651;None;"['9', '9', '9']";"[0.39218480000272393, 0.6158306002616882, 0.82386239990592]";432.3448856002651;None;;;S11504;2022_Jun_08_1017;VideoMask;2021.1.2;120.12488182712171;
0.0;f;030_o_f_s_a.jpg;sad;7.0;sad_64.3ns.avi;sad;7.0;congruent;130.0;160.0;165.78667874766072;s_s;;;;;0;32;32;32;;;;;;;435.3449264001101;None;436.9365158001892;437.25298950029537;438.40307189989835;438.41975250001997;443.3863305998966;None;7;0;0.6389051997102797;443.3863305998966;None;;;;;;;;3;;;;;;;444.93619689997286;None;None;None;[];444.93619689997286;None;"['7', '7', '7']";"[0.32864690013229847, 0.5447120000608265, 1.0967512000352144]";444.93619689997286;None;;;S11504;2022_Jun_08_1017;VideoMask;2021.1.2;120.12488182712171;
3.0;m;013_y_m_s_a.jpg;sad;7.0;sad_7.7ns.avi;sad;7.0;congruent;130.0;160.0;196.24182255763262;s_s;;;;;0;33;33;33;;;;;;;447.94451510021463;None;449.78593240026385;450.10268380027264;451.3441844000481;451.36086199991405;457.2358050001785;None;7;0;0.6530993999913335;457.2358050001785;None;;;;;;;;4;;;;;;;458.7857995000668;None;None;None;[];458.7857995000668;None;['7'];[0.3830025000497699];458.7857995000668;None;;;S11504;2022_Jun_08_1017;VideoMask;2021.1.2;120.12488182712171;
3.0;m;013_y_m_h_a.jpg;happy;9.0;happy_9.1ns.avi;happy;9.0;congruent;120.0;150.0;165.1890303600433;h_h;;;;;0;34;34;34;;;;;;;461.78576559992507;None;463.36890510004014;463.6855537001975;464.91059229988605;464.9273105999455;468.04380819993094;None;9;0;0.6530819004401565;468.04380819993094;None;;;;;;;;6;;;;;;;469.5937697002664;None;None;None;[];469.5937697002664;None;['9'];[0.43921800004318357];469.5937697002664;None;;;S11504;2022_Jun_08_1017;VideoMask;2021.1.2;120.12488182712171;
4.0;m;004_o_m_h_a.jpg;happy;9.0;sad_95.1ns.avi;sad;7.0;incongruent;120.0;160.0;152.68270002069931;h_s;;;;;0;35;35;35;;;;;;;472.59372440027073;None;474.0935762003064;474.4101440999657;475.6353052998893;475.65191520005465;484.3350248001516;None;7;0;0.6418488002382219;484.3350248001516;None;;;;;;;;2;;;;;;;485.88487539999187;None;None;None;[];485.88487539999187;None;"['7', '7', '7']";"[0.30014559999108315, 0.5240758997388184, 0.732016199734062]";485.88487539999187;None;;;S11504;2022_Jun_08_1017;VideoMask;2021.1.2;120.12488182712171;
3.0;m;013_y_m_h_a.jpg;happy;9.0;sad_113.2.wmv;sad;7.0;incongruent;120.0;160.0;217.4973891947951;h_s;;;;;0;36;36;36;;;;;;;488.8848733003251;None;490.91800960013643;491.23463409999385;492.3598206001334;492.37636899994686;494.3679231000133;None;8;0;1.024933099746704;494.3679231000133;None;;;;;;;;5;;;;;;;495.9512964999303;None;None;None;[];495.9512964999303;None;None;;495.9512964999303;None;;;S11504;2022_Jun_08_1017;VideoMask;2021.1.2;120.12488182712171;
4.0;m;004_o_m_h_a.jpg;happy;9.0;happy_25.1ns.avi;happy;9.0;congruent;120.0;150.0;216.63044503818386;h_h;;;;;0;37;37;37;;;;;;;498.9760161000304;None;500.9759965999983;501.2927228999324;502.4261453002691;502.4427197002806;506.1178589002229;None;9;0;0.4030709001235664;506.1178589002229;None;;;;;;;;7;;;;;;;507.67594340024516;None;None;None;[];507.67594340024516;None;"['9', '9']";"[0.5169365000911057, 0.7888478003442287]";507.67594340024516;None;;;S11504;2022_Jun_08_1017;VideoMask;2021.1.2;120.12488182712171;
4.0;m;004_o_m_s_a.jpg;sad;7.0;happy_131.2.wmv;happy;9.0;incongruent;130.0;150.0;181.38407540847405;s_h;;;;;0;38;38;38;;;;;;;510.684439800214;None;512.4090217002667;512.7257265001535;513.859037599992;513.8757858001627;515.8590232999995;None;9;0;0.46980899991467595;515.8590232999995;None;;;;;;;;8;;;;;;;517.4089732002467;None;None;None;[];517.4089732002467;None;"['9', '9', '9']";"[0.27213079994544387, 0.4882522998377681, 0.6878224997781217]";517.4089732002467;None;;;S11504;2022_Jun_08_1017;VideoMask;2021.1.2;120.12488182712171;
0.0;f;040_y_f_h_a.jpg;happy;9.0;happy_24.3ns.avi;happy;9.0;congruent;120.0;150.0;213.25460698950434;h_h;;;;;0;39;39;39;;;;;;;520.4089486999437;None;522.3753567999229;522.6920711998828;523.8755328999832;523.8920674002729;525.7503446000628;None;9;0;0.890586200170219;525.7503446000628;None;;;;;;;;6;;;;;;;527.3170139999129;None;None;None;[];527.3170139999129;None;['9'];[0.3000764003954828];527.3170139999129;None;;;S11504;2022_Jun_08_1017;VideoMask;2021.1.2;120.12488182712171;
2.0;f;012_o_f_s_a.jpg;sad;7.0;happy_139.1.wmv;happy;9.0;incongruent;130.0;150.0;162.31500468041804;s_h;;;;;0;40;40;40;;;;;;;530.3168834000826;None;531.8750479002483;532.1917950999923;533.3251753002405;533.3415899001993;535.3252143999562;None;9;0;0.6999038998037577;535.3252143999562;None;;;;;;;;7;;;;;;;536.8750335001387;None;None;None;[];536.8750335001387;None;"['9', '9', '9']";"[0.2940156999975443, 0.5179890999570489, 0.7418174999766052]";536.8750335001387;None;;;S11504;2022_Jun_08_1017;VideoMask;2021.1.2;120.12488182712171;
0.0;f;030_o_f_h_a.jpg;happy;9.0;happy_24.1ns.avi;happy;9.0;congruent;120.0;150.0;168.36256624020774;h_h;;;;;0;41;41;41;;;;;;;539.8833922999911;None;541.491424900014;541.8081608000211;543.0163433002308;543.0413362002;546.2664188002236;None;9;0;0.3825909001752734;546.2664188002236;None;;;;;;;;6;;;;;;;547.816357600037;None;None;None;[];547.816357600037;None;['9'];[0.3604594003409147];547.816357600037;None;;;S11504;2022_Jun_08_1017;VideoMask;2021.1.2;120.12488182712171;
2.0;f;012_o_f_h_a.jpg;happy;9.0;sad_113.1.wmv;sad;7.0;incongruent;120.0;160.0;177.44551734737394;h_s;;;;;0;42;42;42;;;;;;;550.824577299878;None;552.5077694002539;552.8244149000384;553.957667700015;553.9744556001388;555.957842099946;None;7;0;0.49107900029048324;555.957842099946;None;;;;;;;;3;;;;;;;557.4994145999663;None;None;None;[];557.4994145999663;None;"['7', '7']";"[0.35771120013669133, 0.5654367003589869]";557.4994145999663;None;;;S11504;2022_Jun_08_1017;VideoMask;2021.1.2;120.12488182712171;
3.0;m;033_o_m_s_a.jpg;sad;7.0;sad_64.5ns.avi;sad;7.0;congruent;130.0;160.0;130.55717223801247;s_s;;;;;0;43;43;43;;;;;;;560.5076672001742;None;561.8075276003219;562.1241671000607;563.249285900034;563.2658707001247;569.8408359000459;None;7;0;0.4001748999580741;569.8408359000459;None;;;;;;;;2;;;;;;;571.3906475999393;None;None;None;[];571.3906475999393;None;"['7', '7', '7', '7']";"[0.3622755999676883, 0.570242099929601, 0.8021932998672128, 1.2904004999436438]";571.3906475999393;None;;;S11504;2022_Jun_08_1017;VideoMask;2021.1.2;120.12488182712171;
7.0;m;027_o_m_h_a.jpg;happy;9.0;sad_117.1.wmv;sad;7.0;incongruent;120.0;160.0;181.28665202824095;h_s;;;;;0;44;44;44;;;;;;;574.3988771000877;None;576.1152125000954;576.4321524999104;577.5654853000306;577.5821036002599;579.5653880001046;None;7;0;0.8754824995994568;579.5653880001046;None;;;;;;;;3;;;;;;;581.1153476000763;None;None;None;[];581.1153476000763;None;"['7', '7']";"[0.36563869984820485, 0.5814657001756132]";581.1153476000763;None;;;S11504;2022_Jun_08_1017;VideoMask;2021.1.2;120.12488182712171;
3.0;m;033_o_m_s_a.jpg;sad;7.0;happy_126.3.wmv;happy;9.0;incongruent;130.0;150.0;198.85252030535366;s_h;;;;;0;45;45;45;;;;;;;584.1152453999966;None;585.9733444000594;586.290157600306;587.423515399918;587.4401571000926;589.4234310002066;None;9;0;0.5455355998128653;589.4234310002066;None;;;;;;;;7;;;;;;;590.973347700201;None;None;None;[];590.973347700201;None;"['9', '9', '9']";"[0.2195413000881672, 0.4515213002450764, 0.9477435001172125]";590.973347700201;None;;;S11504;2022_Jun_08_1017;VideoMask;2021.1.2;120.12488182712171;
3.0;m;033_o_m_h_a.jpg;happy;9.0;sad_136.1.wmv;sad;7.0;incongruent;120.0;160.0;176.97002883463455;h_s;;;;;0;46;46;46;;;;;;;593.9817588003352;None;595.6481194002554;595.9649161002599;597.0899653001688;597.1064059003256;599.098175200168;None;7;0;1.1027391999959946;599.098175200168;None;;;;;;;;4;;;;;;;600.6480952003039;None;None;None;[];600.6480952003039;None;['7'];[0.36876979982480407];600.6480952003039;None;;;S11504;2022_Jun_08_1017;VideoMask;2021.1.2;120.12488182712171;
9.0;f;019_m_f_h_a.jpg;happy;9.0;happy_10.1ns.avi;happy;9.0;congruent;120.0;150.0;157.2463435658512;h_h;;;;;0;47;47;47;;;;;;;603.6479996000417;None;605.172820799984;605.4895514003001;606.6396293002181;606.6562502998859;614.0727006001398;None;9;0;0.5121057997457683;614.0727006001398;None;;;;;;;;5;;;;;;;615.6226034001447;None;None;None;[];615.6226034001447;None;None;;615.6226034001447;None;;;S11504;2022_Jun_08_1017;VideoMask;2021.1.2;120.12488182712171;
2.0;f;012_o_f_h_a.jpg;happy;9.0;happy_2.2ns.avi;happy;9.0;congruent;120.0;150.0;206.34800317295262;h_h;;;;;0;48;48;48;;;;;;;618.6558174001984;None;620.6055868999101;620.9223723001778;622.0891356002539;622.1057607000694;634.2555764000863;None;9;0;0.7137417001649737;634.2555764000863;None;;;;;;;;7;;;;;;;635.8136340999044;None;None;None;[];635.8136340999044;None;"['9', '9', '9']";"[0.23555330000817776, 0.47528159990906715, 0.9553584000095725]";635.8136340999044;None;;;S11504;2022_Jun_08_1017;VideoMask;2021.1.2;120.12488182712171;
3.0;m;033_o_m_h_a.jpg;happy;9.0;happy_24.2ns.avi;happy;9.0;congruent;120.0;150.0;167.9423847659953;h_h;;;;;0;49;49;49;;;;;;;638.8136108000763;None;640.4217416001484;640.7384583000094;641.9385640001856;641.9550962001085;645.5966930999421;None;None;0;;645.5966930999421;None;;;;;;;;8;;;;;;;647.1464745001867;None;None;None;[];647.1464745001867;None;"['9', '9', '9', '9', '9']";"[0.4545701998285949, 0.7104233996942639, 0.9104895000346005, 1.3105182000435889, 1.7186258998699486]";647.1464745001867;None;;;S11504;2022_Jun_08_1017;VideoMask;2021.1.2;120.12488182712171;
1.0;f;021_o_f_s_a.jpg;sad;7.0;happy_61.2ns.avi;happy;9.0;incongruent;130.0;150.0;210.94664004826666;s_h;;;;;0;50;50;50;;;;;;;650.1549517000094;None;652.1045710002072;652.4214194999076;653.5547481002286;653.571442999877;658.0798174003139;None;9;0;0.30517019983381033;658.0798174003139;None;;;;;;;;7;;;;;;;659.6296057999134;None;None;None;[];659.6296057999134;None;"['9', '9']";"[0.3634878001175821, 0.5873015001416206]";659.6296057999134;None;;;S11504;2022_Jun_08_1017;VideoMask;2021.1.2;120.12488182712171;
4.0;m;004_o_m_s_a.jpg;sad;7.0;sad_2.4ns.avi;sad;7.0;congruent;130.0;160.0;153.02079367163634;s_s;;;;;0;51;51;51;;;;;;;662.6378195001744;None;664.1293830000795;664.4460555003025;665.6131516001187;665.6377971000038;673.5458474000916;None;8;0;0.5350378002040088;673.5458474000916;None;;;;;;;;5;;;;;;;675.0958223999478;None;None;None;[];675.0958223999478;None;None;;675.0958223999478;None;;;S11504;2022_Jun_08_1017;VideoMask;2021.1.2;120.12488182712171;
8.0;m;008_y_m_h_a.jpg;happy;9.0;happy_1.2ns.avi;happy;9.0;congruent;120.0;150.0;210.98946429383824;h_h;;;;;0;52;52;52;;;;;;;678.1206785002723;None;680.1205448000692;680.4372471999377;681.5622788001783;681.5789433000609;694.3702026000246;None;9;0;0.5268013998866081;694.3702026000246;None;;;;;;;;6;;;;;;;695.9201644998975;None;None;None;[];695.9201644998975;None;['9'];[0.43286410020664334];695.9201644998975;None;;;S11504;2022_Jun_08_1017;VideoMask;2021.1.2;120.12488182712171;
2.0;f;012_o_f_s_a.jpg;sad;7.0;happy_52.2ns.avi;happy;9.0;incongruent;130.0;150.0;172.57202848318138;s_h;;;;;0;53;53;53;;;;;;;698.9201360000297;None;700.544869299978;700.86160319997;702.0532295000739;702.069893900305;705.5698724999093;None;9;0;0.5911249001510441;705.5698724999093;None;;;;;;;;8;;;;;;;707.1197994002141;None;None;None;[];707.1197994002141;None;"['9', '9', '9']";"[0.31322829984128475, 0.5531822997145355, 0.7930633998475969]";707.1197994002141;None;;;S11504;2022_Jun_08_1017;VideoMask;2021.1.2;120.12488182712171;
9.0;f;019_m_f_s_a.jpg;sad;7.0;happy_61.1ns.avi;happy;9.0;incongruent;130.0;150.0;181.3003220572762;s_h;;;;;0;54;54;54;;;;;;;710.1280165002681;None;711.8696614000946;712.1862637000158;713.4277457999997;713.4445993001573;720.7111245002598;None;9;0;0.33790980000048876;720.7111245002598;None;;;;;;;;8;;;;;;;722.2610122999176;None;None;None;[];722.2610122999176;None;"['9', '9', '9']";"[0.3163292999379337, 0.5481565999798477, 0.7799852997995913]";722.2610122999176;None;;;S11504;2022_Jun_08_1017;VideoMask;2021.1.2;120.12488182712171;
0.0;f;030_o_f_h_a.jpg;happy;9.0;sad_133.1.wmv;sad;7.0;incongruent;120.0;160.0;198.86251500867985;h_s;;;;;0;55;55;55;;;;;;;725.2610013000667;None;727.1275602001697;727.4441301999614;728.5692940000445;728.5859086001292;730.5774187999777;None;7;0;0.7037289999425411;730.5774187999777;None;;;;;;;;3;;;;;;;732.1190535002388;None;None;None;[];732.1190535002388;None;"['7', '7', '7']";"[0.6106541999615729, 1.153868899680674, 1.5461587999016047]";732.1190535002388;None;;;S11504;2022_Jun_08_1017;VideoMask;2021.1.2;120.12488182712171;
0.0;f;040_y_f_h_a.jpg;happy;9.0;sad_128.2.wmv;sad;7.0;incongruent;120.0;160.0;206.10005857915363;h_s;;;;;0;56;56;56;;;;;;;735.1274287002161;None;737.0437423000112;737.3604581002146;738.4936955003068;738.510513599962;740.4939526999369;None;7;0;0.9310805001296103;740.4939526999369;None;;;;;;;;4;;;;;;;742.0436607003212;None;None;None;[];742.0436607003212;None;['7'];[0.3577343001961708];742.0436607003212;None;;;S11504;2022_Jun_08_1017;VideoMask;2021.1.2;120.12488182712171;
1.0;f;021_o_f_s_a.jpg;sad;7.0;sad_9.5ns.avi;sad;7.0;congruent;130.0;160.0;206.16642757875042;s_s;;;;;0;57;57;57;;;;;;;745.0436378000304;None;746.9684740002267;747.2851162999868;748.4268893999979;748.4434994999319;754.1434061001055;None;7;0;0.8096226002089679;754.1434061001055;None;;;;;;;;3;;;;;;;755.6932270000689;None;None;None;[];755.6932270000689;None;"['7', '7']";"[0.25183580024167895, 0.4757329002022743]";755.6932270000689;None;;;S11504;2022_Jun_08_1017;VideoMask;2021.1.2;120.12488182712171;
1.0;f;021_o_f_h_a.jpg;happy;9.0;happy_12.1ns.avi;happy;9.0;congruent;120.0;150.0;132.59080005900228;h_h;;;;;0;58;58;58;;;;;;;758.6933925002813;None;760.0182191999629;760.3348747002892;761.4595749001019;761.4764363002032;769.0845929998904;None;8;0;0.4683674001134932;769.0845929998904;None;;;;;;;;5;;;;;;;770.7261952999979;None;None;None;[];770.7261952999979;None;None;;770.7261952999979;None;;;S11504;2022_Jun_08_1017;VideoMask;2021.1.2;120.12488182712171;
3.0;m;013_y_m_s_a.jpg;sad;7.0;happy_56.2ns.avi;happy;9.0;incongruent;130.0;150.0;163.39234110935848;s_h;;;;;0;59;59;59;;;;;;;773.7426220001653;None;775.3092519002967;775.6259292000905;776.8342055003159;776.8509590001777;781.7841626000591;None;9;0;0.5688269999809563;781.7841626000591;None;;;;;;;;6;;;;;;;783.425815900322;None;None;None;[];783.425815900322;None;['9'];[0.2472244999371469];783.425815900322;None;;;S11504;2022_Jun_08_1017;VideoMask;2021.1.2;120.12488182712171;
;;;;;;;;;;;;;;;;;;;;;;;;;;;;;;;;;;;;;;;;;;;;;;;;;;;;;;;;;;;;;;;;;786.4257165999152;None;;;;;;
