primePerson;primeGender;prime;primeEmotion;corrAnsPrime;target;targetEmotion;corrAnsTar;Cond;ID_Primer;ID_Target;JitterTime;Condition;example.thisRepN;example.thisTrialN;example.thisN;example.thisIndex;study.thisRepN;study.thisTrialN;study.thisN;study.thisIndex;MR_trigger_time;MR_trigger_number;text_intro.started;text_intro.stopped;text_probe.started;text_probe.stopped;polygon_ISI.started;polygon_ISI.stopped;polygon.started;polygon.stopped;primerImage.started;primerImage.stopped;response.started;response.stopped;key_resp.keys;key_resp.corr;key_resp.rt;key_resp.started;key_resp.stopped;slider_Text.started;slider_Text.stopped;slider_ex.response;slider_ex.rt;slider_ex.history;slider_ex.started;slider_ex.stopped;Rating;slider_resp_response.keys;slider_resp_response.rt;slider_resp_response.started;slider_resp_response.stopped;text_start.started;text_start.stopped;text_slider.started;text_slider.stopped;slider_stud.response;slider_stud.rt;slider_stud.history;slider_stud.started;slider_stud.stopped;slider_resp_study.keys;slider_resp_study.rt;slider_resp_study.started;slider_resp_study.stopped;text_ende.started;text_ende.stopped;participant;date;expName;psychopyVersion;frameRate;
1111;m;1111_m_m_h_a.jpg;happy;9;example_30.4ns.avi;neutral;7;incongruent;120.0;170.0;189.5874364012288;;0;0;0;0;;;;;21.8466480000061;1;21.925130699994043;23.92531720001716;23.92531720001716;None;25.933414999977686;None;27.866613599995617;28.191797700012103;29.34169989998918;29.358442099997774;33.6583299000049;None;9;0;1.4848408999969251;33.6583299000049;None;35.21643620001851;None;None;None;[];35.21643620001851;None;6;"['9', '9', '7']";"[1.094576200004667, 2.0308870999724604, 2.9510426999768242]";35.21643620001851;None;;;;;;;;;;;;;;;;S11235;2022_Feb_23_1420;VideoMask;2021.1.2;119.92420796565398;
1113;f;1113_y_f_s_a.jpg;sad;7;example_30.3ns.avi;neutral;7;incongruent;130.0;170.0;229.02432995836998;;0;1;1;1;;;;;;;;;;;38.20797839999432;None;40.32459460000973;40.64125689998036;41.83304759999737;41.84974289999809;43.78304680000292;None;8;0;0.6723533000331372;43.78304680000292;None;45.38297889998648;None;None;None;[];45.38297889998648;None;4;['7'];[1.2323669999605045];45.38297889998648;None;;;;;;;;;;;;;;;;S11235;2022_Feb_23_1420;VideoMask;2021.1.2;119.92420796565398;
9.0;f;019_m_f_h_a.jpg;happy;9.0;sad_115.1.wmv;sad;7.0;incongruent;120.0;160.0;128.09063432376465;h_s;;;;;0;0;0;0;;;;;;;49.416196700010914;None;50.69110080000246;51.007720900001004;52.14087220001966;52.15770049998537;54.14100820000749;None;7;0;1.1061060000211;54.14100820000749;None;;;;;;;;3;;;;;48.39133439998841;None;55.69081709999591;None;None;None;[];55.69081709999591;None;"['7', '7']";"[0.45270520000485703, 0.6841568000381812]";55.69081709999591;None;;;S11235;2022_Feb_23_1420;VideoMask;2021.1.2;119.92420796565398;
3.0;m;033_o_m_s_a.jpg;sad;7.0;sad_94.2ns.avi;sad;7.0;congruent;130.0;160.0;182.29120173647655;s_s;;;;;0;1;1;1;;;;;;;58.690857300010975;None;60.42397569998866;60.740687099983916;61.95749210001668;61.974116199999116;64.56574729998829;None;8;0;0.7534866000059992;64.56574729998829;None;;;;;;;;5;;;;;;;66.11561650002841;None;None;None;[];66.11561650002841;None;None;;66.11561650002841;None;;;S11235;2022_Feb_23_1420;VideoMask;2021.1.2;119.92420796565398;
8.0;m;008_y_m_h_a.jpg;happy;9.0;happy_26.1ns.avi;happy;9.0;congruent;120.0;150.0;155.9437854594882;h_h;;;;;0;2;2;2;;;;;;;69.13211309997132;None;70.62379580002744;70.94046329997946;72.17398919997504;72.19061910000164;74.06548649998149;None;9;0;0.6776229999959469;74.06548649998149;None;;;;;;;;7;;;;;;;75.61533489997964;None;None;None;[];75.61533489997964;None;"['9', '9']";"[0.9760538999689743, 1.9757538000121713]";75.61533489997964;None;;;S11235;2022_Feb_23_1420;VideoMask;2021.1.2;119.92420796565398;
0.0;f;040_y_f_h_a.jpg;happy;9.0;sad_138.1.wmv;sad;7.0;incongruent;120.0;160.0;133.99071306426532;h_s;;;;;0;3;3;3;;;;;;;78.62367900001118;None;79.95672900002683;80.27338229998713;81.39856579998741;81.41514070000267;83.40679869998712;None;8;0;1.200431799981743;83.40679869998712;None;;;;;;;;4;;;;;;;84.95671290002065;None;None;None;[];84.95671290002065;None;['7'];[0.634972799976822];84.95671290002065;None;;;S11235;2022_Feb_23_1420;VideoMask;2021.1.2;119.92420796565398;
8.0;f;028_y_f_s_a.jpg;sad;7.0;sad_64.2ns.avi;sad;7.0;congruent;130.0;160.0;229.88540597086478;s_s;;;;;0;4;4;4;;;;;;;87.96495589998085;None;90.12326089997077;90.43982349999715;91.5731365000247;91.58983950002585;102.57297779998044;None;7;0;1.2183079000096768;102.57297779998044;None;;;;;;;;3;;;;;;;104.37278690002859;None;None;None;[];104.37278690002859;None;"['7', '7', '7']";"[0.642425199970603, 0.8905205000191927, 1.602492699981667]";104.37278690002859;None;;;S11235;2022_Feb_23_1420;VideoMask;2021.1.2;119.92420796565398;
7.0;m;027_o_m_s_a.jpg;sad;7.0;sad_10.4ns.avi;sad;7.0;congruent;130.0;160.0;185.20129417468752;s_s;;;;;0;5;5;5;;;;;;;107.38109779998194;None;109.12251549999928;109.4392071000184;110.65571560000535;110.67238320002798;113.73937590001151;None;7;0;0.9477714000386186;113.73937590001151;None;;;;;;;;2;;;;;;;115.59740159998182;None;None;None;[];115.59740159998182;None;"['7', '7', '7', '7']";"[0.5940579999587499, 0.8978385999798775, 1.1776024000137113, 2.2977074999944307]";115.59740159998182;None;;;S11235;2022_Feb_23_1420;VideoMask;2021.1.2;119.92420796565398;
2.0;f;012_o_f_s_a.jpg;sad;7.0;sad_7.5ns.avi;sad;7.0;congruent;130.0;160.0;220.27842655424388;s_s;;;;;0;6;6;6;;;;;;;118.59736549999798;None;120.62218280002708;120.9388922000071;122.1388490999816;122.15553879999788;124.86427640001057;None;7;0;0.7509701999952085;124.86427640001057;None;;;;;;;;3;;;;;;;126.4221023999853;None;None;None;[];126.4221023999853;None;"['7', '7']";"[0.43302949995268136, 0.712901699997019]";126.4221023999853;None;;;S11235;2022_Feb_23_1420;VideoMask;2021.1.2;119.92420796565398;
2.0;f;012_o_f_h_a.jpg;happy;9.0;happy_27.1ns.avi;happy;9.0;congruent;120.0;150.0;146.44967055810616;h_h;;;;;0;7;7;7;;;;;;;129.42210379999597;None;130.8384836000041;131.1553031000076;132.31327649997547;132.33031119999941;134.78007119998801;None;9;0;0.8749357999768108;134.78007119998801;None;;;;;;;;7;;;;;;;136.33016080001835;None;None;None;[];136.33016080001835;None;"['9', '9']";"[0.373078299977351, 0.684838299988769]";136.33016080001835;None;;;S11235;2022_Feb_23_1420;VideoMask;2021.1.2;119.92420796565398;
8.0;f;028_y_f_h_a.jpg;happy;9.0;sad_119.1.wmv;sad;7.0;incongruent;120.0;160.0;148.71526953572538;h_s;;;;;0;8;8;8;;;;;;;139.33849130000453;None;140.82145200000377;141.13819369999692;142.27980720001506;142.2966123999795;144.33815730002243;None;8;0;1.4050193000002764;144.33815730002243;None;;;;;;;;4;;;;;;;145.93815499998163;None;None;None;[];145.93815499998163;None;['7'];[0.43703309999546036];145.93815499998163;None;;;S11235;2022_Feb_23_1420;VideoMask;2021.1.2;119.92420796565398;
6.0;m;016_y_m_s_a.jpg;sad;7.0;happy_60.4ns.avi;happy;9.0;incongruent;130.0;150.0;126.02367393611817;s_h;;;;;0;9;9;9;;;;;;;148.93819219997386;None;150.19618819997413;150.5129498000024;151.71292750001885;151.73164760001237;157.44675369997276;None;9;0;0.7042738000163808;157.44675369997276;None;;;;;;;;7;;;;;;;159.1877463000128;None;None;None;[];159.1877463000128;None;"['9', '9']";"[0.45157959999050945, 0.723136999993585]";159.1877463000128;None;;;S11235;2022_Feb_23_1420;VideoMask;2021.1.2;119.92420796565398;
9.0;f;019_m_f_s_a.jpg;sad;7.0;sad_8.4ns.avi;sad;7.0;congruent;130.0;160.0;171.6633093155257;s_s;;;;;0;10;10;10;;;;;;;162.18780289997812;None;163.8457311000093;164.1625173999928;165.34582520002732;165.36256209999556;173.42908119998174;None;8;0;1.0820692999986932;173.42908119998174;None;;;;;;;;3;;;;;;;174.97888230002718;None;None;None;[];174.97888230002718;None;"['7', '7', '7']";"[0.6683571999892592, 1.1963678000029176, 1.5161429999861866]";174.97888230002718;None;;;S11235;2022_Feb_23_1420;VideoMask;2021.1.2;119.92420796565398;
4.0;m;004_o_m_h_a.jpg;happy;9.0;happy_1.1ns.avi;happy;9.0;congruent;120.0;150.0;203.50057144619865;h_h;;;;;0;11;11;11;;;;;;;177.978830499982;None;179.9368814000045;180.2536896999809;181.46185299998615;181.47848270001123;195.86986729997443;None;9;0;0.5296701000188477;195.86986729997443;None;;;;;;;;7;;;;;;;197.41151160001755;None;None;None;[];197.41151160001755;None;"['9', '9', '9', '9', '7']";"[0.3956649000174366, 0.6513781999819912, 1.0919054999831133, 2.1718619000166655, 2.819560999982059]";197.41151160001755;None;;;S11235;2022_Feb_23_1420;VideoMask;2021.1.2;119.92420796565398;
7.0;m;027_o_m_h_a.jpg;happy;9.0;happy_20.1ns.avi;happy;9.0;congruent;120.0;150.0;152.91127178874285;h_h;;;;;0;12;12;12;;;;;;;200.41148489998886;None;201.90297749999445;202.21951949998038;203.37803439999698;203.39471229998162;206.36958340002457;None;9;0;1.149550900037866;206.36958340002457;None;;;;;;;;9;;;;;;;207.91948390001198;None;None;None;[];207.91948390001198;None;"['9', '9', '9', '9']";"[0.4957736000069417, 0.7436352000222541, 1.00766930001555, 1.5516439999919385]";207.91948390001198;None;;;S11235;2022_Feb_23_1420;VideoMask;2021.1.2;119.92420796565398;
0.0;f;040_y_f_s_a.jpg;sad;7.0;sad_94.3ns.avi;sad;7.0;congruent;130.0;160.0;155.27414203894395;s_s;;;;;0;13;13;13;;;;;;;210.92797030002112;None;212.41936190001434;212.73601049999706;213.97739090002142;213.99436200002674;216.49440259998664;None;8;0;1.392659300006926;216.49440259998664;None;;;;;;;;5;;;;;;;218.04419970000163;None;None;None;[];218.04419970000163;None;"['7', '9']";"[0.5229290000279434, 1.0989814000204206]";218.04419970000163;None;;;S11235;2022_Feb_23_1420;VideoMask;2021.1.2;119.92420796565398;
0.0;f;030_o_f_s_a.jpg;sad;7.0;sad_68.1ns.avi;sad;7.0;congruent;130.0;160.0;158.9411396037211;s_s;;;;;0;14;14;14;;;;;;;221.04415029997472;None;222.58561840001494;222.9024324999773;224.0778347000014;224.10241170000518;231.4605422000168;None;8;0;0.7626472000265494;231.4605422000168;None;;;;;;;;5;;;;;;;233.00204589997884;None;None;None;[];233.00204589997884;None;None;;233.00204589997884;None;;;S11235;2022_Feb_23_1420;VideoMask;2021.1.2;119.92420796565398;
0.0;f;030_o_f_h_a.jpg;happy;9.0;sad_127.1.wmv;sad;7.0;incongruent;120.0;160.0;180.59976631384873;h_s;;;;;0;15;15;15;;;;;;;236.01857279997785;None;237.73514870001236;238.05179539998062;239.18516049999744;239.20197140000528;241.19366950000403;None;None;0;;241.19366950000403;None;;;;;;;;4;;;;;;;242.74350410001352;None;None;None;[];242.74350410001352;None;['7'];[2.0476813999703154];242.74350410001352;None;;;S11235;2022_Feb_23_1420;VideoMask;2021.1.2;119.92420796565398;
8.0;m;008_y_m_s_a.jpg;sad;7.0;happy_133.3.wmv;happy;9.0;incongruent;130.0;150.0;152.577966552593;s_h;;;;;0;16;16;16;;;;;;;245.74334200000158;None;247.22655179997673;247.54329080000753;248.6933710000012;248.7099493999849;250.6766432999866;None;9;0;1.4184808999998495;250.6766432999866;None;;;;;;;;7;;;;;;;252.2265320000006;None;None;None;[];252.2265320000006;None;"['9', '9']";"[0.8126687000039965, 1.49281870003324]";252.2265320000006;None;;;S11235;2022_Feb_23_1420;VideoMask;2021.1.2;119.92420796565398;
3.0;m;033_o_m_h_a.jpg;happy;9.0;sad_128.1.wmv;sad;7.0;incongruent;120.0;160.0;171.0492454518585;h_s;;;;;0;17;17;17;;;;;;;255.23478310002247;None;256.8763159000082;257.19301180000184;258.3345286999829;258.351344100025;260.3263896999997;None;8;0;1.0407108999788761;260.3263896999997;None;;;;;;;;4;;;;;;;261.9095287999953;None;None;None;[];261.9095287999953;None;['7'];[0.9055616999976337];261.9095287999953;None;;;S11235;2022_Feb_23_1420;VideoMask;2021.1.2;119.92420796565398;
1.0;f;021_o_f_h_a.jpg;happy;9.0;sad_116.1.wmv;sad;7.0;incongruent;120.0;160.0;184.06847610053055;h_s;;;;;0;18;18;18;;;;;;;264.9095355999889;None;266.65926300000865;266.97598129999824;268.15090279997094;268.16760360001354;270.1093468000181;None;7;0;0.9215417000232264;270.1093468000181;None;;;;;;;;3;;;;;;;271.6592773000011;None;None;None;[];271.6592773000011;None;"['7', '7']";"[0.12414170004194602, 0.5161419000360183]";271.6592773000011;None;;;S11235;2022_Feb_23_1420;VideoMask;2021.1.2;119.92420796565398;
4.0;m;004_o_m_s_a.jpg;sad;7.0;happy_28.1ns.avi;happy;9.0;incongruent;130.0;150.0;157.40741103039684;s_h;;;;;0;19;19;19;;;;;;;274.6674976000213;None;276.1840901999967;276.50061410001945;277.7089020999847;277.7257230000105;282.0255715000094;None;9;0;0.4695569000323303;282.0255715000094;None;;;;;;;;8;;;;;;;283.57553189998725;None;None;None;[];283.57553189998725;None;"['9', '9', '9']";"[0.39941789995646104, 0.6794033999904059, 1.2319009999628179]";283.57553189998725;None;;;S11235;2022_Feb_23_1420;VideoMask;2021.1.2;119.92420796565398;
8.0;f;028_y_f_s_a.jpg;sad;7.0;happy_122.3.wmv;happy;9.0;incongruent;130.0;150.0;171.8670540936116;s_h;;;;;0;20;20;20;;;;;;;286.58383289998164;None;288.24192609998863;288.5585900999722;289.69200759998057;289.70867790002376;291.69192299997667;None;9;0;0.5630572999943979;291.69192299997667;None;;;;;;;;7;;;;;;;293.50850420002826;None;None;None;[];293.50850420002826;None;"['9', '9', '9', '9', '9']";"[0.39447699999436736, 0.7144923000014387, 1.0105895000160672, 1.61867809999967, 2.8663033000193536]";293.50850420002826;None;;;S11235;2022_Feb_23_1420;VideoMask;2021.1.2;119.92420796565398;
8.0;m;008_y_m_s_a.jpg;sad;7.0;sad_6.5ns.avi;sad;7.0;congruent;130.0;160.0;170.39333839271438;s_s;;;;;0;21;21;21;;;;;;;296.5084471000009;None;298.1665885000257;298.48331669997424;299.64147400000365;299.65814690000843;304.6165494999732;None;7;0;1.0227784999879077;304.6165494999732;None;;;;;;;;4;;;;;;;306.16648690000875;None;None;None;[];306.16648690000875;None;"['7', '7']";"[0.5524743000278249, 1.2328453999944031]";306.16648690000875;None;;;S11235;2022_Feb_23_1420;VideoMask;2021.1.2;119.92420796565398;
8.0;f;028_y_f_h_a.jpg;happy;9.0;happy_23.1ns.avi;happy;9.0;congruent;120.0;150.0;225.70986890587952;h_h;;;;;0;22;22;22;;;;;;;309.1665191000211;None;311.24944390001474;311.56626230000984;312.73263159999624;312.74936289998004;317.2835969000007;None;9;0;0.4674160000286065;317.2835969000007;None;;;;;;;;7;;;;;;;318.9577306000283;None;None;None;[];318.9577306000283;None;"['9', '9', '9']";"[0.10559200000716373, 0.5774906000006013, 1.0973445000126958]";318.9577306000283;None;;;S11235;2022_Feb_23_1420;VideoMask;2021.1.2;119.92420796565398;
8.0;m;008_y_m_h_a.jpg;happy;9.0;sad_111.1.wmv;sad;7.0;incongruent;120.0;160.0;152.63076835312847;h_s;;;;;0;23;23;23;;;;;;;321.9577237999765;None;323.440857700014;323.7575475000194;324.89133970002877;324.91588250000495;326.89084010000806;None;7;0;0.9881829000078142;326.89084010000806;None;;;;;;;;4;;;;;;;328.432489000028;None;None;None;[];328.432489000028;None;['7'];[0.5826113999937661];328.432489000028;None;;;S11235;2022_Feb_23_1420;VideoMask;2021.1.2;119.92420796565398;
0.0;f;040_y_f_s_a.jpg;sad;7.0;sad_67.2ns.avi;sad;7.0;congruent;130.0;160.0;220.9892697323079;s_s;;;;;0;24;24;24;;;;;;;331.44080480001867;None;333.50719189998927;333.82385380001506;334.9572417999734;334.9739103000029;344.1819624999771;None;7;0;0.8891380000277422;344.1819624999771;None;;;;;;;;6;;;;;;;346.0235925000161;None;None;None;[];346.0235925000161;None;['9'];[0.5915587000199594];346.0235925000161;None;;;S11235;2022_Feb_23_1420;VideoMask;2021.1.2;119.92420796565398;
8.0;m;008_y_m_s_a.jpg;sad;7.0;happy_29.1ns.avi;happy;9.0;incongruent;130.0;150.0;120.0316142834122;s_h;;;;;0;25;25;25;;;;;;;349.0236168000265;None;350.22330529999454;350.54004450002685;351.6647855999763;351.68179780000355;354.3649886000203;None;9;0;1.170127900026273;354.3649886000203;None;;;;;;;;7;;;;;;;355.9149510000134;None;None;None;[];355.9149510000134;None;"['9', '9']";"[0.7723196999868378, 1.2043053000234067]";355.9149510000134;None;;;S11235;2022_Feb_23_1420;VideoMask;2021.1.2;119.92420796565398;
6.0;m;016_y_m_s_a.jpg;sad;7.0;sad_8.3ns.avi;sad;7.0;congruent;130.0;160.0;152.85371098242734;s_s;;;;;0;26;26;26;;;;;;;358.9148987000226;None;360.39794940000866;360.7148413999821;361.90621159999864;361.9234841999714;369.6061888000113;None;8;0;0.9209792000474408;369.6061888000113;None;;;;;;;;5;;;;;;;371.1561343999929;None;None;None;[];371.1561343999929;None;None;;371.1561343999929;None;;;S11235;2022_Feb_23_1420;VideoMask;2021.1.2;119.92420796565398;
6.0;m;016_y_m_h_a.jpg;happy;9.0;sad_114.1.wmv;sad;7.0;incongruent;120.0;160.0;136.20550699298644;h_s;;;;;0;27;27;27;;;;;;;374.18933740002103;None;375.5391972999787;375.8559253999847;376.98088930000085;376.9975563000189;378.989250899991;None;8;0;0.6738019000040367;378.989250899991;None;;;;;;;;5;;;;;;;380.5391934000072;None;None;None;[];380.5391934000072;None;None;;380.5391934000072;None;;;S11235;2022_Feb_23_1420;VideoMask;2021.1.2;119.92420796565398;
7.0;m;027_o_m_s_a.jpg;sad;7.0;happy_117.3.wmv;happy;9.0;incongruent;130.0;150.0;215.61964028550614;s_h;;;;;0;28;28;28;;;;;;;383.5724513999885;None;385.57227609999245;385.88901119999355;387.01403580000624;387.0306322000106;389.02225809998345;None;None;0;;389.02225809998345;None;;;;;;;;4;;;;;;;390.5720286000287;None;None;None;[];390.5720286000287;None;"['9', '7', '7']";"[0.9951746000442654, 1.9231414000387304, 2.1388510999968275]";390.5720286000287;None;;;S11235;2022_Feb_23_1420;VideoMask;2021.1.2;119.92420796565398;
6.0;m;016_y_m_h_a.jpg;happy;9.0;happy_9.2ns.avi;happy;9.0;congruent;120.0;150.0;130.52042428082717;h_h;;;;;0;29;29;29;;;;;;;393.5805469999905;None;394.88023810001323;395.19698760000756;396.33035349997226;396.3473155000247;402.25529760000063;None;9;0;1.0955958999693394;402.25529760000063;None;;;;;;;;7;;;;;;;403.84670059999917;None;None;None;[];403.84670059999917;None;"['9', '9', '9']";"[0.3524755000253208, 0.6642336000222713, 1.2325081000453793]";403.84670059999917;None;;;S11235;2022_Feb_23_1420;VideoMask;2021.1.2;119.92420796565398;
0.0;f;040_y_f_s_a.jpg;sad;7.0;happy_127.3.wmv;happy;9.0;incongruent;130.0;150.0;131.7195455720239;s_h;;;;;0;30;30;30;;;;;;;406.8551246999996;None;408.17158379999455;408.4882386000245;409.6133562999894;409.6299627000117;411.68820199999027;None;9;0;0.7749583999975584;411.68820199999027;None;;;;;;;;8;;;;;;;413.2381125999964;None;None;None;[];413.2381125999964;None;"['9', '9', '9']";"[0.4331129000056535, 0.7367790000280365, 1.328981600003317]";413.2381125999964;None;;;S11235;2022_Feb_23_1420;VideoMask;2021.1.2;119.92420796565398;
0.0;f;030_o_f_s_a.jpg;sad;7.0;happy_125.3.wmv;happy;9.0;incongruent;130.0;150.0;220.51454909128134;s_h;;;;;0;31;31;31;;;;;;;416.2470924999798;None;418.3045359000098;418.6212332000141;419.7544271000079;419.77107419999084;421.7628665000084;None;None;0;;421.7628665000084;None;;;;;;;;5;;;;;;;423.7628921000287;None;None;None;[];423.7628921000287;None;None;;423.7628921000287;None;;;S11235;2022_Feb_23_1420;VideoMask;2021.1.2;119.92420796565398;
0.0;f;030_o_f_s_a.jpg;sad;7.0;sad_64.3ns.avi;sad;7.0;congruent;130.0;160.0;165.78667874766072;s_s;;;;;0;32;32;32;;;;;;;426.78762150002876;None;428.37922000000253;428.6959570000181;429.85436310002115;429.8709362000227;434.8291251999908;None;8;0;1.1697730000014417;434.8291251999908;None;;;;;;;;3;;;;;;;436.3790401999722;None;None;None;[];436.3790401999722;None;"['7', '7', '9', '7']";"[0.4360148999840021, 0.979960199969355, 1.7162554999813437, 2.3320028000161983]";436.3790401999722;None;;;S11235;2022_Feb_23_1420;VideoMask;2021.1.2;119.92420796565398;
3.0;m;013_y_m_s_a.jpg;sad;7.0;sad_7.7ns.avi;sad;7.0;congruent;130.0;160.0;196.24182255763262;s_s;;;;;0;33;33;33;;;;;;;439.3789970999933;None;441.22884120000526;441.5455420999788;442.74536739999894;442.7622626000084;448.6786797000095;None;None;0;;448.6786797000095;None;;;;;;;;5;;;;;;;450.22847360000014;None;None;None;[];450.22847360000014;None;"['9', '7']";"[2.3385446000029333, 2.778658800001722]";450.22847360000014;None;;;S11235;2022_Feb_23_1420;VideoMask;2021.1.2;119.92420796565398;
3.0;m;013_y_m_h_a.jpg;happy;9.0;happy_9.1ns.avi;happy;9.0;congruent;120.0;150.0;165.1890303600433;h_h;;;;;0;34;34;34;;;;;;;453.2285848999745;None;454.82028619997436;455.1367428000085;456.30346329999156;456.3200866000261;459.5033701999928;None;9;0;0.5757165999966674;459.5033701999928;None;;;;;;;;6;;;;;;;461.10321199998725;None;None;None;[];461.10321199998725;None;['9'];[0.45590489997994155];461.10321199998725;None;;;S11235;2022_Feb_23_1420;VideoMask;2021.1.2;119.92420796565398;
4.0;m;004_o_m_h_a.jpg;happy;9.0;sad_95.1ns.avi;sad;7.0;incongruent;120.0;160.0;152.68270002069931;h_s;;;;;0;35;35;35;;;;;;;464.10323040001094;None;465.6031716999714;465.9198357000132;467.0530749000027;467.06980419997126;475.8445551000186;None;7;0;0.9227064999868162;475.8445551000186;None;;;;;;;;3;;;;;;;477.3944905999815;None;None;None;[];477.3944905999815;None;"['7', '7']";"[0.6207645999966189, 1.5087441999930888]";477.3944905999815;None;;;S11235;2022_Feb_23_1420;VideoMask;2021.1.2;119.92420796565398;
3.0;m;013_y_m_h_a.jpg;happy;9.0;sad_113.2.wmv;sad;7.0;incongruent;120.0;160.0;217.4973891947951;h_s;;;;;0;36;36;36;;;;;;;480.39449699997203;None;482.41915119998157;482.736010099994;483.8609950999962;483.87753659999;485.8691914000083;None;8;0;0.8340057999594137;485.8691914000083;None;;;;;;;;5;;;;;;;487.47752249997575;None;None;None;[];487.47752249997575;None;None;;487.47752249997575;None;;;S11235;2022_Feb_23_1420;VideoMask;2021.1.2;119.92420796565398;
4.0;m;004_o_m_h_a.jpg;happy;9.0;happy_25.1ns.avi;happy;9.0;congruent;120.0;150.0;216.63044503818386;h_h;;;;;0;37;37;37;;;;;;;490.502476499998;None;492.51062780001666;492.82730910001555;494.0189932999783;494.0356784000178;497.652201000019;None;9;0;0.9148189999978058;497.652201000019;None;;;;;;;;6;;;;;;;499.20223479997367;None;None;None;[];499.20223479997367;None;['9'];[0.5328324000001885];499.20223479997367;None;;;S11235;2022_Feb_23_1420;VideoMask;2021.1.2;119.92420796565398;
4.0;m;004_o_m_s_a.jpg;sad;7.0;happy_131.2.wmv;happy;9.0;incongruent;130.0;150.0;181.38407540847405;s_h;;;;;0;38;38;38;;;;;;;502.20207599998685;None;503.9268690000172;504.2434827000252;505.37675789999776;505.3936562999734;507.3768860999844;None;9;0;0.8861815999844112;507.3768860999844;None;;;;;;;;6;;;;;;;508.92685089999577;None;None;None;[];508.92685089999577;None;"['9', '9']";"[0.7442855999688618, 1.448231799993664]";508.92685089999577;None;;;S11235;2022_Feb_23_1420;VideoMask;2021.1.2;119.92420796565398;
0.0;f;040_y_f_h_a.jpg;happy;9.0;happy_24.3ns.avi;happy;9.0;congruent;120.0;150.0;213.25460698950434;h_h;;;;;0;39;39;39;;;;;;;511.9350933000096;None;513.9016167999944;514.2182817999856;515.3514901999733;515.3686447999789;517.2766413000063;None;9;0;1.002289300027769;517.2766413000063;None;;;;;;;;6;;;;;;;518.8265440000105;None;None;None;[];518.8265440000105;None;['9'];[0.48455059999832883];518.8265440000105;None;;;S11235;2022_Feb_23_1420;VideoMask;2021.1.2;119.92420796565398;
2.0;f;012_o_f_s_a.jpg;sad;7.0;happy_139.1.wmv;happy;9.0;incongruent;130.0;150.0;162.31500468041804;s_h;;;;;0;40;40;40;;;;;;;521.8347789000254;None;523.3928963000071;523.709650499979;524.842831099988;524.8595171999768;526.842960799986;None;9;0;1.1079426999785937;526.842960799986;None;;;;;;;;6;;;;;;;528.3929189000046;None;None;None;[];528.3929189000046;None;['9'];[0.3745346000068821];528.3929189000046;None;;;S11235;2022_Feb_23_1420;VideoMask;2021.1.2;119.92420796565398;
0.0;f;030_o_f_h_a.jpg;happy;9.0;happy_24.1ns.avi;happy;9.0;congruent;120.0;150.0;168.36256624020774;h_h;;;;;0;41;41;41;;;;;;;531.3930074999807;None;533.0093943999964;533.326013199985;534.5927221999737;534.609283800004;537.784270300006;None;9;0;0.6947408999549225;537.784270300006;None;;;;;;;;6;;;;;;;539.334236500028;None;None;None;[];539.334236500028;None;['9'];[0.3288946999819018];539.334236500028;None;;;S11235;2022_Feb_23_1420;VideoMask;2021.1.2;119.92420796565398;
2.0;f;012_o_f_h_a.jpg;happy;9.0;sad_113.1.wmv;sad;7.0;incongruent;120.0;160.0;177.44551734737394;h_s;;;;;0;42;42;42;;;;;;;542.3341554999934;None;544.0174090000219;544.3340801000013;545.4671991000068;545.484121299989;547.4672997000162;None;7;0;0.4036255000391975;547.4672997000162;None;;;;;;;;3;;;;;;;549.0171161000035;None;None;None;[];549.0171161000035;None;"['7', '7']";"[0.9579472999903373, 2.373877999954857]";549.0171161000035;None;;;S11235;2022_Feb_23_1420;VideoMask;2021.1.2;119.92420796565398;
3.0;m;033_o_m_s_a.jpg;sad;7.0;sad_64.5ns.avi;sad;7.0;congruent;130.0;160.0;130.55717223801247;s_s;;;;;0;43;43;43;;;;;;;552.0172985999961;None;553.3170046000159;553.6337238000124;554.7754886000184;554.792076200014;561.3504049999756;None;7;0;0.8805494999978691;561.3504049999756;None;;;;;;;;3;;;;;;;562.9000973000075;None;None;None;[];562.9000973000075;None;"['7', '7', '7', '7']";"[0.40295389998937026, 0.8190084000234492, 1.2187137000146322, 1.8510933000361547]";562.9000973000075;None;;;S11235;2022_Feb_23_1420;VideoMask;2021.1.2;119.92420796565398;
7.0;m;027_o_m_h_a.jpg;happy;9.0;sad_117.1.wmv;sad;7.0;incongruent;120.0;160.0;181.28665202824095;h_s;;;;;0;44;44;44;;;;;;;565.8998761000112;None;567.6248377999873;567.941602499981;569.0830395999947;569.0999680000241;571.083275299985;None;8;0;1.2676664000027813;571.083275299985;None;;;;;;;;5;;;;;;;572.6415606000228;None;None;None;[];572.6415606000228;None;"['7', '9', '7']";"[1.3652887999778613, 2.157715499983169, 2.5011937000090256]";572.6415606000228;None;;;S11235;2022_Feb_23_1420;VideoMask;2021.1.2;119.92420796565398;
3.0;m;033_o_m_s_a.jpg;sad;7.0;happy_126.3.wmv;happy;9.0;incongruent;130.0;150.0;198.85252030535366;s_h;;;;;0;45;45;45;;;;;;;575.641437400016;None;577.507904099999;577.824635899975;578.9661804999923;578.9827866000123;580.9580688999849;None;9;0;0.8246339000179432;580.9580688999849;None;;;;;;;;7;;;;;;;582.5079666000092;None;None;None;[];582.5079666000092;None;"['9', '9']";"[0.5071478000027128, 0.995223400008399]";582.5079666000092;None;;;S11235;2022_Feb_23_1420;VideoMask;2021.1.2;119.92420796565398;
3.0;m;033_o_m_h_a.jpg;happy;9.0;sad_136.1.wmv;sad;7.0;incongruent;120.0;160.0;176.97002883463455;h_s;;;;;0;46;46;46;;;;;;;585.5162251999718;None;587.190909500001;587.507714700012;588.6327586999978;588.6493609999889;590.6409137999872;None;7;0;1.0060998999979347;590.6409137999872;None;;;;;;;;3;;;;;;;592.1908795000054;None;None;None;[];592.1908795000054;None;"['7', '7']";"[0.42406440002378076, 1.056211200018879]";592.1908795000054;None;;;S11235;2022_Feb_23_1420;VideoMask;2021.1.2;119.92420796565398;
9.0;f;019_m_f_h_a.jpg;happy;9.0;happy_10.1ns.avi;happy;9.0;congruent;120.0;150.0;157.2463435658512;h_h;;;;;0;47;47;47;;;;;;;595.1992717999965;None;596.7240971999709;597.0406521999976;598.199154699978;598.2157519999892;605.6321797000128;None;9;0;0.5508457000250928;605.6321797000128;None;;;;;;;;7;;;;;;;607.1821340000024;None;None;None;[];607.1821340000024;None;"['9', '9', '9']";"[0.36102250003023073, 0.800769500026945, 1.4726411000010557]";607.1821340000024;None;;;S11235;2022_Feb_23_1420;VideoMask;2021.1.2;119.92420796565398;
2.0;f;012_o_f_h_a.jpg;happy;9.0;happy_2.2ns.avi;happy;9.0;congruent;120.0;150.0;206.34800317295262;h_h;;;;;0;48;48;48;;;;;;;610.1820670000161;None;612.156760599988;612.4734388000215;613.5986057000118;613.6152587999823;625.8148785000085;None;9;0;0.6562487999908626;625.8148785000085;None;;;;;;;;7;;;;;;;627.3648178000003;None;None;None;[];627.3648178000003;None;"['9', '9']";"[0.49790140002733096, 0.9222513000131585]";627.3648178000003;None;;;S11235;2022_Feb_23_1420;VideoMask;2021.1.2;119.92420796565398;
3.0;m;033_o_m_h_a.jpg;happy;9.0;happy_24.2ns.avi;happy;9.0;congruent;120.0;150.0;167.9423847659953;h_h;;;;;0;49;49;49;;;;;;;630.3647956000059;None;631.9645743999863;632.2812883000006;633.4313437999808;633.4479624999803;637.1395515999757;None;9;0;1.0194207999738865;637.1395515999757;None;;;;;;;;6;;;;;;;638.6895034000045;None;None;None;[];638.6895034000045;None;['9'];[0.3894605000386946];638.6895034000045;None;;;S11235;2022_Feb_23_1420;VideoMask;2021.1.2;119.92420796565398;
1.0;f;021_o_f_s_a.jpg;sad;7.0;happy_61.2ns.avi;happy;9.0;incongruent;130.0;150.0;210.94664004826666;s_h;;;;;0;50;50;50;;;;;;;641.6894847999793;None;643.6475190999918;643.9641291999724;645.130741800007;645.1473665999947;649.6225661999779;None;9;0;0.5843783000018448;649.6225661999779;None;;;;;;;;7;;;;;;;651.1724183000042;None;None;None;[];651.1724183000042;None;"['9', '9']";"[0.33079239999642596, 0.6505945000099018]";651.1724183000042;None;;;S11235;2022_Feb_23_1420;VideoMask;2021.1.2;119.92420796565398;
4.0;m;004_o_m_s_a.jpg;sad;7.0;sad_2.4ns.avi;sad;7.0;congruent;130.0;160.0;153.02079367163634;s_s;;;;;0;51;51;51;;;;;;;654.1808173999889;None;655.6721305000247;655.9888725000201;657.1471015000134;657.163814599975;665.080346999981;None;8;0;0.8784239999949932;665.080346999981;None;;;;;;;;3;;;;;;;666.6302050999948;None;None;None;[];666.6302050999948;None;"['7', '7']";"[0.3688057999825105, 1.336662099987734]";666.6302050999948;None;;;S11235;2022_Feb_23_1420;VideoMask;2021.1.2;119.92420796565398;
8.0;m;008_y_m_h_a.jpg;happy;9.0;happy_1.2ns.avi;happy;9.0;congruent;120.0;150.0;210.98946429383824;h_h;;;;;0;52;52;52;;;;;;;669.6302389000193;None;671.6300732999807;671.9467027999926;673.096757900028;673.1134053000133;685.8713074999978;None;9;0;0.7516489999834448;685.8713074999978;None;;;;;;;;8;;;;;;;687.4212985999766;None;None;None;[];687.4212985999766;None;"['9', '9', '9']";"[0.48947400000179186, 0.8017126999911852, 1.1058021999779157]";687.4212985999766;None;;;S11235;2022_Feb_23_1420;VideoMask;2021.1.2;119.92420796565398;
2.0;f;012_o_f_s_a.jpg;sad;7.0;happy_52.2ns.avi;happy;9.0;incongruent;130.0;150.0;172.57202848318138;s_h;;;;;0;53;53;53;;;;;;;690.4296264000004;None;692.0626490000286;692.3794054000173;693.5627752;693.5793680999777;697.0628341999836;None;9;0;1.1681112999795005;697.0628341999836;None;;;;;;;;6;;;;;;;698.6875986999949;None;None;None;[];698.6875986999949;None;['9'];[0.8556088999612257];698.6875986999949;None;;;S11235;2022_Feb_23_1420;VideoMask;2021.1.2;119.92420796565398;
9.0;f;019_m_f_s_a.jpg;sad;7.0;happy_61.1ns.avi;happy;9.0;incongruent;130.0;150.0;181.3003220572762;s_h;;;;;0;54;54;54;;;;;;;701.6958333000075;None;703.428977500007;703.7457121000043;704.9791575000272;704.9957373000216;712.2707707000081;None;8;0;0.8963160999701358;712.2707707000081;None;;;;;;;;6;;;;;;;713.8287892999942;None;None;None;[];713.8287892999942;None;['9'];[1.7462417999631725];713.8287892999942;None;;;S11235;2022_Feb_23_1420;VideoMask;2021.1.2;119.92420796565398;
0.0;f;030_o_f_h_a.jpg;happy;9.0;sad_133.1.wmv;sad;7.0;incongruent;120.0;160.0;198.86251500867985;h_s;;;;;0;55;55;55;;;;;;;716.828720199992;None;718.6951633000281;719.0118433000171;720.1369093999965;720.1535835000104;722.1452067000209;None;7;0;0.5496270000003278;722.1452067000209;None;;;;;;;;3;;;;;;;723.6951630000258;None;None;None;[];723.6951630000258;None;"['7', '7']";"[0.5521675000200048, 0.8800472000148147]";723.6951630000258;None;;;S11235;2022_Feb_23_1420;VideoMask;2021.1.2;119.92420796565398;
0.0;f;040_y_f_h_a.jpg;happy;9.0;sad_128.2.wmv;sad;7.0;incongruent;120.0;160.0;206.10005857915363;h_s;;;;;0;56;56;56;;;;;;;726.6951796999783;None;728.6198302999837;728.9365672999993;730.0782827999792;730.0949632999836;732.0782511000289;None;None;0;;732.0782511000289;None;;;;;;;;4;;;;;;;733.6280207000091;None;None;None;[];733.6280207000091;None;['7'];[1.1629315000027418];733.6280207000091;None;;;S11235;2022_Feb_23_1420;VideoMask;2021.1.2;119.92420796565398;
1.0;f;021_o_f_s_a.jpg;sad;7.0;sad_9.5ns.avi;sad;7.0;congruent;130.0;160.0;206.16642757875042;s_s;;;;;0;57;57;57;;;;;;;736.6281400999869;None;738.5695650000125;738.8954312999849;740.0529744999949;740.0694513000199;745.7534469999955;None;7;0;0.6934907999821007;745.7534469999955;None;;;;;;;;3;;;;;;;747.3360995000112;None;None;None;[];747.3360995000112;None;"['7', '7', '7', '7']";"[0.5266581000178121, 0.9027602000278421, 1.3909855000092648, 2.1910445000394247]";747.3360995000112;None;;;S11235;2022_Feb_23_1420;VideoMask;2021.1.2;119.92420796565398;
1.0;f;021_o_f_h_a.jpg;happy;9.0;happy_12.1ns.avi;happy;9.0;congruent;120.0;150.0;132.59080005900228;h_h;;;;;0;58;58;58;;;;;;;750.3444401000161;None;751.6860075999866;752.0024959999719;753.1615782000008;753.1859360000235;760.7523067999864;None;8;0;0.7908048999961466;760.7523067999864;None;;;;;;;;4;;;;;;;762.3023069999763;None;None;None;[];762.3023069999763;None;['7'];[0.5367326000123285];762.3023069999763;None;;;S11235;2022_Feb_23_1420;VideoMask;2021.1.2;119.92420796565398;
3.0;m;013_y_m_s_a.jpg;sad;7.0;happy_56.2ns.avi;happy;9.0;incongruent;130.0;150.0;163.39234110935848;s_h;;;;;0;59;59;59;;;;;;;765.3106180999894;None;766.868718600017;767.1854637999786;768.3852819000022;768.4019269000273;773.3519508999889;None;9;0;0.8709916999796405;773.3519508999889;None;;;;;;;;8;;;;;;;774.9101844999823;None;None;None;[];774.9101844999823;None;"['9', '9', '9', '9']";"[0.4488675000029616, 0.7768978999811225, 1.2007782000000589, 1.832756599993445]";774.9101844999823;None;;;S11235;2022_Feb_23_1420;VideoMask;2021.1.2;119.92420796565398;
;;;;;;;;;;;;;;;;;;;;;;;;;;;;;;;;;;;;;;;;;;;;;;;;;;;;;;;;;;;;;;;;;777.9100911000278;None;;;;;;
