primePerson;primeGender;prime;primeEmotion;corrAnsPrime;target;targetEmotion;corrAnsTar;Cond;ID_Primer;ID_Target;JitterTime;Condition;example.thisRepN;example.thisTrialN;example.thisN;example.thisIndex;study.thisRepN;study.thisTrialN;study.thisN;study.thisIndex;MR_trigger_time;MR_trigger_number;text_intro.started;text_intro.stopped;text_probe.started;text_probe.stopped;polygon_ISI.started;polygon_ISI.stopped;polygon.started;polygon.stopped;primerImage.started;primerImage.stopped;response.started;response.stopped;key_resp.keys;key_resp.corr;key_resp.rt;key_resp.started;key_resp.stopped;slider_Text.started;slider_Text.stopped;slider_ex.response;slider_ex.rt;slider_ex.history;slider_ex.started;slider_ex.stopped;Rating;slider_resp_response.keys;slider_resp_response.rt;slider_resp_response.started;slider_resp_response.stopped;text_start.started;text_start.stopped;text_slider.started;text_slider.stopped;slider_stud.response;slider_stud.rt;slider_stud.history;slider_stud.started;slider_stud.stopped;slider_resp_study.keys;slider_resp_study.rt;slider_resp_study.started;slider_resp_study.stopped;text_ende.started;text_ende.stopped;participant;date;expName;psychopyVersion;frameRate;
1111;m;1111_m_m_h_a.jpg;happy;9;example_30.4ns.avi;neutral;7;incongruent;120.0;170.0;189.5874364012288;;0;0;0;0;;;;;30.010188999818638;1;30.0876372999046;32.08788839983754;32.08788839983754;None;34.112835499923676;None;36.33744479995221;36.654285199940205;37.78773669991642;37.80498759984039;42.1292624999769;None;9;0;0.8175641000270844;42.1292624999769;None;43.67894779983908;None;None;None;[];43.67894779983908;None;7;"['9', '9', '9']";"[1.2921216001268476, 2.03587570018135, 2.547774000093341]";43.67894779983908;None;;;;;;;;;;;;;;;;S11344;2022_Apr_01_1751;VideoMask;2021.1.2;120.83496963977872;
1113;f;1113_y_f_s_a.jpg;sad;7;example_30.3ns.avi;neutral;7;incongruent;130.0;170.0;229.02432995836998;;0;1;1;1;;;;;;;;;;;46.679065899923444;None;48.78719129995443;49.10388439986855;50.237321599852294;50.25458680000156;52.237220800016075;None;8;0;0.9578481998760253;52.237220800016075;None;53.787195099983364;None;None;None;[];53.787195099983364;None;5;None;;53.787195099983364;None;;;;;;;;;;;;;;;;S11344;2022_Apr_01_1751;VideoMask;2021.1.2;120.83496963977872;
9.0;f;019_m_f_h_a.jpg;happy;9.0;sad_115.1.wmv;sad;7.0;incongruent;120.0;160.0;128.09063432376465;h_s;;;;;0;0;0;0;;;;;;;57.820227599935606;None;59.09515319997445;59.41192610003054;60.5533402999863;60.570310099981725;62.54523489996791;None;7;0;0.7216171000618488;62.54523489996791;None;;;;;;;;3;;;;;56.820479799993336;None;64.10428149998188;None;None;None;[];64.10428149998188;None;"['7', '7']";"[0.8185998001135886, 1.6105754000600427]";64.10428149998188;None;;;S11344;2022_Apr_01_1751;VideoMask;2021.1.2;120.83496963977872;
3.0;m;033_o_m_s_a.jpg;sad;7.0;sad_94.2ns.avi;sad;7.0;congruent;130.0;160.0;182.29120173647655;s_s;;;;;0;1;1;1;;;;;;;67.09510409994982;None;68.81165279983543;69.12834009993821;70.31174349994399;70.32832670002244;72.95340899983421;None;7;0;1.3453589999116957;72.95340899983421;None;;;;;;;;4;;;;;;;74.51152679999359;None;None;None;[];74.51152679999359;None;['7'];[1.0034934000577778];74.51152679999359;None;;;S11344;2022_Apr_01_1751;VideoMask;2021.1.2;120.83496963977872;
8.0;m;008_y_m_h_a.jpg;happy;9.0;happy_26.1ns.avi;happy;9.0;congruent;120.0;150.0;155.9437854594882;h_h;;;;;0;2;2;2;;;;;;;77.51157059986144;None;78.99457849981263;79.31140959984623;80.46138729993254;80.47792839980684;82.43649639980868;None;9;0;0.5906646000221372;82.43649639980868;None;;;;;;;;8;;;;;;;83.99464869988151;None;None;None;[];83.99464869988151;None;"['9', '9', '9']";"[0.5044210001360625, 0.9922005999833345, 1.5443709001410753]";83.99464869988151;None;;;S11344;2022_Apr_01_1751;VideoMask;2021.1.2;120.83496963977872;
0.0;f;040_y_f_h_a.jpg;happy;9.0;sad_138.1.wmv;sad;7.0;incongruent;120.0;160.0;133.99071306426532;h_s;;;;;0;3;3;3;;;;;;;87.00294469995424;None;88.3192741998937;88.6360224999953;89.76946310000494;89.78600179986097;91.76931310002692;None;7;0;1.2661132998764515;91.76931310002692;None;;;;;;;;1;;;;;;;94.07757409987971;None;None;None;[];94.07757409987971;None;"['7', '7', '7', '7']";"[0.3732386000920087, 0.5891800001263618, 0.7491206999402493, 0.8931716999504715]";94.07757409987971;None;;;S11344;2022_Apr_01_1751;VideoMask;2021.1.2;120.83496963977872;
8.0;f;028_y_f_s_a.jpg;sad;7.0;sad_64.2ns.avi;sad;7.0;congruent;130.0;160.0;229.88540597086478;s_s;;;;;0;4;4;4;;;;;;;97.08589520002715;None;99.23557080002502;99.55232439981773;100.71949129994027;100.74405989982188;111.68540790001862;None;7;0;0.43728569988161325;111.68540790001862;None;;;;;;;;2;;;;;;;113.25199649995193;None;None;None;[];113.25199649995193;None;"['7', '7', '7', '7', '7', '7']";"[0.49500090000219643, 0.7668077000416815, 1.1027983000967652, 1.510909599950537, 2.3671883998904377, 2.7188885000068694]";113.25199649995193;None;;;S11344;2022_Apr_01_1751;VideoMask;2021.1.2;120.83496963977872;
7.0;m;027_o_m_s_a.jpg;sad;7.0;sad_10.4ns.avi;sad;7.0;congruent;130.0;160.0;185.20129417468752;s_s;;;;;0;5;5;5;;;;;;;116.26032239990309;None;118.00173449981958;118.318481199909;119.47677429998294;119.4934739000164;122.63502989988774;None;7;0;0.7117824000306427;122.63502989988774;None;;;;;;;;1;;;;;;;124.1849268998485;None;None;None;[];124.1849268998485;None;"['7', '7', '7', '7']";"[0.44207299989648163, 1.233942899852991, 1.8097715999465436, 2.122005800018087]";124.1849268998485;None;;;S11344;2022_Apr_01_1751;VideoMask;2021.1.2;120.83496963977872;
2.0;f;012_o_f_s_a.jpg;sad;7.0;sad_7.5ns.avi;sad;7.0;congruent;130.0;160.0;220.27842655424388;s_s;;;;;0;6;6;6;;;;;;;127.18495299993083;None;129.20970100001432;129.52640519989654;130.76812199992128;130.78468829998747;133.45139189995825;None;7;0;0.6873110001906753;133.45139189995825;None;;;;;;;;2;;;;;;;135.2096243998967;None;None;None;[];135.2096243998967;None;"['7', '7', '7', '7']";"[0.3771361999679357, 0.6650967998430133, 1.0331908999942243, 1.4331961998250335]";135.2096243998967;None;;;S11344;2022_Apr_01_1751;VideoMask;2021.1.2;120.83496963977872;
2.0;f;012_o_f_h_a.jpg;happy;9.0;happy_27.1ns.avi;happy;9.0;congruent;120.0;150.0;146.44967055810616;h_h;;;;;0;7;7;7;;;;;;;138.20968770002946;None;139.6176238998305;139.93452369980514;141.09260530001484;141.1092507999856;143.55936279986054;None;9;0;0.5633549001067877;143.55936279986054;None;;;;;;;;9;;;;;;;145.10932149994187;None;None;None;[];145.10932149994187;None;"['9', '9', '9', '9', '9']";"[0.4615020998753607, 0.8375101999845356, 1.1654509999789298, 1.589763999916613, 1.9658748998772353]";145.10932149994187;None;;;S11344;2022_Apr_01_1751;VideoMask;2021.1.2;120.83496963977872;
8.0;f;028_y_f_h_a.jpg;happy;9.0;sad_119.1.wmv;sad;7.0;incongruent;120.0;160.0;148.71526953572538;h_s;;;;;0;8;8;8;;;;;;;148.10923519986682;None;149.55063680000603;149.86748569994234;151.00123689998873;151.02577109984122;153.06739520002156;None;7;0;0.7032782998867333;153.06739520002156;None;;;;;;;;3;;;;;;;154.617363399826;None;None;None;[];154.617363399826;None;"['7', '7']";"[0.4892716999165714, 1.1134409999940544]";154.617363399826;None;;;S11344;2022_Apr_01_1751;VideoMask;2021.1.2;120.83496963977872;
6.0;m;016_y_m_s_a.jpg;sad;7.0;happy_60.4ns.avi;happy;9.0;incongruent;130.0;150.0;126.02367393611817;s_h;;;;;0;9;9;9;;;;;;;157.61727809999138;None;158.87538049998693;159.1921406998299;160.3508514999412;160.36744969990104;166.1169814998284;None;9;0;0.4698202998843044;166.1169814998284;None;;;;;;;;6;;;;;;;167.66696759988554;None;None;None;[];167.66696759988554;None;['9'];[0.39166379999369383];167.66696759988554;None;;;S11344;2022_Apr_01_1751;VideoMask;2021.1.2;120.83496963977872;
9.0;f;019_m_f_s_a.jpg;sad;7.0;sad_8.4ns.avi;sad;7.0;congruent;130.0;160.0;171.6633093155257;s_s;;;;;0;10;10;10;;;;;;;170.66691169980913;None;172.33325789985247;172.65000319993123;173.82511819992214;173.84229499986395;181.91648979997262;None;7;0;0.534294200129807;181.91648979997262;None;;;;;;;;3;;;;;;;183.46645920001902;None;None;None;[];183.46645920001902;None;"['7', '7']";"[0.6321773999370635, 0.872325100004673]";183.46645920001902;None;;;S11344;2022_Apr_01_1751;VideoMask;2021.1.2;120.83496963977872;
4.0;m;004_o_m_h_a.jpg;happy;9.0;happy_1.1ns.avi;happy;9.0;congruent;120.0;150.0;203.50057144619865;h_h;;;;;0;11;11;11;;;;;;;186.4748175998684;None;188.44109019986354;188.7579349000007;189.94128969986923;189.95791769982316;204.3740542999003;None;None;0;;204.3740542999003;None;;;;;;;;5;;;;;;;205.92388929985464;None;None;None;[];205.92388929985464;None;None;;205.92388929985464;None;;;S11344;2022_Apr_01_1751;VideoMask;2021.1.2;120.83496963977872;
7.0;m;027_o_m_h_a.jpg;happy;9.0;happy_20.1ns.avi;happy;9.0;congruent;120.0;150.0;152.91127178874285;h_h;;;;;0;12;12;12;;;;;;;208.95735009992495;None;210.44900439982302;210.76548209995963;211.9156212999951;211.9322027999442;214.91549329995178;None;9;0;0.7672300999984145;214.91549329995178;None;;;;;;;;8;;;;;;;216.46530049992725;None;None;None;[];216.46530049992725;None;"['9', '9', '9']";"[0.43358569988049567, 0.9374649999663234, 1.2814289999660105]";216.46530049992725;None;;;S11344;2022_Apr_01_1751;VideoMask;2021.1.2;120.83496963977872;
0.0;f;040_y_f_s_a.jpg;sad;7.0;sad_94.3ns.avi;sad;7.0;congruent;130.0;160.0;155.27414203894395;s_s;;;;;0;13;13;13;;;;;;;219.47368639986962;None;220.9568039998412;221.27349890000187;222.41513759992085;222.4319533999078;225.03177609993145;None;7;0;0.9788873000070453;225.03177609993145;None;;;;;;;;2;;;;;;;226.58177469996735;None;None;None;[];226.58177469996735;None;"['7', '7', '7']";"[1.1732437000609934, 1.9570099001284689, 2.2529055001214147]";226.58177469996735;None;;;S11344;2022_Apr_01_1751;VideoMask;2021.1.2;120.83496963977872;
0.0;f;030_o_f_s_a.jpg;sad;7.0;sad_68.1ns.avi;sad;7.0;congruent;130.0;160.0;158.9411396037211;s_s;;;;;0;14;14;14;;;;;;;229.58166549983434;None;231.12329999986105;231.4399368998129;232.58154279994778;232.59828219981864;239.99810669990256;None;7;0;0.6687912999186665;239.99810669990256;None;;;;;;;;1;;;;;;;241.5479519998189;None;None;None;[];241.5479519998189;None;"['7', '7', '7', '7']";"[0.9988794999662787, 1.3588227999862283, 1.574718999909237, 1.9511871999129653]";241.5479519998189;None;;;S11344;2022_Apr_01_1751;VideoMask;2021.1.2;120.83496963977872;
0.0;f;030_o_f_h_a.jpg;happy;9.0;sad_127.1.wmv;sad;7.0;incongruent;120.0;160.0;180.59976631384873;h_s;;;;;0;15;15;15;;;;;;;244.55620249989443;None;246.27269999985583;246.58941489993595;247.71444919984788;247.73117389995605;249.72266239998862;None;7;0;0.7200610998552293;249.72266239998862;None;;;;;;;;1;;;;;;;251.27265189983882;None;None;None;[];251.27265189983882;None;"['7', '7', '7', '7', '7', '7']";"[0.5861706999130547, 0.7780408000107855, 0.9299860999453813, 1.370109299896285, 1.6020088999066502, 2.066213399870321]";251.27265189983882;None;;;S11344;2022_Apr_01_1751;VideoMask;2021.1.2;120.83496963977872;
8.0;m;008_y_m_s_a.jpg;sad;7.0;happy_133.3.wmv;happy;9.0;incongruent;130.0;150.0;152.577966552593;s_h;;;;;0;16;16;16;;;;;;;254.27254079980776;None;255.75571849988773;256.0724388998933;257.1975260998588;257.21410469990224;259.2057450998109;None;9;0;0.589073000010103;259.2057450998109;None;;;;;;;;7;;;;;;;260.9890151999425;None;None;None;[];260.9890151999425;None;"['9', '9']";"[0.5897795001510531, 1.2698163001332432]";260.9890151999425;None;;;S11344;2022_Apr_01_1751;VideoMask;2021.1.2;120.83496963977872;
3.0;m;033_o_m_h_a.jpg;happy;9.0;sad_128.1.wmv;sad;7.0;incongruent;120.0;160.0;171.0492454518585;h_s;;;;;0;17;17;17;;;;;;;263.99724359996617;None;265.63871289999224;265.95545389992185;267.0969510998111;267.1138273999095;269.08880689996295;None;7;0;0.9540516999550164;269.08880689996295;None;;;;;;;;4;;;;;;;270.6387157998979;None;None;None;[];270.6387157998979;None;['7'];[0.7482242998667061];270.6387157998979;None;;;S11344;2022_Apr_01_1751;VideoMask;2021.1.2;120.83496963977872;
1.0;f;021_o_f_h_a.jpg;happy;9.0;sad_116.1.wmv;sad;7.0;incongruent;120.0;160.0;184.06847610053055;h_s;;;;;0;18;18;18;;;;;;;273.6470438998658;None;275.405099199852;275.73037129989825;276.86351759987883;276.8802251999732;278.87190499994904;None;7;0;0.8748653999064118;278.87190499994904;None;;;;;;;;4;;;;;;;280.43007639981806;None;None;None;[];280.43007639981806;None;['7'];[1.5408030000980943];280.43007639981806;None;;;S11344;2022_Apr_01_1751;VideoMask;2021.1.2;120.83496963977872;
4.0;m;004_o_m_s_a.jpg;sad;7.0;happy_28.1ns.avi;happy;9.0;incongruent;130.0;150.0;157.40741103039684;s_h;;;;;0;19;19;19;;;;;;;283.43006299994886;None;284.9464230998419;285.2630946999416;286.42134859994985;286.4466042998247;290.7881403998472;None;9;0;0.4066222000401467;290.7881403998472;None;;;;;;;;9;;;;;;;292.3380330000073;None;None;None;[];292.3380330000073;None;"['9', '9', '9', '9', '9', '9']";"[0.3528039001394063, 0.6006430999841541, 0.8006375001277775, 1.024734399979934, 1.3846579999662936, 1.8247319001238793]";292.3380330000073;None;;;S11344;2022_Apr_01_1751;VideoMask;2021.1.2;120.83496963977872;
8.0;f;028_y_f_s_a.jpg;sad;7.0;happy_122.3.wmv;happy;9.0;incongruent;130.0;150.0;171.8670540936116;s_h;;;;;0;20;20;20;;;;;;;295.33806280000135;None;296.98773649986833;297.30450109997764;298.4382602998521;298.46283229999244;300.4377661999315;None;9;0;0.669121399987489;300.4377661999315;None;;;;;;;;8;;;;;;;301.97931359987706;None;None;None;[];301.97931359987706;None;"['9', '9', '9', '9']";"[0.6233121999539435, 0.9514926001429558, 1.6954632999841124, 2.0793202000204474]";301.97931359987706;None;;;S11344;2022_Apr_01_1751;VideoMask;2021.1.2;120.83496963977872;
8.0;m;008_y_m_s_a.jpg;sad;7.0;sad_6.5ns.avi;sad;7.0;congruent;130.0;160.0;170.39333839271438;s_s;;;;;0;21;21;21;;;;;;;304.9793040000368;None;306.6041424998548;306.92083239997737;308.1295415998902;308.15399040002376;313.0541878999211;None;7;0;0.6765441000461578;313.0541878999211;None;;;;;;;;4;;;;;;;314.6039515999146;None;None;None;[];314.6039515999146;None;"['7', '7']";"[0.31081470008939505, 0.7509538000449538]";314.6039515999146;None;;;S11344;2022_Apr_01_1751;VideoMask;2021.1.2;120.83496963977872;
8.0;f;028_y_f_h_a.jpg;happy;9.0;happy_23.1ns.avi;happy;9.0;congruent;120.0;150.0;225.70986890587952;h_h;;;;;0;22;22;22;;;;;;;317.61223690002225;None;319.69539360003546;320.01212850003503;321.21177980001085;321.22861949983053;325.72044239984825;None;9;0;0.72262670006603;325.72044239984825;None;;;;;;;;8;;;;;;;327.2786281998269;None;None;None;[];327.2786281998269;None;"['9', '9', '9', '9', '9']";"[1.044088900089264, 1.4524739000480622, 2.100206600036472, 2.4439471000805497, 2.7880604001693428]";327.2786281998269;None;;;S11344;2022_Apr_01_1751;VideoMask;2021.1.2;120.83496963977872;
8.0;m;008_y_m_h_a.jpg;happy;9.0;sad_111.1.wmv;sad;7.0;incongruent;120.0;160.0;152.63076835312847;h_s;;;;;0;23;23;23;;;;;;;330.2785061998293;None;331.75331459986046;332.0700827999972;333.20341299986467;333.2200725998264;335.2033869000152;None;7;0;0.6073194998316467;335.2033869000152;None;;;;;;;;3;;;;;;;336.9198870998807;None;None;None;[];336.9198870998807;None;"['7', '7']";"[0.4428288000635803, 0.706844000145793]";336.9198870998807;None;;;S11344;2022_Apr_01_1751;VideoMask;2021.1.2;120.83496963977872;
0.0;f;040_y_f_s_a.jpg;sad;7.0;sad_67.2ns.avi;sad;7.0;congruent;130.0;160.0;220.9892697323079;s_s;;;;;0;24;24;24;;;;;;;339.91987949982285;None;341.97798219998367;342.2947283999529;343.5615061998833;343.57812540000305;352.6610940999817;None;7;0;1.4056057000998408;352.6610940999817;None;;;;;;;;2;;;;;;;354.3944427999668;None;None;None;[];354.3944427999668;None;"['7', '7', '7']";"[0.5447120999451727, 0.7922439000103623, 0.9682094999589026]";354.3944427999668;None;;;S11344;2022_Apr_01_1751;VideoMask;2021.1.2;120.83496963977872;
8.0;m;008_y_m_s_a.jpg;sad;7.0;happy_29.1ns.avi;happy;9.0;incongruent;130.0;150.0;120.0316142834122;s_h;;;;;0;25;25;25;;;;;;;357.40279949991964;None;358.61081849993207;358.92752249981277;360.1107011998538;360.12737749982625;362.75260400003754;None;9;0;0.730176700046286;362.75260400003754;None;;;;;;;;7;;;;;;;364.31077359989285;None;None;None;[];364.31077359989285;None;"['9', '9']";"[1.3400069999042898, 2.4519678000360727]";364.31077359989285;None;;;S11344;2022_Apr_01_1751;VideoMask;2021.1.2;120.83496963977872;
6.0;m;016_y_m_s_a.jpg;sad;7.0;sad_8.3ns.avi;sad;7.0;congruent;130.0;160.0;152.85371098242734;s_s;;;;;0;26;26;26;;;;;;;367.31068769982085;None;368.802296299953;369.11892569996417;370.31039819982834;370.32721829996444;378.0270212998148;None;7;0;0.6077119000256062;378.0270212998148;None;;;;;;;;3;;;;;;;379.5769052999094;None;None;None;[];379.5769052999094;None;"['7', '7', '7']";"[1.1537617000285536, 1.3937357000540942, 1.8420849000103772]";379.5769052999094;None;;;S11344;2022_Apr_01_1751;VideoMask;2021.1.2;120.83496963977872;
6.0;m;016_y_m_h_a.jpg;happy;9.0;sad_114.1.wmv;sad;7.0;incongruent;120.0;160.0;136.20550699298644;h_s;;;;;0;27;27;27;;;;;;;382.5769042999018;None;383.9266786999069;384.2433350000065;385.36855969997123;385.38513799989596;387.37665180000477;None;7;0;0.6740520999301225;387.37665180000477;None;;;;;;;;3;;;;;;;388.9353294998873;None;None;None;[];388.9353294998873;None;"['7', '7']";"[1.307720199925825, 1.859811200061813]";388.9353294998873;None;;;S11344;2022_Apr_01_1751;VideoMask;2021.1.2;120.83496963977872;
7.0;m;027_o_m_s_a.jpg;sad;7.0;happy_117.3.wmv;happy;9.0;incongruent;130.0;150.0;215.61964028550614;s_h;;;;;0;28;28;28;;;;;;;391.9349940000102;None;393.9430478999857;394.259704799857;395.3931894998532;395.4097799998708;397.3930517998524;None;9;0;0.4339162001851946;397.3930517998524;None;;;;;;;;3;;;;;;;398.9430235000327;None;None;None;[];398.9430235000327;None;"['7', '7']";"[1.1795954999979585, 2.4281533998437226]";398.9430235000327;None;;;S11344;2022_Apr_01_1751;VideoMask;2021.1.2;120.83496963977872;
6.0;m;016_y_m_h_a.jpg;happy;9.0;happy_9.2ns.avi;happy;9.0;congruent;120.0;150.0;130.52042428082717;h_h;;;;;0;29;29;29;;;;;;;401.95124630001374;None;403.2426683998201;403.5594722998794;404.75104280002415;404.7676665999461;410.62597289984114;None;9;0;0.83279770007357;410.62597289984114;None;;;;;;;;5;;;;;;;412.17584469984286;None;None;None;[];412.17584469984286;None;None;;412.17584469984286;None;;;S11344;2022_Apr_01_1751;VideoMask;2021.1.2;120.83496963977872;
0.0;f;040_y_f_s_a.jpg;sad;7.0;happy_127.3.wmv;happy;9.0;incongruent;130.0;150.0;131.7195455720239;s_h;;;;;0;30;30;30;;;;;;;415.2092202999629;None;416.5173316998407;416.8341411999427;417.9591539998073;417.97566149989143;420.0340305999853;None;9;0;0.6406839999835938;420.0340305999853;None;;;;;;;;6;;;;;;;421.58390889992006;None;None;None;[];421.58390889992006;None;['9'];[0.37072909995913506];421.58390889992006;None;;;S11344;2022_Apr_01_1751;VideoMask;2021.1.2;120.83496963977872;
0.0;f;030_o_f_s_a.jpg;sad;7.0;happy_125.3.wmv;happy;9.0;incongruent;130.0;150.0;220.51454909128134;s_h;;;;;0;31;31;31;;;;;;;424.59226269996725;None;426.64206600002944;426.95869420003146;428.0921103998553;428.1086347999517;430.1008193998132;None;9;0;0.4300210000947118;430.1008193998132;None;;;;;;;;6;;;;;;;431.78368090000004;None;None;None;[];431.78368090000004;None;['9'];[0.563060199841857];431.78368090000004;None;;;S11344;2022_Apr_01_1751;VideoMask;2021.1.2;120.83496963977872;
0.0;f;030_o_f_s_a.jpg;sad;7.0;sad_64.3ns.avi;sad;7.0;congruent;130.0;160.0;165.78667874766072;s_s;;;;;0;32;32;32;;;;;;;434.7835595998913;None;436.37515740003437;436.6918046998326;437.8666280999314;437.8832449999172;442.8417730999645;None;7;0;0.7609250999521464;442.8417730999645;None;;;;;;;;3;;;;;;;444.39995109988376;None;None;None;[];444.39995109988376;None;"['7', '7']";"[0.3547577001154423, 1.0666203999426216]";444.39995109988376;None;;;S11344;2022_Apr_01_1751;VideoMask;2021.1.2;120.83496963977872;
3.0;m;013_y_m_s_a.jpg;sad;7.0;sad_7.7ns.avi;sad;7.0;congruent;130.0;160.0;196.24182255763262;s_s;;;;;0;33;33;33;;;;;;;447.39992939983495;None;449.2412971998565;449.5580811998807;450.7662877999246;450.78287360002287;456.69111399981193;None;7;0;1.3754740001168102;456.69111399981193;None;;;;;;;;4;;;;;;;458.29950789990835;None;None;None;[];458.29950789990835;None;['7'];[1.4233542999718338];458.29950789990835;None;;;S11344;2022_Apr_01_1751;VideoMask;2021.1.2;120.83496963977872;
3.0;m;013_y_m_h_a.jpg;happy;9.0;happy_9.1ns.avi;happy;9.0;congruent;120.0;150.0;165.1890303600433;h_h;;;;;0;34;34;34;;;;;;;461.30790589982644;None;462.89088539988734;463.2076409999281;464.3408402998466;464.35765709984116;467.5658612998668;None;9;0;1.0368898999877274;467.5658612998668;None;;;;;;;;6;;;;;;;469.1157297999598;None;None;None;[];469.1157297999598;None;['9'];[2.230977099854499];469.1157297999598;None;;;S11344;2022_Apr_01_1751;VideoMask;2021.1.2;120.83496963977872;
4.0;m;004_o_m_h_a.jpg;happy;9.0;sad_95.1ns.avi;sad;7.0;incongruent;120.0;160.0;152.68270002069931;h_s;;;;;0;35;35;35;;;;;;;472.1240456998348;None;473.6238504999783;473.9405004000291;475.09070119983517;475.10730839986354;483.86538239987567;None;7;0;0.7053380999714136;483.86538239987567;None;;;;;;;;2;;;;;;;485.4236303998623;None;None;None;[];485.4236303998623;None;"['7', '7', '7']";"[0.27501640003174543, 0.4829945999663323, 0.6748899000231177]";485.4236303998623;None;;;S11344;2022_Apr_01_1751;VideoMask;2021.1.2;120.83496963977872;
3.0;m;013_y_m_h_a.jpg;happy;9.0;sad_113.2.wmv;sad;7.0;incongruent;120.0;160.0;217.4973891947951;h_s;;;;;0;36;36;36;;;;;;;488.42368329991587;None;490.4483622999396;490.76499669998884;491.89016299997456;491.9067978998646;493.9068012998905;None;None;0;;493.9068012998905;None;;;;;;;;5;;;;;;;495.4650139999576;None;None;None;[];495.4650139999576;None;None;;495.4650139999576;None;;;S11344;2022_Apr_01_1751;VideoMask;2021.1.2;120.83496963977872;
4.0;m;004_o_m_h_a.jpg;happy;9.0;happy_25.1ns.avi;happy;9.0;congruent;120.0;150.0;216.63044503818386;h_h;;;;;0;37;37;37;;;;;;;498.49827049998567;None;500.50642949994653;500.8230712998193;501.97314349981025;501.99015089985915;505.64813290000893;None;9;0;0.6345835998654366;505.64813290000893;None;;;;;;;;7;;;;;;;507.2062752000056;None;None;None;[];507.2062752000056;None;"['9', '9']";"[1.5966935998294502, 2.276409599930048]";507.2062752000056;None;;;S11344;2022_Apr_01_1751;VideoMask;2021.1.2;120.83496963977872;
4.0;m;004_o_m_s_a.jpg;sad;7.0;happy_131.2.wmv;happy;9.0;incongruent;130.0;150.0;181.38407540847405;s_h;;;;;0;38;38;38;;;;;;;510.2146009998396;None;511.93936219997704;512.2560397998895;513.3892673999071;513.4060841000173;515.3977443999611;None;9;0;0.6448493001516908;515.3977443999611;None;;;;;;;;6;;;;;;;516.9559501998592;None;None;None;[];516.9559501998592;None;['9'];[0.4706274999771267];516.9559501998592;None;;;S11344;2022_Apr_01_1751;VideoMask;2021.1.2;120.83496963977872;
0.0;f;040_y_f_h_a.jpg;happy;9.0;happy_24.3ns.avi;happy;9.0;congruent;120.0;150.0;213.25460698950434;h_h;;;;;0;39;39;39;;;;;;;519.9642185999546;None;521.9306840000208;522.2474146999884;523.4140627998859;523.4308243999258;525.3058503000066;None;9;0;0.5368467001244426;525.3058503000066;None;;;;;;;;6;;;;;;;526.855500199832;None;None;None;[];526.855500199832;None;"['9', '9', '7']";"[0.33108270005322993, 2.1953419998753816, 2.6750175000634044]";526.855500199832;None;;;S11344;2022_Apr_01_1751;VideoMask;2021.1.2;120.83496963977872;
2.0;f;012_o_f_s_a.jpg;sad;7.0;happy_139.1.wmv;happy;9.0;incongruent;130.0;150.0;162.31500468041804;s_h;;;;;0;40;40;40;;;;;;;529.8555421000347;None;531.413774299901;531.7304392999504;532.8638516999781;532.8805617999751;534.8637176000047;None;9;0;0.5709814999718219;534.8637176000047;None;;;;;;;;8;;;;;;;536.4137136999052;None;None;None;[];536.4137136999052;None;"['9', '9', '9', '9']";"[0.7808066001161933, 1.0769662000238895, 1.8928581001237035, 2.3169633999932557]";536.4137136999052;None;;;S11344;2022_Apr_01_1751;VideoMask;2021.1.2;120.83496963977872;
0.0;f;030_o_f_h_a.jpg;happy;9.0;happy_24.1ns.avi;happy;9.0;congruent;120.0;150.0;168.36256624020774;h_h;;;;;0;41;41;41;;;;;;;539.4137407999951;None;541.0300425000023;541.3468590998091;542.5799747998826;542.5967287998646;545.8050369999837;None;9;0;0.6377492998726666;545.8050369999837;None;;;;;;;;8;;;;;;;547.3550385998096;None;None;None;[];547.3550385998096;None;"['9', '9', '9', '9', '9', '9']";"[0.2714881000574678, 0.535514600109309, 0.9515727001708001, 1.3675509002059698, 2.143505700165406, 2.575629600090906]";547.3550385998096;None;;;S11344;2022_Apr_01_1751;VideoMask;2021.1.2;120.83496963977872;
2.0;f;012_o_f_h_a.jpg;happy;9.0;sad_113.1.wmv;sad;7.0;incongruent;120.0;160.0;177.44551734737394;h_s;;;;;0;42;42;42;;;;;;;550.3549659999553;None;552.046452099923;552.3632347998209;553.50462589995;553.5215353998356;555.4964593998156;None;7;0;0.6502688999753445;555.4964593998156;None;;;;;;;;4;;;;;;;557.0464266999625;None;None;None;[];557.0464266999625;None;"['7', '7']";"[1.4524334999732673, 1.8766126001719385]";557.0464266999625;None;;;S11344;2022_Apr_01_1751;VideoMask;2021.1.2;120.83496963977872;
3.0;m;033_o_m_s_a.jpg;sad;7.0;sad_64.5ns.avi;sad;7.0;congruent;130.0;160.0;130.55717223801247;s_s;;;;;0;43;43;43;;;;;;;560.0463481999468;None;561.346119799884;561.6628464998212;562.8295125998557;562.8461863999255;569.3793037999421;None;7;0;1.1433409000746906;569.3793037999421;None;;;;;;;;1;;;;;;;570.9292927999049;None;None;None;[];570.9292927999049;None;"['7', '7', '7', '7']";"[0.31358720012940466, 0.51323699997738, 0.6971803000196815, 1.0336535000242293]";570.9292927999049;None;;;S11344;2022_Apr_01_1751;VideoMask;2021.1.2;120.83496963977872;
7.0;m;027_o_m_h_a.jpg;happy;9.0;sad_117.1.wmv;sad;7.0;incongruent;120.0;160.0;181.28665202824095;h_s;;;;;0;44;44;44;;;;;;;573.9293510999996;None;575.6540596999694;575.9706910999957;577.1047151999082;577.1291490998119;579.104033399839;None;7;0;0.762503300094977;579.104033399839;None;;;;;;;;2;;;;;;;580.6540001998655;None;None;None;[];580.6540001998655;None;"['7', '7', '7', '7']";"[0.8126833999995142, 1.0845548000652343, 1.3726552999578416, 1.9245334998704493]";580.6540001998655;None;;;S11344;2022_Apr_01_1751;VideoMask;2021.1.2;120.83496963977872;
3.0;m;033_o_m_s_a.jpg;sad;7.0;happy_126.3.wmv;happy;9.0;incongruent;130.0;150.0;198.85252030535366;s_h;;;;;0;45;45;45;;;;;;;583.6538576998282;None;585.520394399995;585.8371029000264;586.9785638998728;586.9952674999367;588.97040069988;None;9;0;0.6402870998717844;588.97040069988;None;;;;;;;;5;;;;;;;590.5203456999734;None;None;None;[];590.5203456999734;None;None;;590.5203456999734;None;;;S11344;2022_Apr_01_1751;VideoMask;2021.1.2;120.83496963977872;
3.0;m;033_o_m_h_a.jpg;happy;9.0;sad_136.1.wmv;sad;7.0;incongruent;120.0;160.0;176.97002883463455;h_s;;;;;0;46;46;46;;;;;;;593.5451315999962;None;595.2200640998781;595.5367446998134;596.6700830999762;596.686829400016;598.670083399862;None;7;0;0.7964113000780344;598.670083399862;None;;;;;;;;1;;;;;;;600.2200527999084;None;None;None;[];600.2200527999084;None;"['7', '7', '7', '7']";"[0.27058729995042086, 0.4624639998655766, 0.6225018999539316, 1.070573000004515]";600.2200527999084;None;;;S11344;2022_Apr_01_1751;VideoMask;2021.1.2;120.83496963977872;
9.0;f;019_m_f_h_a.jpg;happy;9.0;happy_10.1ns.avi;happy;9.0;congruent;120.0;150.0;157.2463435658512;h_h;;;;;0;47;47;47;;;;;;;603.2284132998902;None;604.7614421998151;605.0781856998801;606.2699320998508;606.286499899812;613.6613563999999;None;9;0;0.6775007001124322;613.6613563999999;None;;;;;;;;8;;;;;;;615.3862311998382;None;None;None;[];615.3862311998382;None;"['9', '9', '9']";"[0.4403991000726819, 0.7683862999547273, 1.0802660000044852]";615.3862311998382;None;;;S11344;2022_Apr_01_1751;VideoMask;2021.1.2;120.83496963977872;
2.0;f;012_o_f_h_a.jpg;happy;9.0;happy_2.2ns.avi;happy;9.0;congruent;120.0;150.0;206.34800317295262;h_h;;;;;0;48;48;48;;;;;;;618.3945603999309;None;620.3525309998076;620.6693208999932;621.861111599952;621.877697999822;634.0024854999501;None;9;0;0.4962800999637693;634.0024854999501;None;;;;;;;;6;;;;;;;635.560595799936;None;None;None;[];635.560595799936;None;['9'];[0.898086000001058];635.560595799936;None;;;S11344;2022_Apr_01_1751;VideoMask;2021.1.2;120.83496963977872;
3.0;m;033_o_m_h_a.jpg;happy;9.0;happy_24.2ns.avi;happy;9.0;congruent;120.0;150.0;167.9423847659953;h_h;;;;;0;49;49;49;;;;;;;638.5605027999263;None;640.1519838999957;640.4686954999343;641.6855698998552;641.7020992999896;645.327007399872;None;9;0;1.115640199976042;645.327007399872;None;;;;;;;;6;;;;;;;646.8769199999515;None;None;None;[];646.8769199999515;None;['9'];[1.7818228001706302];646.8769199999515;None;;;S11344;2022_Apr_01_1751;VideoMask;2021.1.2;120.83496963977872;
1.0;f;021_o_f_s_a.jpg;sad;7.0;happy_61.2ns.avi;happy;9.0;incongruent;130.0;150.0;210.94664004826666;s_h;;;;;0;50;50;50;;;;;;;649.8768221999053;None;651.8683348998893;652.1852425998077;653.3931589999702;653.4098888998851;657.8433013998438;None;9;0;0.5593268000520766;657.8433013998438;None;;;;;;;;8;;;;;;;659.393152799923;None;None;None;[];659.393152799923;None;"['9', '9', '9', '9']";"[0.25744710001163185, 0.5134149000514299, 0.7853898999746889, 1.2175122001208365]";659.393152799923;None;;;S11344;2022_Apr_01_1751;VideoMask;2021.1.2;120.83496963977872;
4.0;m;004_o_m_s_a.jpg;sad;7.0;sad_2.4ns.avi;sad;7.0;congruent;130.0;160.0;153.02079367163634;s_s;;;;;0;51;51;51;;;;;;;662.3936916999519;None;663.8929476998746;664.2097129998729;665.3760036998428;665.3936564000323;673.3093567998149;None;7;0;1.1092004999518394;673.3093567998149;None;;;;;;;;2;;;;;;;674.8593633000273;None;None;None;[];674.8593633000273;None;"['7', '7', '7', '7', '7']";"[0.3273102999664843, 0.5351883999537677, 0.7751323999837041, 1.0391981999855489, 1.391224900027737]";674.8593633000273;None;;;S11344;2022_Apr_01_1751;VideoMask;2021.1.2;120.83496963977872;
8.0;m;008_y_m_h_a.jpg;happy;9.0;happy_1.2ns.avi;happy;9.0;congruent;120.0;150.0;210.98946429383824;h_h;;;;;0;52;52;52;;;;;;;677.85940820002;None;679.8592691998929;680.1758689999115;681.300907399971;681.3175560999662;694.100425099954;None;9;0;0.6621801001019776;694.100425099954;None;;;;;;;;6;;;;;;;695.6503901998512;None;None;None;[];695.6503901998512;None;"['9', '9']";"[0.3601267000194639, 2.064233399927616]";695.6503901998512;None;;;S11344;2022_Apr_01_1751;VideoMask;2021.1.2;120.83496963977872;
2.0;f;012_o_f_s_a.jpg;sad;7.0;happy_52.2ns.avi;happy;9.0;incongruent;130.0;150.0;172.57202848318138;s_h;;;;;0;53;53;53;;;;;;;698.6503186000045;None;700.2834377000108;700.6002577999607;701.7586281998083;701.775296599837;705.3000894000288;None;9;0;0.7904155999422073;705.3000894000288;None;;;;;;;;6;;;;;;;706.8499687998556;None;None;None;[];706.8499687998556;None;['9'];[1.6086293999105692];706.8499687998556;None;;;S11344;2022_Apr_01_1751;VideoMask;2021.1.2;120.83496963977872;
9.0;f;019_m_f_s_a.jpg;sad;7.0;happy_61.1ns.avi;happy;9.0;incongruent;130.0;150.0;181.3003220572762;s_h;;;;;0;54;54;54;;;;;;;709.8501000998076;None;711.5830165999942;711.89989469992;713.0746983999852;713.0915337998886;720.4247528999113;None;9;0;0.6099514001980424;720.4247528999113;None;;;;;;;;8;;;;;;;721.9828854999505;None;None;None;[];721.9828854999505;None;"['9', '9', '9']";"[0.24365449999459088, 0.5076652001589537, 0.7556170001626015]";721.9828854999505;None;;;S11344;2022_Apr_01_1751;VideoMask;2021.1.2;120.83496963977872;
0.0;f;030_o_f_h_a.jpg;happy;9.0;sad_133.1.wmv;sad;7.0;incongruent;120.0;160.0;198.86251500867985;h_s;;;;;0;55;55;55;;;;;;;724.9911163998768;None;726.8576000998728;727.1743207999971;728.2994107999839;728.3160386998206;730.3074975998607;None;7;0;0.6790785000193864;730.3074975998607;None;;;;;;;;3;;;;;;;731.8575765998103;None;None;None;[];731.8575765998103;None;"['7', '7', '7']";"[0.33695599995553493, 0.7289428999647498, 1.0009188000112772]";731.8575765998103;None;;;S11344;2022_Apr_01_1751;VideoMask;2021.1.2;120.83496963977872;
0.0;f;040_y_f_h_a.jpg;happy;9.0;sad_128.2.wmv;sad;7.0;incongruent;120.0;160.0;206.10005857915363;h_s;;;;;0;56;56;56;;;;;;;734.8575313999318;None;736.7906865999103;737.1073797999416;738.2405356999952;738.2574408999644;740.2406942998059;None;7;0;0.7459343001246452;740.2406942998059;None;;;;;;;;4;;;;;;;741.7822608000133;None;None;None;[];741.7822608000133;None;['7'];[0.29215500014834106];741.7822608000133;None;;;S11344;2022_Apr_01_1751;VideoMask;2021.1.2;120.83496963977872;
1.0;f;021_o_f_s_a.jpg;sad;7.0;sad_9.5ns.avi;sad;7.0;congruent;130.0;160.0;206.16642757875042;s_s;;;;;0;57;57;57;;;;;;;744.7821841998957;None;746.7071811999194;747.0236462999601;748.1903478999157;748.2070342998486;753.8820137998555;None;7;0;0.7446334999985993;753.8820137998555;None;;;;;;;;1;;;;;;;755.4318566999864;None;None;None;[];755.4318566999864;None;"['7', '7', '7', '7']";"[0.25069350004196167, 0.49113440001383424, 0.7146461999509484, 0.9305451000109315]";755.4318566999864;None;;;S11344;2022_Apr_01_1751;VideoMask;2021.1.2;120.83496963977872;
1.0;f;021_o_f_h_a.jpg;happy;9.0;happy_12.1ns.avi;happy;9.0;congruent;120.0;150.0;132.59080005900228;h_h;;;;;0;58;58;58;;;;;;;758.4401827999391;None;759.7649299998302;760.0816096998751;761.2237131998409;761.2403782999609;768.8314956999384;None;9;0;0.7870567000936717;768.8314956999384;None;;;;;;;;4;;;;;;;770.389704399975;None;None;None;[];770.389704399975;None;"['7', '7']";"[2.2528677000664175, 2.676843299996108]";770.389704399975;None;;;S11344;2022_Apr_01_1751;VideoMask;2021.1.2;120.83496963977872;
3.0;m;013_y_m_s_a.jpg;sad;7.0;happy_56.2ns.avi;happy;9.0;incongruent;130.0;150.0;163.39234110935848;s_h;;;;;0;59;59;59;;;;;;;773.3979249999393;None;774.9727526998613;775.2894542999566;776.4893064999487;776.5061695999466;781.4643424998503;None;9;0;1.4582497000228614;781.4643424998503;None;;;;;;;;6;;;;;;;783.0225730999373;None;None;None;[];783.0225730999373;None;['9'];[0.5480789002031088];783.0225730999373;None;;;S11344;2022_Apr_01_1751;VideoMask;2021.1.2;120.83496963977872;
;;;;;;;;;;;;;;;;;;;;;;;;;;;;;;;;;;;;;;;;;;;;;;;;;;;;;;;;;;;;;;;;;786.030994300032;None;;;;;;
