primePerson;primeGender;prime;primeEmotion;corrAnsPrime;target;targetEmotion;corrAnsTar;Cond;ID_Primer;ID_Target;JitterTime;Condition;example.thisRepN;example.thisTrialN;example.thisN;example.thisIndex;study.thisRepN;study.thisTrialN;study.thisN;study.thisIndex;MR_trigger_time;MR_trigger_number;text_intro.started;text_intro.stopped;text_probe.started;text_probe.stopped;polygon_ISI.started;polygon_ISI.stopped;polygon.started;polygon.stopped;primerImage.started;primerImage.stopped;response.started;response.stopped;key_resp.keys;key_resp.corr;key_resp.rt;key_resp.started;key_resp.stopped;slider_Text.started;slider_Text.stopped;slider_ex.response;slider_ex.rt;slider_ex.history;slider_ex.started;slider_ex.stopped;Rating;slider_resp_response.keys;slider_resp_response.started;slider_resp_response.stopped;text_start.started;text_start.stopped;text_slider.started;text_slider.stopped;slider_stud.response;slider_stud.rt;slider_stud.history;slider_stud.started;slider_stud.stopped;slider_resp_study.keys;slider_resp_study.rt;slider_resp_study.started;slider_resp_study.stopped;text_ende.started;text_ende.stopped;participant;date;expName;psychopyVersion;frameRate;
1111;m;1111_m_m_h_a.jpg;happy;9;example_30.4ns.avi;neutral;7;incongruent;120.0;170.0;189.5874364012288;;0;0;0;0;;;;;26.900434800016228;1;26.978814799978863;28.978895500011276;28.978895500011276;None;30.9954547000234;None;33.195414300018456;33.528701599978376;34.67040649999399;34.6869933999842;38.98699230002239;None;8;0;1.295601500023622;38.98699230002239;None;40.54521479998948;None;None;None;[];40.54521479998948;None;5;None;40.54521479998948;None;;;;;;;;;;;;;;;;S12078;2023_Mar_21_1755;VideoMask;2021.1.2;119.98363424735095;
1113;f;1113_y_f_s_a.jpg;sad;7;example_30.3ns.avi;neutral;7;incongruent;130.0;170.0;229.02432995836998;;0;1;1;1;;;;;;;;;;;43.56177019997267;None;45.66992219997337;45.99506330001168;47.14503379998496;47.16165690001799;49.119962900003884;None;None;0;;49.119962900003884;None;50.66993839998031;None;None;None;[];50.66993839998031;None;5;None;50.66993839998031;None;;;;;;;;;;;;;;;;S12078;2023_Mar_21_1755;VideoMask;2021.1.2;119.98363424735095;
9.0;f;019_m_f_h_a.jpg;happy;9.0;sad_115.1.wmv;sad;7.0;incongruent;120.0;160.0;128.09063432376465;h_s;;;;;0;0;0;0;;;;;;;54.719753100012895;None;56.01127499999711;56.33641559997341;57.46959340001922;57.48633739998331;59.477957600029185;None;None;0;;59.477957600029185;None;;;;;;;;4;;;;53.70317049999721;None;61.036073499999475;None;None;None;[];61.036073499999475;None;['7'];[0.26260469999397174];61.036073499999475;None;;;S12078;2023_Mar_21_1755;VideoMask;2021.1.2;119.98363424735095;
3.0;m;033_o_m_s_a.jpg;sad;7.0;sad_94.2ns.avi;sad;7.0;congruent;130.0;160.0;182.29120173647655;s_s;;;;;0;1;1;1;;;;;;;64.03654180001467;None;65.76100240001688;66.08611009997549;67.31935840001097;67.33590210002149;69.90261819999432;None;7;0;1.4279308999539353;69.90261819999432;None;;;;;;;;3;;;;;;71.4525125999935;None;None;None;[];71.4525125999935;None;"['7', '7']";"[0.6221446000272408, 1.2382302000187337]";71.4525125999935;None;;;S12078;2023_Mar_21_1755;VideoMask;2021.1.2;119.98363424735095;
8.0;m;008_y_m_h_a.jpg;happy;9.0;happy_26.1ns.avi;happy;9.0;congruent;120.0;150.0;155.9437854594882;h_h;;;;;0;2;2;2;;;;;;;74.46102559997234;None;75.95231010002317;76.27744550001808;77.42745439999271;77.44405799999367;79.39457140001468;None;None;0;;79.39457140001468;None;;;;;;;;4;;;;;;81.33545389998471;None;None;None;[];81.33545389998471;None;['7'];[1.299381099990569];81.33545389998471;None;;;S12078;2023_Mar_21_1755;VideoMask;2021.1.2;119.98363424735095;
0.0;f;040_y_f_h_a.jpg;happy;9.0;sad_138.1.wmv;sad;7.0;incongruent;120.0;160.0;133.99071306426532;h_s;;;;;0;3;3;3;;;;;;;84.33565389999421;None;85.6520170000149;85.9772188999923;87.10213710000971;87.11860510002589;89.10195510002086;None;7;0;0.8447907000081614;89.10195510002086;None;;;;;;;;4;;;;;;90.67692420003004;None;None;None;[];90.67692420003004;None;['7'];[0.6457907999865711];90.67692420003004;None;;;S12078;2023_Mar_21_1755;VideoMask;2021.1.2;119.98363424735095;
8.0;f;028_y_f_s_a.jpg;sad;7.0;sad_64.2ns.avi;sad;7.0;congruent;130.0;160.0;229.88540597086478;s_s;;;;;0;4;4;4;;;;;;;93.68536880001193;None;95.8850942000281;96.21012000000337;97.3517638000194;97.36841840000125;108.33476200001314;None;7;0;0.7399346000165679;108.33476200001314;None;;;;;;;;2;;;;;;109.90966190001927;None;None;None;[];109.90966190001927;None;"['7', '7', '7']";"[0.412966099975165, 0.7649367999983951, 1.108872800017707]";109.90966190001927;None;;;S12078;2023_Mar_21_1755;VideoMask;2021.1.2;119.98363424735095;
7.0;m;027_o_m_s_a.jpg;sad;7.0;sad_10.4ns.avi;sad;7.0;congruent;130.0;160.0;185.20129417468752;s_s;;;;;0;5;5;5;;;;;;;112.90958099998534;None;114.66773039998952;114.99280599999474;116.15944000001764;116.17618930002209;119.29272490000585;None;7;0;1.1659805999952368;119.29272490000585;None;;;;;;;;3;;;;;;120.842652500025;None;None;None;[];120.842652500025;None;"['7', '7']";"[0.07996469998033717, 0.784041500010062]";120.842652500025;None;;;S12078;2023_Mar_21_1755;VideoMask;2021.1.2;119.98363424735095;
2.0;f;012_o_f_s_a.jpg;sad;7.0;sad_7.5ns.avi;sad;7.0;congruent;130.0;160.0;220.27842655424388;s_s;;;;;0;6;6;6;;;;;;;123.84296969999559;None;125.88411450001877;126.20919820002746;127.36744750000071;127.38413259998197;130.1260662000277;None;7;0;0.620562499971129;130.1260662000277;None;;;;;;;;2;;;;;;131.73395550000714;None;None;None;[];131.73395550000714;None;"['7', '7', '7', '7']";"[0.3966939999954775, 0.72461239999393, 1.0207072999910451, 1.4847994999727234]";131.73395550000714;None;;;S12078;2023_Mar_21_1755;VideoMask;2021.1.2;119.98363424735095;
2.0;f;012_o_f_h_a.jpg;happy;9.0;happy_27.1ns.avi;happy;9.0;congruent;120.0;150.0;146.44967055810616;h_h;;;;;0;7;7;7;;;;;;;134.7421451000264;None;136.17542440001853;136.49216020002495;137.65227590000723;137.6841033999808;140.11706319998484;None;None;0;;140.11706319998484;None;;;;;;;;6;;;;;;141.73351609997917;None;None;None;[];141.73351609997917;None;['9'];[2.6931492000003345];141.73351609997917;None;;;S12078;2023_Mar_21_1755;VideoMask;2021.1.2;119.98363424735095;
8.0;f;028_y_f_h_a.jpg;happy;9.0;sad_119.1.wmv;sad;7.0;incongruent;120.0;160.0;148.71526953572538;h_s;;;;;0;8;8;8;;;;;;;144.742312700022;None;146.20006850000937;146.52518380002584;147.65847109997412;147.67500370001653;149.71672710002167;None;7;0;0.597941100015305;149.71672710002167;None;;;;;;;;2;;;;;;151.29170080000767;None;None;None;[];151.29170080000767;None;"['7', '7', '7', '7']";"[0.33532960002776235, 0.710974499990698, 1.0550317000015639, 2.623010199982673]";151.29170080000767;None;;;S12078;2023_Mar_21_1755;VideoMask;2021.1.2;119.98363424735095;
6.0;m;016_y_m_s_a.jpg;sad;7.0;happy_60.4ns.avi;happy;9.0;incongruent;130.0;150.0;126.02367393611817;s_h;;;;;0;9;9;9;;;;;;;154.29166669998085;None;155.59155150002334;155.9166112000239;157.09155000001192;157.10819840000477;162.83300969999982;None;9;0;1.3299952000379562;162.83300969999982;None;;;;;;;;7;;;;;;164.40796500002034;None;None;None;[];164.40796500002034;None;"['9', '9']";"[0.4506393999909051, 1.3307778000016697]";164.40796500002034;None;;;S12078;2023_Mar_21_1755;VideoMask;2021.1.2;119.98363424735095;
9.0;f;019_m_f_s_a.jpg;sad;7.0;sad_8.4ns.avi;sad;7.0;congruent;130.0;160.0;171.6633093155257;s_s;;;;;0;10;10;10;;;;;;;167.41619600000558;None;169.09946410002885;169.42439930001274;170.5993671999895;170.61607009998988;178.69082349998644;None;7;0;0.9519492999534123;178.69082349998644;None;;;;;;;;3;;;;;;180.24070869997377;None;None;None;[];180.24070869997377;None;"['7', '7', '7']";"[0.3939742000075057, 0.8578478000126779, 1.7698701999615878]";180.24070869997377;None;;;S12078;2023_Mar_21_1755;VideoMask;2021.1.2;119.98363424735095;
4.0;m;004_o_m_h_a.jpg;happy;9.0;happy_1.1ns.avi;happy;9.0;congruent;120.0;150.0;203.50057144619865;h_h;;;;;0;11;11;11;;;;;;;183.2492488999851;None;185.26556049997453;185.59065289999126;186.75732109998353;186.7738030999899;201.1984573000227;None;9;0;0.5963178999954835;201.1984573000227;None;;;;;;;;7;;;;;;202.74842690001242;None;None;None;[];202.74842690001242;None;"['9', '9']";"[0.4545293999835849, 0.9741969999740832]";202.74842690001242;None;;;S12078;2023_Mar_21_1755;VideoMask;2021.1.2;119.98363424735095;
7.0;m;027_o_m_h_a.jpg;happy;9.0;happy_20.1ns.avi;happy;9.0;congruent;120.0;150.0;152.91127178874285;h_h;;;;;0;12;12;12;;;;;;;205.75707789999433;None;207.27324720000615;207.58954580000136;208.73148339998443;208.7480619000271;211.73979409999447;None;9;0;0.6709682999644428;211.73979409999447;None;;;;;;;;7;;;;;;213.28971310000634;None;None;None;[];213.28971310000634;None;"['9', '9']";"[0.5050214999937452, 0.9930772000225261]";213.28971310000634;None;;;S12078;2023_Mar_21_1755;VideoMask;2021.1.2;119.98363424735095;
0.0;f;040_y_f_s_a.jpg;sad;7.0;sad_94.3ns.avi;sad;7.0;congruent;130.0;160.0;155.27414203894395;s_s;;;;;0;13;13;13;;;;;;;216.28999100002693;None;217.79785259999335;218.12304719997337;219.3143807000015;219.3310894999886;221.8728306000121;None;7;0;1.2099705000291578;221.8728306000121;None;;;;;;;;3;;;;;;223.42276290000882;None;None;None;[];223.42276290000882;None;"['7', '7', '7', '9']";"[0.09207740001147613, 0.5479646999738179, 1.083982800017111, 1.819948900025338]";223.42276290000882;None;;;S12078;2023_Mar_21_1755;VideoMask;2021.1.2;119.98363424735095;
0.0;f;030_o_f_s_a.jpg;sad;7.0;sad_68.1ns.avi;sad;7.0;congruent;130.0;160.0;158.9411396037211;s_s;;;;;0;14;14;14;;;;;;;226.42265189997852;None;227.97260460001417;228.2976692999946;229.46589089999907;229.49757409997983;236.84731739998097;None;7;0;0.6913057999918237;236.84731739998097;None;;;;;;;;2;;;;;;238.39725530002033;None;None;None;[];238.39725530002033;None;"['7', '7', '7', '7']";"[0.309467000013683, 0.6934003999922425, 0.9972999999881722, 1.3734259000048041]";238.39725530002033;None;;;S12078;2023_Mar_21_1755;VideoMask;2021.1.2;119.98363424735095;
0.0;f;030_o_f_h_a.jpg;happy;9.0;sad_127.1.wmv;sad;7.0;incongruent;120.0;160.0;180.59976631384873;h_s;;;;;0;15;15;15;;;;;;;241.40572769998107;None;243.11369049997302;243.43877659999998;244.56382139999187;244.5804450000287;246.56368490000023;None;None;0;;246.56368490000023;None;;;;;;;;5;;;;;;248.11365860002115;None;None;None;[];248.11365860002115;None;None;;248.11365860002115;None;;;S12078;2023_Mar_21_1755;VideoMask;2021.1.2;119.98363424735095;
8.0;m;008_y_m_s_a.jpg;sad;7.0;happy_133.3.wmv;happy;9.0;incongruent;130.0;150.0;152.577966552593;s_h;;;;;0;16;16;16;;;;;;;251.1469258000143;None;252.646748500003;252.96344810002483;254.08851359999971;254.10509030002868;256.0967509999755;None;9;0;0.5383836000110023;256.0967509999755;None;;;;;;;;8;;;;;;257.6466207000194;None;None;None;[];257.6466207000194;None;"['9', '9', '9']";"[0.3560503000044264, 0.6842662999988534, 0.9640602999716066]";257.6466207000194;None;;;S12078;2023_Mar_21_1755;VideoMask;2021.1.2;119.98363424735095;
3.0;m;033_o_m_h_a.jpg;happy;9.0;sad_128.1.wmv;sad;7.0;incongruent;120.0;160.0;171.0492454518585;h_s;;;;;0;17;17;17;;;;;;;260.6469496000209;None;262.30474220000906;262.6298057999811;263.7630777999875;263.779777800024;265.75475530000404;None;None;0;;265.75475530000404;None;;;;;;;;3;;;;;;267.3047014999902;None;None;None;[];267.3047014999902;None;"['7', '7']";"[0.5139901000075042, 1.1060072000254877]";267.3047014999902;None;;;S12078;2023_Mar_21_1755;VideoMask;2021.1.2;119.98363424735095;
1.0;f;021_o_f_h_a.jpg;happy;9.0;sad_116.1.wmv;sad;7.0;incongruent;120.0;160.0;184.06847610053055;h_s;;;;;0;18;18;18;;;;;;;270.3131197000039;None;272.0710869000177;272.3962389000226;273.53053779999027;273.5543463000213;275.5211112999823;None;None;0;;275.5211112999823;None;;;;;;;;4;;;;;;277.07110020000255;None;None;None;[];277.07110020000255;None;"['7', '7', '9']";"[0.5395855999668129, 1.363764200010337, 1.8834573999629356]";277.07110020000255;None;;;S12078;2023_Mar_21_1755;VideoMask;2021.1.2;119.98363424735095;
4.0;m;004_o_m_s_a.jpg;sad;7.0;happy_28.1ns.avi;happy;9.0;incongruent;130.0;150.0;157.40741103039684;s_h;;;;;0;19;19;19;;;;;;;280.0797250000178;None;281.6210110000102;281.94599769997876;283.0957316000131;283.11239760002354;287.4624086000258;None;9;0;0.4123367000138387;287.4624086000258;None;;;;;;;;8;;;;;;289.0122917999979;None;None;None;[];289.0122917999979;None;"['9', '9', '9']";"[0.37461480003548786, 0.7024986000033095, 1.0144977000309154]";289.0122917999979;None;;;S12078;2023_Mar_21_1755;VideoMask;2021.1.2;119.98363424735095;
8.0;f;028_y_f_s_a.jpg;sad;7.0;happy_122.3.wmv;happy;9.0;incongruent;130.0;150.0;171.8670540936116;s_h;;;;;0;20;20;20;;;;;;;292.0125210999977;None;293.65367550001247;293.9788895000238;295.11207109998213;295.1287734999787;297.10379800002556;None;None;0;;297.10379800002556;None;;;;;;;;7;;;;;;298.6535667999997;None;None;None;[];298.6535667999997;None;"['9', '9']";"[0.589220599969849, 0.9253646999713965]";298.6535667999997;None;;;S12078;2023_Mar_21_1755;VideoMask;2021.1.2;119.98363424735095;
8.0;m;008_y_m_s_a.jpg;sad;7.0;sad_6.5ns.avi;sad;7.0;congruent;130.0;160.0;170.39333839271438;s_s;;;;;0;21;21;21;;;;;;;301.6536787999794;None;303.28678119997494;303.6035461000283;304.7534296999802;304.77022140001645;309.7367540000123;None;None;0;;309.7367540000123;None;;;;;;;;3;;;;;;311.33649750001496;None;None;None;[];311.33649750001496;None;"['7', '7']";"[0.48233490000711754, 1.8345806000288576]";311.33649750001496;None;;;S12078;2023_Mar_21_1755;VideoMask;2021.1.2;119.98363424735095;
8.0;f;028_y_f_h_a.jpg;happy;9.0;happy_23.1ns.avi;happy;9.0;congruent;120.0;150.0;225.70986890587952;h_h;;;;;0;22;22;22;;;;;;;314.33679580001626;None;316.4364180000266;316.753128500015;317.91955120000057;317.936289699981;322.4612925000256;None;None;0;;322.4612925000256;None;;;;;;;;8;;;;;;324.01117449998856;None;None;None;[];324.01117449998856;None;"['9', '9', '9', '9']";"[0.4636608000146225, 0.8154625999741256, 1.1595288999960758, 1.631715899973642]";324.01117449998856;None;;;S12078;2023_Mar_21_1755;VideoMask;2021.1.2;119.98363424735095;
8.0;m;008_y_m_h_a.jpg;happy;9.0;sad_111.1.wmv;sad;7.0;incongruent;120.0;160.0;152.63076835312847;h_s;;;;;0;23;23;23;;;;;;;327.01107489998685;None;328.4859889000072;328.81103450001683;329.9443896000157;329.96101139998063;331.93598140001995;None;None;0;;331.93598140001995;None;;;;;;;;3;;;;;;333.4860068000271;None;None;None;[];333.4860068000271;None;"['7', '7', '9', '7']";"[1.068716100009624, 1.620806500024628, 2.332810599997174, 2.9168359999894165]";333.4860068000271;None;;;S12078;2023_Mar_21_1755;VideoMask;2021.1.2;119.98363424735095;
0.0;f;040_y_f_s_a.jpg;sad;7.0;sad_67.2ns.avi;sad;7.0;congruent;130.0;160.0;220.9892697323079;s_s;;;;;0;24;24;24;;;;;;;336.4941831000033;None;338.61081749998266;338.9357895000139;340.1190689000068;340.1357319999952;349.28533570002764;None;None;0;;349.28533570002764;None;;;;;;;;3;;;;;;350.8354676999734;None;None;None;[];350.8354676999734;None;"['7', '7']";"[0.5113297000061721, 0.8553427000297233]";350.8354676999734;None;;;S12078;2023_Mar_21_1755;VideoMask;2021.1.2;119.98363424735095;
8.0;m;008_y_m_s_a.jpg;sad;7.0;happy_29.1ns.avi;happy;9.0;incongruent;130.0;150.0;120.0316142834122;s_h;;;;;0;25;25;25;;;;;;;353.84386369999265;None;355.07678340002894;355.39357070002006;356.5352685999824;356.5518360999995;359.21842960000504;None;None;0;;359.21842960000504;None;;;;;;;;6;;;;;;360.7682849999983;None;None;None;[];360.7682849999983;None;['9'];[0.7385612999787554];360.7682849999983;None;;;S12078;2023_Mar_21_1755;VideoMask;2021.1.2;119.98363424735095;
6.0;m;016_y_m_s_a.jpg;sad;7.0;sad_8.3ns.avi;sad;7.0;congruent;130.0;160.0;152.85371098242734;s_s;;;;;0;26;26;26;;;;;;;363.7683393000043;None;365.30163409997476;365.62664510001196;366.8274336999748;366.85140769998543;374.5096274000243;None;None;0;;374.5096274000243;None;;;;;;;;3;;;;;;376.06792980001774;None;None;None;[];376.06792980001774;None;"['7', '7']";"[0.646909200004302, 1.4228671000455506]";376.06792980001774;None;;;S12078;2023_Mar_21_1755;VideoMask;2021.1.2;119.98363424735095;
6.0;m;016_y_m_h_a.jpg;happy;9.0;sad_114.1.wmv;sad;7.0;incongruent;120.0;160.0;136.20550699298644;h_s;;;;;0;27;27;27;;;;;;;379.0678396000294;None;380.4260168999899;380.75110819999827;381.8761611999944;381.89279610000085;383.8760591999744;None;None;0;;383.8760591999744;None;;;;;;;;3;;;;;;385.4259686000296;None;None;None;[];385.4259686000296;None;"['7', '7']";"[0.6568361000390723, 1.1928013000288047]";385.4259686000296;None;;;S12078;2023_Mar_21_1755;VideoMask;2021.1.2;119.98363424735095;
7.0;m;027_o_m_s_a.jpg;sad;7.0;happy_117.3.wmv;happy;9.0;incongruent;130.0;150.0;215.61964028550614;s_h;;;;;0;28;28;28;;;;;;;388.4343068000162;None;390.45074509998085;390.7674575999845;391.8925007000216;391.90910649998114;393.9007300999947;None;None;0;;393.9007300999947;None;;;;;;;;5;;;;;;395.45061890000943;None;None;None;[];395.45061890000943;None;None;;395.45061890000943;None;;;S12078;2023_Mar_21_1755;VideoMask;2021.1.2;119.98363424735095;
6.0;m;016_y_m_h_a.jpg;happy;9.0;happy_9.2ns.avi;happy;9.0;congruent;120.0;150.0;130.52042428082717;h_h;;;;;0;29;29;29;;;;;;;398.47554579999996;None;399.79197169997497;400.1171904000221;401.24199850001605;401.258626899973;407.16699759999756;None;None;0;;407.16699759999756;None;;;;;;;;6;;;;;;408.7169119999744;None;None;None;[];408.7169119999744;None;['9'];[1.70989360002568];408.7169119999744;None;;;S12078;2023_Mar_21_1755;VideoMask;2021.1.2;119.98363424735095;
0.0;f;040_y_f_s_a.jpg;sad;7.0;happy_127.3.wmv;happy;9.0;incongruent;130.0;150.0;131.7195455720239;s_h;;;;;0;30;30;30;;;;;;;411.71697469998617;None;413.0416582999751;413.36674209998455;414.49180030002026;414.5083704999997;416.5666688000201;None;8;0;1.1080111999763176;416.5666688000201;None;;;;;;;;6;;;;;;418.1165696000098;None;None;None;[];418.1165696000098;None;['9'];[1.6703170000109822];418.1165696000098;None;;;S12078;2023_Mar_21_1755;VideoMask;2021.1.2;119.98363424735095;
0.0;f;030_o_f_s_a.jpg;sad;7.0;happy_125.3.wmv;happy;9.0;incongruent;130.0;150.0;220.51454909128134;s_h;;;;;0;31;31;31;;;;;;;421.1168885999941;None;423.1829885999905;423.5081301999744;424.64974730001995;424.66638619999867;426.6330320999841;None;None;0;;426.6330320999841;None;;;;;;;;7;;;;;;428.1829376000096;None;None;None;[];428.1829376000096;None;"['9', '9']";"[1.3398754999507219, 1.9159267999930307]";428.1829376000096;None;;;S12078;2023_Mar_21_1755;VideoMask;2021.1.2;119.98363424735095;
0.0;f;030_o_f_s_a.jpg;sad;7.0;sad_64.3ns.avi;sad;7.0;congruent;130.0;160.0;165.78667874766072;s_s;;;;;0;32;32;32;;;;;;;431.1911205999786;None;432.8077312000096;433.1328218000126;434.2994607000146;434.31606380001176;439.2576404000283;None;8;0;1.105025900003966;439.2576404000283;None;;;;;;;;5;;;;;;440.80752899998333;None;None;None;[];440.80752899998333;None;None;;440.80752899998333;None;;;S12078;2023_Mar_21_1755;VideoMask;2021.1.2;119.98363424735095;
3.0;m;013_y_m_s_a.jpg;sad;7.0;sad_7.7ns.avi;sad;7.0;congruent;130.0;160.0;196.24182255763262;s_s;;;;;0;33;33;33;;;;;;;443.83248979999917;None;445.6907198000117;446.0157474000007;447.1821803000057;447.1989689000184;453.1405330999987;None;7;0;0.5423323000431992;453.1405330999987;None;;;;;;;;3;;;;;;454.69050550000975;None;None;None;[];454.69050550000975;None;"['7', '7']";"[1.2003646999946795, 1.5442953999736346]";454.69050550000975;None;;;S12078;2023_Mar_21_1755;VideoMask;2021.1.2;119.98363424735095;
3.0;m;013_y_m_h_a.jpg;happy;9.0;happy_9.1ns.avi;happy;9.0;congruent;120.0;150.0;165.1890303600433;h_h;;;;;0;34;34;34;;;;;;;457.70037739997497;None;459.3151408000267;459.6403023999883;460.78299809998134;460.8069006999722;463.9901582999737;None;9;0;0.7646813999745063;463.9901582999737;None;;;;;;;;6;;;;;;465.5400128000183;None;None;None;[];465.5400128000183;None;['9'];[1.0628841000143439];465.5400128000183;None;;;S12078;2023_Mar_21_1755;VideoMask;2021.1.2;119.98363424735095;
4.0;m;004_o_m_h_a.jpg;happy;9.0;sad_95.1ns.avi;sad;7.0;incongruent;120.0;160.0;152.68270002069931;h_s;;;;;0;35;35;35;;;;;;;468.54041469999356;None;470.064909800014;470.3897745999857;471.56474250002066;471.5814207000076;480.3066543000168;None;7;0;0.7361601000302471;480.3066543000168;None;;;;;;;;3;;;;;;481.8645909000188;None;None;None;[];481.8645909000188;None;"['7', '7']";"[1.2421890000114217, 1.5942089000018314]";481.8645909000188;None;;;S12078;2023_Mar_21_1755;VideoMask;2021.1.2;119.98363424735095;
3.0;m;013_y_m_h_a.jpg;happy;9.0;sad_113.2.wmv;sad;7.0;incongruent;120.0;160.0;217.4973891947951;h_s;;;;;0;36;36;36;;;;;;;484.8648020999972;None;486.8976761000231;487.2227882000152;488.3734111000085;488.38925649999874;490.3476460999809;None;None;0;;490.3476460999809;None;;;;;;;;5;;;;;;491.88910410000244;None;None;None;[];491.88910410000244;None;None;;491.88910410000244;None;;;S12078;2023_Mar_21_1755;VideoMask;2021.1.2;119.98363424735095;
4.0;m;004_o_m_h_a.jpg;happy;9.0;happy_25.1ns.avi;happy;9.0;congruent;120.0;150.0;216.63044503818386;h_h;;;;;0;37;37;37;;;;;;;494.91394910000963;None;496.9473912999965;497.2639426999958;498.44741600001;498.4640527999727;502.0889163999818;None;9;0;0.9859056999557652;502.0889163999818;None;;;;;;;;6;;;;;;503.6389617000241;None;None;None;[];503.6389617000241;None;['9'];[2.1317974000121467];503.6389617000241;None;;;S12078;2023_Mar_21_1755;VideoMask;2021.1.2;119.98363424735095;
4.0;m;004_o_m_s_a.jpg;sad;7.0;happy_131.2.wmv;happy;9.0;incongruent;130.0;150.0;181.38407540847405;s_h;;;;;0;38;38;38;;;;;;;506.63878759997897;None;508.3719642999931;508.6971366999787;509.83020839997334;509.84686619997956;511.8219575000112;None;9;0;0.9328920000116341;511.8219575000112;None;;;;;;;;5;;;;;;513.3718980000122;None;None;None;[];513.3718980000122;None;['9'];[2.734962499991525];513.3718980000122;None;;;S12078;2023_Mar_21_1755;VideoMask;2021.1.2;119.98363424735095;
0.0;f;040_y_f_h_a.jpg;happy;9.0;happy_24.3ns.avi;happy;9.0;congruent;120.0;150.0;213.25460698950434;h_h;;;;;0;39;39;39;;;;;;;516.3802257999778;None;518.3716986000072;518.6968601000262;519.8476026999997;519.8632671000087;521.7466385000153;None;9;0;1.2881358999875374;521.7466385000153;None;;;;;;;;6;;;;;;523.2965775000048;None;None;None;[];523.2965775000048;None;['9'];[1.6902133999974467];523.2965775000048;None;;;S12078;2023_Mar_21_1755;VideoMask;2021.1.2;119.98363424735095;
2.0;f;012_o_f_s_a.jpg;sad;7.0;happy_139.1.wmv;happy;9.0;incongruent;130.0;150.0;162.31500468041804;s_h;;;;;0;40;40;40;;;;;;;526.304949900019;None;527.8629985000007;528.1881747000152;529.3214307000162;529.3380650000181;531.3130126000033;None;9;0;0.8497577999951318;531.3130126000033;None;;;;;;;;6;;;;;;532.862930000003;None;None;None;[];532.862930000003;None;['9'];[1.276231799973175];532.862930000003;None;;;S12078;2023_Mar_21_1755;VideoMask;2021.1.2;119.98363424735095;
0.0;f;030_o_f_h_a.jpg;happy;9.0;happy_24.1ns.avi;happy;9.0;congruent;120.0;150.0;168.36256624020774;h_h;;;;;0;41;41;41;;;;;;;535.8628930000123;None;537.4960903999745;537.8211149999988;538.9878314000089;539.0044250999927;542.2793325000093;None;None;0;;542.2793325000093;None;;;;;;;;5;;;;;;543.8292883000104;None;None;None;[];543.8292883000104;None;None;;543.8292883000104;None;;;S12078;2023_Mar_21_1755;VideoMask;2021.1.2;119.98363424735095;
2.0;f;012_o_f_h_a.jpg;happy;9.0;sad_113.1.wmv;sad;7.0;incongruent;120.0;160.0;177.44551734737394;h_s;;;;;0;42;42;42;;;;;;;546.8625430000247;None;548.5623414000147;548.8874953999766;550.0206070999848;550.0372425999958;552.0122999000014;None;7;0;0.8626473000040278;552.0122999000014;None;;;;;;;;4;;;;;;553.5622640000074;None;None;None;[];553.5622640000074;None;['7'];[1.7046812000335194];553.5622640000074;None;;;S12078;2023_Mar_21_1755;VideoMask;2021.1.2;119.98363424735095;
3.0;m;033_o_m_s_a.jpg;sad;7.0;sad_64.5ns.avi;sad;7.0;congruent;130.0;160.0;130.55717223801247;s_s;;;;;0;43;43;43;;;;;;;556.5623982999823;None;557.887198499986;558.2038037999882;559.3538438000251;559.3704964999924;565.9369207000127;None;7;0;0.8179101999849081;565.9369207000127;None;;;;;;;;3;;;;;;567.486837000004;None;None;None;[];567.486837000004;None;"['7', '7']";"[0.372145899978932, 0.6280034999945201]";567.486837000004;None;;;S12078;2023_Mar_21_1755;VideoMask;2021.1.2;119.98363424735095;
7.0;m;027_o_m_h_a.jpg;happy;9.0;sad_117.1.wmv;sad;7.0;incongruent;120.0;160.0;181.28665202824095;h_s;;;;;0;44;44;44;;;;;;;570.4954799999832;None;572.2115625999868;572.5367552000098;573.6783613999723;573.6950064999983;575.6615222999826;None;7;0;1.0295115999761038;575.6615222999826;None;;;;;;;;5;;;;;;577.2114885000046;None;None;None;[];577.2114885000046;None;None;;577.2114885000046;None;;;S12078;2023_Mar_21_1755;VideoMask;2021.1.2;119.98363424735095;
3.0;m;033_o_m_s_a.jpg;sad;7.0;happy_126.3.wmv;happy;9.0;incongruent;130.0;150.0;198.85252030535366;s_h;;;;;0;45;45;45;;;;;;;580.2448575000162;None;582.1196428000112;582.444783199986;583.5944431999815;583.6112971000257;585.5696303999866;None;9;0;0.4491674999590032;585.5696303999866;None;;;;;;;;5;;;;;;587.4196059000096;None;None;None;[];587.4196059000096;None;None;;587.4196059000096;None;;;S12078;2023_Mar_21_1755;VideoMask;2021.1.2;119.98363424735095;
3.0;m;033_o_m_h_a.jpg;happy;9.0;sad_136.1.wmv;sad;7.0;incongruent;120.0;160.0;176.97002883463455;h_s;;;;;0;46;46;46;;;;;;;590.4528415999957;None;592.1276275999844;592.4527352000005;593.5776171999751;593.5944012000109;595.5776667000027;None;7;0;0.7375411000102758;595.5776667000027;None;;;;;;;;3;;;;;;597.1275537000038;None;None;None;[];597.1275537000038;None;"['7', '7']";"[0.5073946000193246, 1.7952767999959178]";597.1275537000038;None;;;S12078;2023_Mar_21_1755;VideoMask;2021.1.2;119.98363424735095;
9.0;f;019_m_f_h_a.jpg;happy;9.0;happy_10.1ns.avi;happy;9.0;congruent;120.0;150.0;157.2463435658512;h_h;;;;;0;47;47;47;;;;;;;600.1360066999914;None;601.7024300000048;602.0274724999908;603.1774289999739;603.1940783999744;610.6021784999757;None;9;0;1.024682599992957;610.6021784999757;None;;;;;;;;6;;;;;;612.1521096000215;None;None;None;[];612.1521096000215;None;['9'];[0.722660299972631];612.1521096000215;None;;;S12078;2023_Mar_21_1755;VideoMask;2021.1.2;119.98363424735095;
2.0;f;012_o_f_h_a.jpg;happy;9.0;happy_2.2ns.avi;happy;9.0;congruent;120.0;150.0;206.34800317295262;h_h;;;;;0;48;48;48;;;;;;;615.1604506000294;None;617.1269753000233;617.4519741000258;618.6019594999962;618.6185604999773;630.7765152999782;None;9;0;0.4182994000148028;630.7765152999782;None;;;;;;;;6;;;;;;632.3265382000245;None;None;None;[];632.3265382000245;None;['9'];[1.2928152999957092];632.3265382000245;None;;;S12078;2023_Mar_21_1755;VideoMask;2021.1.2;119.98363424735095;
3.0;m;033_o_m_h_a.jpg;happy;9.0;happy_24.2ns.avi;happy;9.0;congruent;120.0;150.0;167.9423847659953;h_h;;;;;0;49;49;49;;;;;;;635.3263448000071;None;636.9512439999962;637.2763657000032;638.4346520000254;638.4512392000179;642.1261783000082;None;9;0;0.9245935000362806;642.1261783000082;None;;;;;;;;6;;;;;;643.676146599988;None;None;None;[];643.676146599988;None;['9'];[0.7586994000012055];643.676146599988;None;;;S12078;2023_Mar_21_1755;VideoMask;2021.1.2;119.98363424735095;
1.0;f;021_o_f_s_a.jpg;sad;7.0;happy_61.2ns.avi;happy;9.0;incongruent;130.0;150.0;210.94664004826666;s_h;;;;;0;50;50;50;;;;;;;646.6763904999825;None;648.6509848000132;648.9760130000068;650.1424301000079;650.1590938000008;654.6341401999816;None;9;0;0.5848076000111178;654.6341401999816;None;;;;;;;;6;;;;;;656.1840219000005;None;None;None;[];656.1840219000005;None;['9'];[1.13092060002964];656.1840219000005;None;;;S12078;2023_Mar_21_1755;VideoMask;2021.1.2;119.98363424735095;
4.0;m;004_o_m_s_a.jpg;sad;7.0;sad_2.4ns.avi;sad;7.0;congruent;130.0;160.0;153.02079367163634;s_s;;;;;0;51;51;51;;;;;;;659.1923793000169;None;660.6921245999984;661.0173112999764;662.1938763000071;662.2339112000191;670.1086163999862;None;7;0;0.8142702999757603;670.1086163999862;None;;;;;;;;2;;;;;;671.658534599992;None;None;None;[];671.658534599992;None;"['7', '7', '7']";"[0.40843330003554, 1.1523662999970838, 1.2722349000396207]";671.658534599992;None;;;S12078;2023_Mar_21_1755;VideoMask;2021.1.2;119.98363424735095;
8.0;m;008_y_m_h_a.jpg;happy;9.0;happy_1.2ns.avi;happy;9.0;congruent;120.0;150.0;210.98946429383824;h_h;;;;;0;52;52;52;;;;;;;674.6670371000073;None;676.7084192999755;677.0333928000182;678.200038400013;678.2172372000059;690.949596600025;None;None;0;;690.949596600025;None;;;;;;;;5;;;;;;692.4994951999979;None;None;None;[];692.4994951999979;None;None;;692.4994951999979;None;;;S12078;2023_Mar_21_1755;VideoMask;2021.1.2;119.98363424735095;
2.0;f;012_o_f_s_a.jpg;sad;7.0;happy_52.2ns.avi;happy;9.0;incongruent;130.0;150.0;172.57202848318138;s_h;;;;;0;53;53;53;;;;;;;695.524537499994;None;697.1827701000147;697.5078237000271;698.6409451999934;698.6576038000057;702.1921033000108;None;9;0;0.8986639999784529;702.1921033000108;None;;;;;;;;5;;;;;;703.7658522999845;None;None;None;[];703.7658522999845;None;['9'];[1.453088599955663];703.7658522999845;None;;;S12078;2023_Mar_21_1755;VideoMask;2021.1.2;119.98363424735095;
9.0;f;019_m_f_s_a.jpg;sad;7.0;happy_61.1ns.avi;happy;9.0;incongruent;130.0;150.0;181.3003220572762;s_h;;;;;0;54;54;54;;;;;;;706.7743159999955;None;708.5573723000125;708.8736808000249;710.0490050999797;710.0656794999959;717.3988460000255;None;9;0;1.092004399979487;717.3988460000255;None;;;;;;;;6;;;;;;718.9487256000284;None;None;None;[];718.9487256000284;None;['9'];[1.5822996000060812];718.9487256000284;None;;;S12078;2023_Mar_21_1755;VideoMask;2021.1.2;119.98363424735095;
0.0;f;030_o_f_h_a.jpg;happy;9.0;sad_133.1.wmv;sad;7.0;incongruent;120.0;160.0;198.86251500867985;h_s;;;;;0;55;55;55;;;;;;;721.9572998000076;None;723.8151098000235;724.1401896000025;725.2652999000275;725.2817406000104;727.2651421999908;None;7;0;0.8739116999786347;727.2651421999908;None;;;;;;;;3;;;;;;728.8150734999799;None;None;None;[];728.8150734999799;None;"['7', '7']";"[1.0038907999987714, 2.923957800026983]";728.8150734999799;None;;;S12078;2023_Mar_21_1755;VideoMask;2021.1.2;119.98363424735095;
0.0;f;040_y_f_h_a.jpg;happy;9.0;sad_128.2.wmv;sad;7.0;incongruent;120.0;160.0;206.10005857915363;h_s;;;;;0;56;56;56;;;;;;;731.8233528999845;None;733.7648592999903;734.0899495999911;735.231433900015;735.2480474999757;737.2149505999987;None;7;0;0.7078331999946386;737.2149505999987;None;;;;;;;;3;;;;;;738.773091799987;None;None;None;[];738.773091799987;None;"['7', '7']";"[0.6699909999733791, 1.2378080999478698]";738.773091799987;None;;;S12078;2023_Mar_21_1755;VideoMask;2021.1.2;119.98363424735095;
1.0;f;021_o_f_s_a.jpg;sad;7.0;sad_9.5ns.avi;sad;7.0;congruent;130.0;160.0;206.16642757875042;s_s;;;;;0;57;57;57;;;;;;;741.781390100019;None;743.706119999988;744.0228970000171;745.2310328999883;745.2478088000207;750.8809699999983;None;7;0;0.7299443000229076;750.8809699999983;None;;;;;;;;3;;;;;;752.4310396999936;None;None;None;[];752.4310396999936;None;"['7', '7', '7']";"[0.6679415000253357, 0.9959521000273526, 1.5078602000139654]";752.4310396999936;None;;;S12078;2023_Mar_21_1755;VideoMask;2021.1.2;119.98363424735095;
1.0;f;021_o_f_h_a.jpg;happy;9.0;happy_12.1ns.avi;happy;9.0;congruent;120.0;150.0;132.59080005900228;h_h;;;;;0;58;58;58;;;;;;;755.4310629999964;None;756.7975669999723;757.1225532999961;758.2725510000018;758.2891587999766;765.8639166000066;None;9;0;0.6670119999907911;765.8639166000066;None;;;;;;;;6;;;;;;767.4139445999754;None;None;None;[];767.4139445999754;None;['9'];[0.7491641999804415];767.4139445999754;None;;;S12078;2023_Mar_21_1755;VideoMask;2021.1.2;119.98363424735095;
3.0;m;013_y_m_s_a.jpg;sad;7.0;happy_56.2ns.avi;happy;9.0;incongruent;130.0;150.0;163.39234110935848;s_h;;;;;0;59;59;59;;;;;;;770.4141367999837;None;772.0052703000256;772.3303945999942;773.4885280000162;773.5053142000106;778.4884810000076;None;None;0;;778.4884810000076;None;;;;;;;;6;;;;;;780.0383569999831;None;None;None;[];780.0383569999831;None;"['9', '9', '7']";"[0.2609260000172071, 0.9486089000129141, 1.5406280999886803]";780.0383569999831;None;;;S12078;2023_Mar_21_1755;VideoMask;2021.1.2;119.98363424735095;
;;;;;;;;;;;;;;;;;;;;;;;;;;;;;;;;;;;;;;;;;;;;;;;;;;;;;;;;;;;;;;;;783.0467256000265;None;;;;;;
