primePerson;primeGender;prime;primeEmotion;corrAnsPrime;target;targetEmotion;corrAnsTar;Cond;ID_Primer;ID_Target;JitterTime;Condition;example.thisRepN;example.thisTrialN;example.thisN;example.thisIndex;study.thisRepN;study.thisTrialN;study.thisN;study.thisIndex;MR_trigger_time;MR_trigger_number;text_intro.started;text_intro.stopped;text_probe.started;text_probe.stopped;polygon_ISI.started;polygon_ISI.stopped;polygon.started;polygon.stopped;primerImage.started;primerImage.stopped;response.started;response.stopped;key_resp.keys;key_resp.corr;key_resp.rt;key_resp.started;key_resp.stopped;slider_Text.started;slider_Text.stopped;slider_ex.response;slider_ex.rt;slider_ex.history;slider_ex.started;slider_ex.stopped;Rating;slider_resp_response.keys;slider_resp_response.rt;slider_resp_response.started;slider_resp_response.stopped;text_start.started;text_start.stopped;text_slider.started;text_slider.stopped;slider_stud.response;slider_stud.rt;slider_stud.history;slider_stud.started;slider_stud.stopped;slider_resp_study.keys;slider_resp_study.rt;slider_resp_study.started;slider_resp_study.stopped;text_ende.started;text_ende.stopped;participant;date;expName;psychopyVersion;frameRate;
1111;m;1111_m_m_h_a.jpg;happy;9;example_30.4ns.avi;neutral;7;incongruent;120.0;170.0;189.5874364012288;;0;0;0;0;;;;;29.866117399884388;1;29.94421650003642;31.944456199882552;31.944456199882552;None;33.961673399899155;None;36.2110005998984;36.527536399895325;37.677455599885434;37.69416119996458;42.00247589987703;None;9;0;1.1210256000049412;42.00247589987703;None;43.56069680000655;None;None;None;[];43.56069680000655;None;6;['9'];[1.387151600094512];43.56069680000655;None;;;;;;;;;;;;;;;;S11012;2021_Oct_26_1135;VideoMask;2021.1.2;119.97658028146506;
1113;f;1113_y_f_s_a.jpg;sad;7;example_30.3ns.avi;neutral;7;incongruent;130.0;170.0;229.02432995836998;;0;1;1;1;;;;;;;;;;;46.552452999865636;None;48.66877139988355;48.985431799897924;50.13544119987637;50.15214190003462;52.118803000077605;None;None;0;;52.118803000077605;None;53.66879029991105;None;None;None;[];53.66879029991105;None;6;['9'];[2.158551099942997];53.66879029991105;None;;;;;;;;;;;;;;;;S11012;2021_Oct_26_1135;VideoMask;2021.1.2;119.97658028146506;
9.0;f;019_m_f_h_a.jpg;happy;9.0;sad_115.1.wmv;sad;7.0;incongruent;120.0;160.0;128.09063432376465;h_s;;;;;0;0;0;0;;;;;;;57.701914499979466;None;58.98540690005757;59.301769099896774;60.43503269995563;60.4518412000034;62.43517900002189;None;None;0;;62.43517900002189;None;;;;;;;;2;;;;;56.66874279989861;None;63.98486880003475;None;None;None;[];63.98486880003475;None;"['7', '7', '7']";"[0.30657580005936325, 0.5944644999690354, 1.034613500116393]";63.98486880003475;None;;;S11012;2021_Oct_26_1135;VideoMask;2021.1.2;119.97658028146506;
3.0;m;033_o_m_s_a.jpg;sad;7.0;sad_94.2ns.avi;sad;7.0;congruent;130.0;160.0;182.29120173647655;s_s;;;;;0;1;1;1;;;;;;;66.9850196999032;None;68.69306329987012;69.00977159989998;70.20154700009152;70.21808969997801;72.83477590000257;None;None;0;;72.83477590000257;None;;;;;;;;1;;;;;;;74.38472199998796;None;None;None;[];74.38472199998796;None;"['7', '7', '7', '7']";"[0.20277790003456175, 0.4185198999475688, 0.7626585999969393, 1.6828769999556243]";74.38472199998796;None;;;S11012;2021_Oct_26_1135;VideoMask;2021.1.2;119.97658028146506;
8.0;m;008_y_m_h_a.jpg;happy;9.0;happy_26.1ns.avi;happy;9.0;congruent;120.0;150.0;155.9437854594882;h_h;;;;;0;2;2;2;;;;;;;77.39319880004041;None;78.89276629989035;79.20959539990872;80.4095890999306;80.42608379991725;82.33466499997303;None;None;0;;82.33466499997303;None;;;;;;;;7;;;;;;;83.89285940001719;None;None;None;[];83.89285940001719;None;"['9', '9']";"[0.7827407999429852, 2.142527800053358]";83.89285940001719;None;;;S11012;2021_Oct_26_1135;VideoMask;2021.1.2;119.97658028146506;
0.0;f;040_y_f_h_a.jpg;happy;9.0;sad_138.1.wmv;sad;7.0;incongruent;120.0;160.0;133.99071306426532;h_s;;;;;0;3;3;3;;;;;;;86.89269679994322;None;88.20932399993762;88.52606890001334;89.65941579989158;89.67595469998196;91.65988839999773;None;None;0;;91.65988839999773;None;;;;;;;;5;;;;;;;93.20926010003313;None;None;None;[];93.20926010003313;None;None;;93.20926010003313;None;;;S11012;2021_Oct_26_1135;VideoMask;2021.1.2;119.97658028146506;
8.0;f;028_y_f_s_a.jpg;sad;7.0;sad_64.2ns.avi;sad;7.0;congruent;130.0;160.0;229.88540597086478;s_s;;;;;0;4;4;4;;;;;;;96.22557180002332;None;98.38383639999665;98.70078140008263;99.8839302000124;99.90062800003216;110.83374869986437;None;None;0;;110.83374869986437;None;;;;;;;;3;;;;;;;112.38340390007943;None;None;None;[];112.38340390007943;None;"['7', '7']";"[0.35612999997101724, 0.7721488999668509]";112.38340390007943;None;;;S11012;2021_Oct_26_1135;VideoMask;2021.1.2;119.97658028146506;
7.0;m;027_o_m_s_a.jpg;sad;7.0;sad_10.4ns.avi;sad;7.0;congruent;130.0;160.0;185.20129417468752;s_s;;;;;0;5;5;5;;;;;;;115.38350520003587;None;117.13329340005293;117.44997359998524;118.59218170004897;118.60845549986698;121.74998799990863;None;None;0;;121.74998799990863;None;;;;;;;;2;;;;;;;123.29976610001177;None;None;None;[];123.29976610001177;None;"['7', '7', '7', '7', '7']";"[0.35974890016950667, 0.6395902000367641, 0.9437091001309454, 1.335664400132373, 1.71985900006257]";123.29976610001177;None;;;S11012;2021_Oct_26_1135;VideoMask;2021.1.2;119.97658028146506;
2.0;f;012_o_f_s_a.jpg;sad;7.0;sad_7.5ns.avi;sad;7.0;congruent;130.0;160.0;220.27842655424388;s_s;;;;;0;6;6;6;;;;;;;126.30834229988977;None;128.34135919995606;128.65826230007224;129.8246225998737;129.84140649996698;132.58320420002565;None;None;0;;132.58320420002565;None;;;;;;;;2;;;;;;;134.36619720002636;None;None;None;[];134.36619720002636;None;"['7', '7', '7', '7']";"[0.49312480003573, 0.812972400104627, 1.2293865999672562, 1.6211622999981046]";134.36619720002636;None;;;S11012;2021_Oct_26_1135;VideoMask;2021.1.2;119.97658028146506;
2.0;f;012_o_f_h_a.jpg;happy;9.0;happy_27.1ns.avi;happy;9.0;congruent;120.0;150.0;146.44967055810616;h_h;;;;;0;7;7;7;;;;;;;137.36618410004303;None;138.78271150006913;139.099329699995;140.29995250003412;140.3244704999961;142.72440659999847;None;None;0;;142.72440659999847;None;;;;;;;;7;;;;;;;144.26591509999707;None;None;None;[];144.26591509999707;None;"['9', '9']";"[1.257508099777624, 2.113665899960324]";144.26591509999707;None;;;S11012;2021_Oct_26_1135;VideoMask;2021.1.2;119.97658028146506;
8.0;f;028_y_f_h_a.jpg;happy;9.0;sad_119.1.wmv;sad;7.0;incongruent;120.0;160.0;148.71526953572538;h_s;;;;;0;8;8;8;;;;;;;147.27439379994757;None;148.7240490000695;149.04075949988328;150.1741122000385;150.19082959997468;152.2406701000873;None;None;0;;152.2406701000873;None;;;;;;;;1;;;;;;;153.79074389999732;None;None;None;[];153.79074389999732;None;"['7', '7', '7', '7', '7']";"[0.3087851000018418, 0.5484995001461357, 0.8288172001484782, 1.2289243000559509, 1.6129088001325727]";153.79074389999732;None;;;S11012;2021_Oct_26_1135;VideoMask;2021.1.2;119.97658028146506;
6.0;m;016_y_m_s_a.jpg;sad;7.0;happy_60.4ns.avi;happy;9.0;incongruent;130.0;150.0;126.02367393611817;s_h;;;;;0;9;9;9;;;;;;;156.79072490008548;None;158.06544220005162;158.38273159996606;159.5158996998798;159.54063130007125;165.3069515998941;None;None;0;;165.3069515998941;None;;;;;;;;5;;;;;;;166.8572066000197;None;None;None;[];166.8572066000197;None;None;;166.8572066000197;None;;;S11012;2021_Oct_26_1135;VideoMask;2021.1.2;119.97658028146506;
9.0;f;019_m_f_s_a.jpg;sad;7.0;sad_8.4ns.avi;sad;7.0;congruent;130.0;160.0;171.6633093155257;s_s;;;;;0;10;10;10;;;;;;;169.88189819990657;None;171.54831129987724;171.86501799989492;173.0484438999556;173.06515150004998;181.1316657999996;None;None;0;;181.1316657999996;None;;;;;;;;3;;;;;;;182.6731884998735;None;None;None;[];182.6731884998735;None;"['7', '7']";"[0.3223734002094716, 0.8822288000956178]";182.6731884998735;None;;;S11012;2021_Oct_26_1135;VideoMask;2021.1.2;119.97658028146506;
4.0;m;004_o_m_h_a.jpg;happy;9.0;happy_1.1ns.avi;happy;9.0;congruent;120.0;150.0;203.50057144619865;h_h;;;;;0;11;11;11;;;;;;;185.68990650004707;None;187.6644788000267;187.98138449992985;189.1230003000237;189.13970989990048;203.59763049986213;None;None;0;;203.59763049986213;None;;;;;;;;5;;;;;;;205.14737770007923;None;None;None;[];205.14737770007923;None;None;;205.14737770007923;None;;;S11012;2021_Oct_26_1135;VideoMask;2021.1.2;119.97658028146506;
7.0;m;027_o_m_h_a.jpg;happy;9.0;happy_20.1ns.avi;happy;9.0;congruent;120.0;150.0;152.91127178874285;h_h;;;;;0;12;12;12;;;;;;;208.17221640003845;None;209.6638861000538;209.98054979997687;211.11405700002797;211.130672799889;214.1307210000232;None;None;0;;214.1307210000232;None;;;;;;;;7;;;;;;;215.68041289993562;None;None;None;[];215.68041289993562;None;"['9', '9']";"[0.5389549001120031, 1.0029770000837743]";215.68041289993562;None;;;S11012;2021_Oct_26_1135;VideoMask;2021.1.2;119.97658028146506;
0.0;f;040_y_f_s_a.jpg;sad;7.0;sad_94.3ns.avi;sad;7.0;congruent;130.0;160.0;155.27414203894395;s_s;;;;;0;13;13;13;;;;;;;218.6802995998878;None;220.17189519992098;220.48871469986625;221.72175229992718;221.73844749992713;224.24707480007783;None;None;0;;224.24707480007783;None;;;;;;;;3;;;;;;;225.79695250000805;None;None;None;[];225.79695250000805;None;"['7', '7', '7']";"[0.6945562001783401, 1.1184718001168221, 1.5506633999757469]";225.79695250000805;None;;;S11012;2021_Oct_26_1135;VideoMask;2021.1.2;119.97658028146506;
0.0;f;030_o_f_s_a.jpg;sad;7.0;sad_68.1ns.avi;sad;7.0;congruent;130.0;160.0;158.9411396037211;s_s;;;;;0;14;14;14;;;;;;;228.796960900072;None;230.33827030006796;230.65502639999613;231.82999700005166;231.84667610004544;239.21317499992438;None;None;0;;239.21317499992438;None;;;;;;;;4;;;;;;;240.762925399933;None;None;None;[];240.762925399933;None;"['7', '7']";"[0.7446310999803245, 1.2886834000237286]";240.762925399933;None;;;S11012;2021_Oct_26_1135;VideoMask;2021.1.2;119.97658028146506;
0.0;f;030_o_f_h_a.jpg;happy;9.0;sad_127.1.wmv;sad;7.0;incongruent;120.0;160.0;180.59976631384873;h_s;;;;;0;15;15;15;;;;;;;243.77153309993446;None;245.50444999989122;245.82121369987726;246.94616069993936;246.96368300006725;248.95450160000473;None;None;0;;248.95450160000473;None;;;;;;;;4;;;;;;;250.50428280001506;None;None;None;[];250.50428280001506;None;['7'];[1.3869631001725793];250.50428280001506;None;;;S11012;2021_Oct_26_1135;VideoMask;2021.1.2;119.97658028146506;
8.0;m;008_y_m_s_a.jpg;sad;7.0;happy_133.3.wmv;happy;9.0;incongruent;130.0;150.0;152.577966552593;s_h;;;;;0;16;16;16;;;;;;;253.50457979994826;None;254.98747080005705;255.30429999995977;256.43765800003894;256.45429720007814;258.4375741998665;None;None;0;;258.4375741998665;None;;;;;;;;5;;;;;;;259.9876077999361;None;None;None;[];259.9876077999361;None;None;;259.9876077999361;None;;;S11012;2021_Oct_26_1135;VideoMask;2021.1.2;119.97658028146506;
3.0;m;033_o_m_h_a.jpg;happy;9.0;sad_128.1.wmv;sad;7.0;incongruent;120.0;160.0;171.0492454518585;h_s;;;;;0;17;17;17;;;;;;;263.0039325999096;None;264.64558700006455;264.9622537000105;266.1039175998885;266.12073499988765;268.09572730003856;None;None;0;;268.09572730003856;None;;;;;;;;2;;;;;;;269.64566310006194;None;None;None;[];269.64566310006194;None;"['7', '7', '7', '7']";"[0.46196089987643063, 0.8459210000000894, 1.2857158000115305, 1.7657876999583095]";269.64566310006194;None;;;S11012;2021_Oct_26_1135;VideoMask;2021.1.2;119.97658028146506;
1.0;f;021_o_f_h_a.jpg;happy;9.0;sad_116.1.wmv;sad;7.0;incongruent;120.0;160.0;184.06847610053055;h_s;;;;;0;18;18;18;;;;;;;272.64562259986997;None;274.39540529996157;274.71198859997094;275.84587579988874;275.8703733999282;277.8453830999788;None;None;0;;277.8453830999788;None;;;;;;;;2;;;;;;;279.3951276000589;None;None;None;[];279.3951276000589;None;"['7', '7', '7']";"[0.320365599822253, 0.8081624999176711, 1.288394299801439]";279.3951276000589;None;;;S11012;2021_Oct_26_1135;VideoMask;2021.1.2;119.97658028146506;
4.0;m;004_o_m_s_a.jpg;sad;7.0;happy_28.1ns.avi;happy;9.0;incongruent;130.0;150.0;157.40741103039684;s_h;;;;;0;19;19;19;;;;;;;282.39526199991815;None;283.9200420000125;284.23666199995205;285.51148699992336;285.528275599936;289.76171289989725;None;None;0;;289.76171289989725;None;;;;;;;;8;;;;;;;291.31141550000757;None;None;None;[];291.31141550000757;None;"['9', '9', '9']";"[0.3801585000474006, 0.8118350000586361, 1.3161877999082208]";291.31141550000757;None;;;S11012;2021_Oct_26_1135;VideoMask;2021.1.2;119.97658028146506;
8.0;f;028_y_f_s_a.jpg;sad;7.0;happy_122.3.wmv;happy;9.0;incongruent;130.0;150.0;171.8670540936116;s_h;;;;;0;20;20;20;;;;;;;294.32000409998;None;295.9696627999656;296.2863268000074;297.4198008000385;297.43632910004817;299.4196130000055;None;None;0;;299.4196130000055;None;;;;;;;;9;;;;;;;300.96963519998826;None;None;None;[];300.96963519998826;None;"['9', '9', '9', '9']";"[0.5059509000275284, 0.945811300072819, 1.3298170000780374, 1.9860891001299024]";300.96963519998826;None;;;S11012;2021_Oct_26_1135;VideoMask;2021.1.2;119.97658028146506;
8.0;m;008_y_m_s_a.jpg;sad;7.0;sad_6.5ns.avi;sad;7.0;congruent;130.0;160.0;170.39333839271438;s_s;;;;;0;21;21;21;;;;;;;303.97792429989204;None;305.6110219999682;305.9277697999496;307.0947934000287;307.1195425998885;312.0776575000491;None;None;0;;312.0776575000491;None;;;;;;;;2;;;;;;;313.62747330009006;None;None;None;[];313.62747330009006;None;"['7', '7', '7', '7']";"[0.4161690000910312, 0.8799772001802921, 1.3601686002220958, 1.8079490000382066]";313.62747330009006;None;;;S11012;2021_Oct_26_1135;VideoMask;2021.1.2;119.97658028146506;
8.0;f;028_y_f_h_a.jpg;happy;9.0;happy_23.1ns.avi;happy;9.0;congruent;120.0;150.0;225.70986890587952;h_h;;;;;0;22;22;22;;;;;;;316.62767349998467;None;318.7107736999169;319.02742639998905;320.17721079988405;320.1940931000281;324.7361914999783;None;None;0;;324.7361914999783;None;;;;;;;;8;;;;;;;326.285350299906;None;None;None;[];326.285350299906;None;"['9', '9', '9', '9']";"[0.7020458001643419, 1.1902165999636054, 1.6939260000362992, 2.214105600025505]";326.285350299906;None;;;S11012;2021_Oct_26_1135;VideoMask;2021.1.2;119.97658028146506;
8.0;m;008_y_m_h_a.jpg;happy;9.0;sad_111.1.wmv;sad;7.0;incongruent;120.0;160.0;152.63076835312847;h_s;;;;;0;23;23;23;;;;;;;329.2939130999148;None;330.768609700026;331.0852904000785;332.226971300086;332.2437257000711;334.2270794999786;None;None;0;;334.2270794999786;None;;;;;;;;3;;;;;;;335.7768005998805;None;None;None;[];335.7768005998805;None;"['7', '7']";"[0.6032175999134779, 0.9707752000540495]";335.7768005998805;None;;;S11012;2021_Oct_26_1135;VideoMask;2021.1.2;119.97658028146506;
0.0;f;040_y_f_s_a.jpg;sad;7.0;sad_67.2ns.avi;sad;7.0;congruent;130.0;160.0;220.9892697323079;s_s;;;;;0;24;24;24;;;;;;;338.7853677999228;None;340.85179780004546;341.1684236000292;342.33509270008653;342.3517215999309;351.5265202000737;None;None;0;;351.5265202000737;None;;;;;;;;1;;;;;;;353.0762195000425;None;None;None;[];353.0762195000425;None;"['7', '7', '7', '7']";"[0.4392910001333803, 0.7750665999483317, 1.0792005001567304, 1.7994224999565631]";353.0762195000425;None;;;S11012;2021_Oct_26_1135;VideoMask;2021.1.2;119.97658028146506;
8.0;m;008_y_m_s_a.jpg;sad;7.0;happy_29.1ns.avi;happy;9.0;incongruent;130.0;150.0;120.0316142834122;s_h;;;;;0;25;25;25;;;;;;;356.07635329989716;None;357.2844765998889;357.60178899997845;358.7678898999002;358.78456649999134;361.42628700006753;None;None;0;;361.42628700006753;None;;;;;;;;6;;;;;;;362.9759810999967;None;None;None;[];362.9759810999967;None;['9'];[1.2675408001523465];362.9759810999967;None;;;S11012;2021_Oct_26_1135;VideoMask;2021.1.2;119.97658028146506;
6.0;m;016_y_m_s_a.jpg;sad;7.0;sad_8.3ns.avi;sad;7.0;congruent;130.0;160.0;152.85371098242734;s_s;;;;;0;26;26;26;;;;;;;365.99319249996915;None;367.48416469991207;367.80089369998313;368.9758639000356;368.99269129987806;376.6922881999053;None;None;0;;376.6922881999053;None;;;;;;;;4;;;;;;;378.242174499901;None;None;None;[];378.242174499901;None;"['7', '7']";"[0.5772649000864476, 1.1211469999980181]";378.242174499901;None;;;S11012;2021_Oct_26_1135;VideoMask;2021.1.2;119.97658028146506;
6.0;m;016_y_m_h_a.jpg;happy;9.0;sad_114.1.wmv;sad;7.0;incongruent;120.0;160.0;136.20550699298644;h_s;;;;;0;27;27;27;;;;;;;381.2421969999559;None;382.5922445000615;382.90925389993936;384.0338628999889;384.05048620002344;386.0422240998596;None;None;0;;386.0422240998596;None;;;;;;;;1;;;;;;;387.591879399959;None;None;None;[];387.591879399959;None;"['7', '7', '7', '7', '7']";"[0.7877732999622822, 1.0354915999341756, 1.3476099998224527, 1.6839105999097228, 2.4997807999607176]";387.591879399959;None;;;S11012;2021_Oct_26_1135;VideoMask;2021.1.2;119.97658028146506;
7.0;m;027_o_m_s_a.jpg;sad;7.0;happy_117.3.wmv;happy;9.0;incongruent;130.0;150.0;215.61964028550614;s_h;;;;;0;28;28;28;;;;;;;390.5918834998738;None;392.5917771998793;392.9085506000556;394.03358869999647;394.0501019998919;396.0419024999719;None;None;0;;396.0419024999719;None;;;;;;;;6;;;;;;;397.5916041000746;None;None;None;[];397.5916041000746;None;['9'];[1.9399421999696642];397.5916041000746;None;;;S11012;2021_Oct_26_1135;VideoMask;2021.1.2;119.97658028146506;
6.0;m;016_y_m_h_a.jpg;happy;9.0;happy_9.2ns.avi;happy;9.0;congruent;120.0;150.0;130.52042428082717;h_h;;;;;0;29;29;29;;;;;;;400.5915959998965;None;401.89149289997295;402.2081758000422;403.3666550000198;403.38329260004684;409.26649189996533;None;None;0;;409.26649189996533;None;;;;;;;;7;;;;;;;410.9746397000272;None;None;None;[];410.9746397000272;None;"['9', '9', '9', '9']";"[0.67678780015558, 1.0289392999839038, 1.3568850001320243, 1.6848403001204133]";410.9746397000272;None;;;S11012;2021_Oct_26_1135;VideoMask;2021.1.2;119.97658028146506;
0.0;f;040_y_f_s_a.jpg;sad;7.0;happy_127.3.wmv;happy;9.0;incongruent;130.0;150.0;131.7195455720239;s_h;;;;;0;30;30;30;;;;;;;413.97463750001043;None;415.27452789992094;415.5911292999517;416.7162307999097;416.7328341000248;418.7912075999193;None;None;0;;418.7912075999193;None;;;;;;;;8;;;;;;;420.3411447999533;None;None;None;[];420.3411447999533;None;"['9', '9', '9', '9']";"[0.11842949991114438, 0.5904937000013888, 0.8385145999491215, 1.2303863000124693]";420.3411447999533;None;;;S11012;2021_Oct_26_1135;VideoMask;2021.1.2;119.97658028146506;
0.0;f;030_o_f_s_a.jpg;sad;7.0;happy_125.3.wmv;happy;9.0;incongruent;130.0;150.0;220.51454909128134;s_h;;;;;0;31;31;31;;;;;;;423.3411626999732;None;425.407476299908;425.7243591998704;426.8576058000326;426.87425090000033;428.85748960007913;None;None;0;;428.85748960007913;None;;;;;;;;6;;;;;;;430.4078730000183;None;None;None;[];430.4078730000183;None;['9'];[2.707363300025463];430.4078730000183;None;;;S11012;2021_Oct_26_1135;VideoMask;2021.1.2;119.97658028146506;
0.0;f;030_o_f_s_a.jpg;sad;7.0;sad_64.3ns.avi;sad;7.0;congruent;130.0;160.0;165.78667874766072;s_s;;;;;0;32;32;32;;;;;;;433.4073802998755;None;435.00719809997827;435.3238482000306;436.4739083000459;436.4906001999043;441.4742008000612;None;None;0;;441.4742008000612;None;;;;;;;;3;;;;;;;443.07375549990684;None;None;None;[];443.07375549990684;None;"['7', '7', '7']";"[0.5379817001521587, 0.9858511001802981, 1.3778454000130296]";443.07375549990684;None;;;S11012;2021_Oct_26_1135;VideoMask;2021.1.2;119.97658028146506;
3.0;m;013_y_m_s_a.jpg;sad;7.0;sad_7.7ns.avi;sad;7.0;congruent;130.0;160.0;196.24182255763262;s_s;;;;;0;33;33;33;;;;;;;446.0738466999028;None;447.92347769998014;448.24025729997084;449.4399735000916;449.4568143999204;455.37336650001816;None;None;0;;455.37336650001816;None;;;;;;;;5;;;;;;;456.9233873998746;None;None;None;[];456.9233873998746;None;None;;456.9233873998746;None;;;S11012;2021_Oct_26_1135;VideoMask;2021.1.2;119.97658028146506;
3.0;m;013_y_m_h_a.jpg;happy;9.0;happy_9.1ns.avi;happy;9.0;congruent;120.0;150.0;165.1890303600433;h_h;;;;;0;34;34;34;;;;;;;459.94823309988715;None;461.53971849987283;461.85665769991465;463.07316479994915;463.09020660002716;466.21539780008607;None;None;0;;466.21539780008607;None;;;;;;;;7;;;;;;;467.7730026000645;None;None;None;[];467.7730026000645;None;"['9', '9']";"[0.9426110999193043, 1.8624696999322623]";467.7730026000645;None;;;S11012;2021_Oct_26_1135;VideoMask;2021.1.2;119.97658028146506;
4.0;m;004_o_m_h_a.jpg;happy;9.0;sad_95.1ns.avi;sad;7.0;incongruent;120.0;160.0;152.68270002069931;h_s;;;;;0;35;35;35;;;;;;;470.78142579994164;None;472.28946019988507;472.60648899991065;473.7895559000317;473.8061609000433;482.53111499990337;None;None;0;;482.53111499990337;None;;;;;;;;1;;;;;;;484.08073360007256;None;None;None;[];484.08073360007256;None;"['7', '7', '7', '7', '7']";"[0.466729799984023, 0.8745275000110269, 1.354885899927467, 2.0188742000609636, 2.4747049999423325]";484.08073360007256;None;;;S11012;2021_Oct_26_1135;VideoMask;2021.1.2;119.97658028146506;
3.0;m;013_y_m_h_a.jpg;happy;9.0;sad_113.2.wmv;sad;7.0;incongruent;120.0;160.0;217.4973891947951;h_s;;;;;0;36;36;36;;;;;;;487.1063540999312;None;489.1472276998684;489.4640239998698;490.5890798999462;490.60559540009126;492.59784010006115;None;None;0;;492.59784010006115;None;;;;;;;;4;;;;;;;494.14774270006455;None;None;None;[];494.14774270006455;None;['7'];[2.8319325000047684];494.14774270006455;None;;;S11012;2021_Oct_26_1135;VideoMask;2021.1.2;119.97658028146506;
4.0;m;004_o_m_h_a.jpg;happy;9.0;happy_25.1ns.avi;happy;9.0;congruent;120.0;150.0;216.63044503818386;h_h;;;;;0;37;37;37;;;;;;;497.14722959999926;None;499.1552458999213;499.4720280999318;500.6220601000823;500.6387008000165;504.2970743998885;None;None;0;;504.2970743998885;None;;;;;;;;6;;;;;;;505.8550271000713;None;None;None;[];505.8550271000713;None;['9'];[2.188715999945998];505.8550271000713;None;;;S11012;2021_Oct_26_1135;VideoMask;2021.1.2;119.97658028146506;
4.0;m;004_o_m_s_a.jpg;sad;7.0;happy_131.2.wmv;happy;9.0;incongruent;130.0;150.0;181.38407540847405;s_h;;;;;0;38;38;38;;;;;;;508.86353179998696;None;510.5882681000512;510.9050568998791;512.054995500017;512.0717309999745;514.0384521998931;None;None;0;;514.0384521998931;None;;;;;;;;6;;;;;;;515.5881038000807;None;None;None;[];515.5881038000807;None;['9'];[1.2636142999399453];515.5881038000807;None;;;S11012;2021_Oct_26_1135;VideoMask;2021.1.2;119.97658028146506;
0.0;f;040_y_f_h_a.jpg;happy;9.0;happy_24.3ns.avi;happy;9.0;congruent;120.0;150.0;213.25460698950434;h_h;;;;;0;39;39;39;;;;;;;518.5881977998652;None;520.5545355000068;520.8713509000372;522.0046810999047;522.0213363999501;523.9302217999939;None;None;0;;523.9302217999939;None;;;;;;;;7;;;;;;;525.4796140999533;None;None;None;[];525.4796140999533;None;"['9', '9']";"[0.8998507000505924, 1.6200616001151502]";525.4796140999533;None;;;S11012;2021_Oct_26_1135;VideoMask;2021.1.2;119.97658028146506;
2.0;f;012_o_f_s_a.jpg;sad;7.0;happy_139.1.wmv;happy;9.0;incongruent;130.0;150.0;162.31500468041804;s_h;;;;;0;40;40;40;;;;;;;528.4880935999099;None;530.0543207998853;530.3713281999808;531.504987299908;531.5298552999739;533.5043615999166;None;None;0;;533.5043615999166;None;;;;;;;;6;;;;;;;535.0548970000818;None;None;None;[];535.0548970000818;None;['9'];[1.1247060999739915];535.0548970000818;None;;;S11012;2021_Oct_26_1135;VideoMask;2021.1.2;119.97658028146506;
0.0;f;030_o_f_h_a.jpg;happy;9.0;happy_24.1ns.avi;happy;9.0;congruent;120.0;150.0;168.36256624020774;h_h;;;;;0;41;41;41;;;;;;;538.0625791999046;None;539.6708481998648;539.9874640000053;541.1208186000586;541.1374973999336;544.445876999991;None;None;0;;544.445876999991;None;;;;;;;;7;;;;;;;545.9959585999604;None;None;None;[];545.9959585999604;None;"['9', '9', '9']";"[0.647522300016135, 1.5357012001331896, 1.9594650000799447]";545.9959585999604;None;;;S11012;2021_Oct_26_1135;VideoMask;2021.1.2;119.97658028146506;
2.0;f;012_o_f_h_a.jpg;happy;9.0;sad_113.1.wmv;sad;7.0;incongruent;120.0;160.0;177.44551734737394;h_s;;;;;0;42;42;42;;;;;;;548.9958170000464;None;550.687099599978;551.0038153999485;552.1369815999642;552.1537796999328;554.1371534999926;None;None;0;;554.1371534999926;None;;;;;;;;2;;;;;;;555.6870792000555;None;None;None;[];555.6870792000555;None;"['7', '7', '7']";"[0.66850890009664, 1.0285475000273436, 1.9726211000233889]";555.6870792000555;None;;;S11012;2021_Oct_26_1135;VideoMask;2021.1.2;119.97658028146506;
3.0;m;033_o_m_s_a.jpg;sad;7.0;sad_64.5ns.avi;sad;7.0;congruent;130.0;160.0;130.55717223801247;s_s;;;;;0;43;43;43;;;;;;;558.687018299941;None;559.9867732999846;560.30361120007;561.453545599943;561.470232399879;568.0284694998991;None;None;0;;568.0284694998991;None;;;;;;;;1;;;;;;;569.5866868998855;None;None;None;[];569.5866868998855;None;"['7', '7', '7', '7']";"[0.5530576000455767, 0.8489785001147538, 1.136867200024426, 1.3931156999897212]";569.5866868998855;None;;;S11012;2021_Oct_26_1135;VideoMask;2021.1.2;119.97658028146506;
7.0;m;027_o_m_h_a.jpg;happy;9.0;sad_117.1.wmv;sad;7.0;incongruent;120.0;160.0;181.28665202824095;h_s;;;;;0;44;44;44;;;;;;;572.5866701998748;None;574.3112584999762;574.6280125998892;575.7612395000178;575.7779433999676;577.7613939000294;None;None;0;;577.7613939000294;None;;;;;;;;4;;;;;;;579.311214099871;None;None;None;[];579.311214099871;None;['7'];[0.932503400137648];579.311214099871;None;;;S11012;2021_Oct_26_1135;VideoMask;2021.1.2;119.97658028146506;
3.0;m;033_o_m_s_a.jpg;sad;7.0;happy_126.3.wmv;happy;9.0;incongruent;130.0;150.0;198.85252030535366;s_h;;;;;0;45;45;45;;;;;;;582.311362199951;None;584.1778629999608;584.4944410000462;585.6526118998881;585.6694356000517;587.6364007999655;None;None;0;;587.6364007999655;None;;;;;;;;5;;;;;;;589.1943985999096;None;None;None;[];589.1943985999096;None;None;;589.1943985999096;None;;;S11012;2021_Oct_26_1135;VideoMask;2021.1.2;119.97658028146506;
3.0;m;033_o_m_h_a.jpg;happy;9.0;sad_136.1.wmv;sad;7.0;incongruent;120.0;160.0;176.97002883463455;h_s;;;;;0;46;46;46;;;;;;;592.2108708999585;None;593.8941009999253;594.2108825000469;595.3360015000217;595.35244529997;597.3441610999871;None;None;0;;597.3441610999871;None;;;;;;;;2;;;;;;;598.8939119998831;None;None;None;[];598.8939119998831;None;"['7', '7', '7']";"[0.4297421001829207, 0.7414902001619339, 1.181266900151968]";598.8939119998831;None;;;S11012;2021_Oct_26_1135;VideoMask;2021.1.2;119.97658028146506;
9.0;f;019_m_f_h_a.jpg;happy;9.0;happy_10.1ns.avi;happy;9.0;congruent;120.0;150.0;157.2463435658512;h_h;;;;;0;47;47;47;;;;;;;601.8942521000281;None;603.4271358998958;603.7438483999576;604.9521033999044;604.9689088999294;612.3188088999595;None;None;0;;612.3188088999595;None;;;;;;;;6;;;;;;;613.8686442000326;None;None;None;[];613.8686442000326;None;['9'];[0.7589755000080913];613.8686442000326;None;;;S11012;2021_Oct_26_1135;VideoMask;2021.1.2;119.97658028146506;
2.0;f;012_o_f_h_a.jpg;happy;9.0;happy_2.2ns.avi;happy;9.0;congruent;120.0;150.0;206.34800317295262;h_h;;;;;0;48;48;48;;;;;;;616.8685663000215;None;618.8352671000175;619.1518546999432;620.3267538999207;620.3434848999605;632.4931316000875;None;None;0;;632.4931316000875;None;;;;;;;;5;;;;;;;634.0345910000615;None;None;None;[];634.0345910000615;None;None;;634.0345910000615;None;;;S11012;2021_Oct_26_1135;VideoMask;2021.1.2;119.97658028146506;
3.0;m;033_o_m_h_a.jpg;happy;9.0;happy_24.2ns.avi;happy;9.0;congruent;120.0;150.0;167.9423847659953;h_h;;;;;0;49;49;49;;;;;;;637.0594929999206;None;638.6677222000435;638.9844726000447;640.1844627000391;640.201214700006;643.8428990000393;None;None;0;;643.8428990000393;None;;;;;;;;6;;;;;;;645.3926287000068;None;None;None;[];645.3926287000068;None;"['9', '9']";"[0.7790851001627743, 2.2190336000639945]";645.3926287000068;None;;;S11012;2021_Oct_26_1135;VideoMask;2021.1.2;119.97658028146506;
1.0;f;021_o_f_s_a.jpg;sad;7.0;happy_61.2ns.avi;happy;9.0;incongruent;130.0;150.0;210.94664004826666;s_h;;;;;0;50;50;50;;;;;;;648.4011393999681;None;650.3590990998782;650.6757688999642;651.8174691998865;651.8341743000783;656.3424515000079;None;None;0;;656.3424515000079;None;;;;;;;;5;;;;;;;657.8925071998965;None;None;None;[];657.8925071998965;None;None;;657.8925071998965;None;;;S11012;2021_Oct_26_1135;VideoMask;2021.1.2;119.97658028146506;
4.0;m;004_o_m_s_a.jpg;sad;7.0;sad_2.4ns.avi;sad;7.0;congruent;130.0;160.0;153.02079367163634;s_s;;;;;0;51;51;51;;;;;;;660.9171939999796;None;662.4170277998783;662.7337712999433;663.8677634999622;663.8921648000833;671.8254712000489;None;None;0;;671.8254712000489;None;;;;;;;;4;;;;;;;673.3835676000454;None;None;None;[];673.3835676000454;None;['7'];[2.6199761999305338];673.3835676000454;None;;;S11012;2021_Oct_26_1135;VideoMask;2021.1.2;119.97658028146506;
8.0;m;008_y_m_h_a.jpg;happy;9.0;happy_1.2ns.avi;happy;9.0;congruent;120.0;150.0;210.98946429383824;h_h;;;;;0;52;52;52;;;;;;;676.3917262998875;None;678.408450299874;678.7335540000349;679.8583349999972;679.8750328000169;692.6496047999244;None;None;0;;692.6496047999244;None;;;;;;;;7;;;;;;;694.1993861999363;None;None;None;[];694.1993861999363;None;"['9', '9']";"[0.5079606000799686, 1.2606135001406074]";694.1993861999363;None;;;S11012;2021_Oct_26_1135;VideoMask;2021.1.2;119.97658028146506;
2.0;f;012_o_f_s_a.jpg;sad;7.0;happy_52.2ns.avi;happy;9.0;incongruent;130.0;150.0;172.57202848318138;s_h;;;;;0;53;53;53;;;;;;;697.2079958000686;None;698.8326367998961;699.1492937998846;700.3078554999083;700.3243788999971;703.8327687999699;None;None;0;;703.8327687999699;None;;;;;;;;7;;;;;;;705.3823814999778;None;None;None;[];705.3823814999778;None;"['9', '9']";"[0.6692981000524014, 1.1970522999763489]";705.3823814999778;None;;;S11012;2021_Oct_26_1135;VideoMask;2021.1.2;119.97658028146506;
9.0;f;019_m_f_s_a.jpg;sad;7.0;happy_61.1ns.avi;happy;9.0;incongruent;130.0;150.0;181.3003220572762;s_h;;;;;0;54;54;54;;;;;;;708.3825948000886;None;710.1322117999662;710.4490628999192;711.6073801000603;711.6240719000343;718.9745835999493;None;None;0;;718.9745835999493;None;;;;;;;;5;;;;;;;720.5320564999711;None;None;None;[];720.5320564999711;None;None;;720.5320564999711;None;;;S11012;2021_Oct_26_1135;VideoMask;2021.1.2;119.97658028146506;
0.0;f;030_o_f_h_a.jpg;happy;9.0;sad_133.1.wmv;sad;7.0;incongruent;120.0;160.0;198.86251500867985;h_s;;;;;0;55;55;55;;;;;;;723.5569952998776;None;725.4318540999666;725.7485815000255;726.873675199924;726.890339500038;728.8819709999952;None;None;0;;728.8819709999952;None;;;;;;;;3;;;;;;;730.4316290998831;None;None;None;[];730.4316290998831;None;"['7', '7', '7']";"[0.7559118000790477, 1.2440637000836432, 1.6758822000119835]";730.4316290998831;None;;;S11012;2021_Oct_26_1135;VideoMask;2021.1.2;119.97658028146506;
0.0;f;040_y_f_h_a.jpg;happy;9.0;sad_128.2.wmv;sad;7.0;incongruent;120.0;160.0;206.10005857915363;h_s;;;;;0;56;56;56;;;;;;;733.4319056998938;None;735.3566171000712;735.6733089999761;736.8063880000263;736.823115499923;738.806485200068;None;None;0;;738.806485200068;None;;;;;;;;2;;;;;;;740.4146509000566;None;None;None;[];740.4146509000566;None;"['7', '7', '7', '7']";"[0.5010583000257611, 0.8690291999373585, 1.2207107997965068, 1.58072099997662]";740.4146509000566;None;;;S11012;2021_Oct_26_1135;VideoMask;2021.1.2;119.97658028146506;
1.0;f;021_o_f_s_a.jpg;sad;7.0;sad_9.5ns.avi;sad;7.0;congruent;130.0;160.0;206.16642757875042;s_s;;;;;0;57;57;57;;;;;;;743.4233317999169;None;745.3645627999213;745.6814292999916;746.8561259999406;746.8731501998845;752.5395996998996;None;None;0;;752.5395996998996;None;;;;;;;;2;;;;;;;754.2727842000313;None;None;None;[];754.2727842000313;None;"['7', '7', '7']";"[0.42722920002415776, 0.8429388999938965, 1.2428834000602365]";754.2727842000313;None;;;S11012;2021_Oct_26_1135;VideoMask;2021.1.2;119.97658028146506;
1.0;f;021_o_f_h_a.jpg;happy;9.0;happy_12.1ns.avi;happy;9.0;congruent;120.0;150.0;132.59080005900228;h_h;;;;;0;58;58;58;;;;;;;757.2727230999153;None;758.5976384000387;758.9141347000841;760.0806658999063;760.0974439999554;767.6640848000534;None;None;0;;767.6640848000534;None;;;;;;;;5;;;;;;;769.2143083000556;None;None;None;[];769.2143083000556;None;None;;769.2143083000556;None;;;S11012;2021_Oct_26_1135;VideoMask;2021.1.2;119.97658028146506;
3.0;m;013_y_m_s_a.jpg;sad;7.0;happy_56.2ns.avi;happy;9.0;incongruent;130.0;150.0;163.39234110935848;s_h;;;;;0;59;59;59;;;;;;;772.230498699937;None;773.7970898000058;774.1145015999209;775.2641372000799;775.2804346000776;780.2721052998677;None;None;0;;780.2721052998677;None;;;;;;;;5;;;;;;;781.8219741999637;None;None;None;[];781.8219741999637;None;None;;781.8219741999637;None;;;S11012;2021_Oct_26_1135;VideoMask;2021.1.2;119.97658028146506;
;;;;;;;;;;;;;;;;;;;;;;;;;;;;;;;;;;;;;;;;;;;;;;;;;;;;;;;;;;;;;;;;;784.8468494999688;None;;;;;;
