primePerson;primeGender;prime;primeEmotion;corrAnsPrime;target;targetEmotion;corrAnsTar;Cond;ID_Primer;ID_Target;JitterTime;Condition;example.thisRepN;example.thisTrialN;example.thisN;example.thisIndex;study.thisRepN;study.thisTrialN;study.thisN;study.thisIndex;MR_trigger_time;MR_trigger_number;text_intro.started;text_intro.stopped;text_probe.started;text_probe.stopped;polygon_ISI.started;polygon_ISI.stopped;polygon.started;polygon.stopped;primerImage.started;primerImage.stopped;response.started;response.stopped;key_resp.keys;key_resp.corr;key_resp.started;key_resp.stopped;slider_Text.started;slider_Text.stopped;slider_ex.response;slider_ex.rt;slider_ex.history;slider_ex.started;slider_ex.stopped;Rating;slider_resp_response.keys;slider_resp_response.started;slider_resp_response.stopped;slider_resp_response.rt;text_start.started;text_start.stopped;key_resp.rt;text_slider.started;text_slider.stopped;slider_stud.response;slider_stud.rt;slider_stud.history;slider_stud.started;slider_stud.stopped;slider_resp_study.keys;slider_resp_study.rt;slider_resp_study.started;slider_resp_study.stopped;text_ende.started;text_ende.stopped;participant;date;expName;psychopyVersion;frameRate;
1111;m;1111_m_m_h_a.jpg;happy;9;example_30.4ns.avi;neutral;7;incongruent;120.0;170.0;189.5874364012288;;0;0;0;0;;;;;49.892371500027366;1;49.986979299923405;51.98711739992723;51.98711739992723;None;54.012081300024875;None;56.270513999974355;56.60352300002705;57.753997699939646;57.77929109998513;62.07844740001019;None;None;0;62.07844740001019;None;63.64490720001049;None;None;None;[];63.64490720001049;None;5;None;63.64490720001049;None;;;;;;;;;;;;;;;;;;S11293;2022_Mar_17_1936;VideoMask;2021.1.2;119.92205063197511;
1113;f;1113_y_f_s_a.jpg;sad;7;example_30.3ns.avi;neutral;7;incongruent;130.0;170.0;229.02432995836998;;0;1;1;1;;;;;;;;;;;66.6614671999123;None;68.77818399993703;69.09490879997611;70.27822630002629;70.29494209995028;72.2365633000154;None;None;0;72.2365633000154;None;73.78623039997183;None;None;None;[];73.78623039997183;None;6;['9'];73.78623039997183;None;[1.5485370999667794];;;;;;;;;;;;;;;;;S11293;2022_Mar_17_1936;VideoMask;2021.1.2;119.92205063197511;
9.0;f;019_m_f_h_a.jpg;happy;9.0;sad_115.1.wmv;sad;7.0;incongruent;120.0;160.0;128.09063432376465;h_s;;;;;0;0;0;0;;;;;;;77.81964739994146;None;79.11110769992229;79.42790000000969;80.56935889995657;80.58598099998198;82.5862243999727;None;7;0;82.5862243999727;None;;;;;;;;4;;;;;76.79476540000178;None;1.4122843999648467;84.14430759998504;None;None;None;[];84.14430759998504;None;['7'];[2.7181512999814004];84.14430759998504;None;;;S11293;2022_Mar_17_1936;VideoMask;2021.1.2;119.92205063197511;
3.0;m;033_o_m_s_a.jpg;sad;7.0;sad_94.2ns.avi;sad;7.0;congruent;130.0;160.0;182.29120173647655;s_s;;;;;0;1;1;1;;;;;;;87.14435710001271;None;88.87754979997408;89.19420989998616;90.32756100001279;90.34455789998174;93.01921910000965;None;None;0;93.01921910000965;None;;;;;;;;4;;;;;;;;94.56914159993175;None;None;None;[];94.56914159993175;None;['7'];[1.5097544000018388];94.56914159993175;None;;;S11293;2022_Mar_17_1936;VideoMask;2021.1.2;119.92205063197511;
8.0;m;008_y_m_h_a.jpg;happy;9.0;happy_26.1ns.avi;happy;9.0;congruent;120.0;150.0;155.9437854594882;h_h;;;;;0;2;2;2;;;;;;;97.57744589995127;None;99.07724110002164;99.39389770000707;100.52723439992405;100.54388919996563;102.51892159995623;None;9;0;102.51892159995623;None;;;;;;;;7;;;;;;;1.1756205999990925;104.07715119991917;None;None;None;[];104.07715119991917;None;"['9', '9']";"[0.8974373999517411, 1.2653960000025108]";104.07715119991917;None;;;S11293;2022_Mar_17_1936;VideoMask;2021.1.2;119.92205063197511;
0.0;f;040_y_f_h_a.jpg;happy;9.0;sad_138.1.wmv;sad;7.0;incongruent;120.0;160.0;133.99071306426532;h_s;;;;;0;3;3;3;;;;;;;107.07716270000674;None;108.41859409993049;108.73533299996052;109.86036069993861;109.87689590000082;111.8686197999632;None;None;0;111.8686197999632;None;;;;;;;;3;;;;;;;;113.41835209995043;None;None;None;[];113.41835209995043;None;"['7', '7']";"[1.028366700047627, 1.4921694999793544]";113.41835209995043;None;;;S11293;2022_Mar_17_1936;VideoMask;2021.1.2;119.92205063197511;
8.0;f;028_y_f_s_a.jpg;sad;7.0;sad_64.2ns.avi;sad;7.0;congruent;130.0;160.0;229.88540597086478;s_s;;;;;0;4;4;4;;;;;;;116.4184884999413;None;118.63504369999282;118.95161320001353;120.16830459993798;120.18497850000858;131.08464969997294;None;7;0;131.08464969997294;None;;;;;;;;3;;;;;;;1.1698936000466347;132.63460939994548;None;None;None;[];132.63460939994548;None;"['7', '7']";"[1.4839099999517202, 1.916175999911502]";132.63460939994548;None;;;S11293;2022_Mar_17_1936;VideoMask;2021.1.2;119.92205063197511;
7.0;m;027_o_m_s_a.jpg;sad;7.0;sad_10.4ns.avi;sad;7.0;congruent;130.0;160.0;185.20129417468752;s_s;;;;;0;5;5;5;;;;;;;135.63460899994243;None;137.40101859997958;137.71775940002408;138.85938289994374;138.87604929995723;142.0176301000174;None;7;0;142.0176301000174;None;;;;;;;;2;;;;;;;1.1007499999832362;143.56757219997235;None;None;None;[];143.56757219997235;None;"['7', '7', '7']";"[0.806970400037244, 1.2788980000186712, 1.5908288999926299]";143.56757219997235;None;;;S11293;2022_Mar_17_1936;VideoMask;2021.1.2;119.92205063197511;
2.0;f;012_o_f_s_a.jpg;sad;7.0;sad_7.5ns.avi;sad;7.0;congruent;130.0;160.0;220.27842655424388;s_s;;;;;0;6;6;6;;;;;;;146.5674809999764;None;148.6089949000161;148.92567819997203;150.17638710001484;150.20892879995517;152.8506619000109;None;7;0;152.8506619000109;None;;;;;;;;4;;;;;;;0.803851900040172;154.40054589998908;None;None;None;[];154.40054589998908;None;['7'];[0.606344599975273];154.40054589998908;None;;;S11293;2022_Mar_17_1936;VideoMask;2021.1.2;119.92205063197511;
2.0;f;012_o_f_h_a.jpg;happy;9.0;happy_27.1ns.avi;happy;9.0;congruent;120.0;150.0;146.44967055810616;h_h;;;;;0;7;7;7;;;;;;;157.4088907999685;None;158.82533070002683;159.1419783999445;160.30948029994033;160.34201529994607;162.7670943000121;None;9;0;162.7670943000121;None;;;;;;;;7;;;;;;;0.9753223999869078;164.31693209998775;None;None;None;[];164.31693209998775;None;"['9', '9']";"[1.0256443000398576, 1.3694759999634698]";164.31693209998775;None;;;S11293;2022_Mar_17_1936;VideoMask;2021.1.2;119.92205063197511;
8.0;f;028_y_f_h_a.jpg;happy;9.0;sad_119.1.wmv;sad;7.0;incongruent;120.0;160.0;148.71526953572538;h_s;;;;;0;8;8;8;;;;;;;167.3170343999518;None;168.77497049991507;169.09171549999155;170.22510149993468;170.24167070002295;172.291801400017;None;7;0;172.291801400017;None;;;;;;;;4;;;;;;;1.2266683999914676;173.84163209993858;None;None;None;[];173.84163209993858;None;['7'];[1.6050300999777392];173.84163209993858;None;;;S11293;2022_Mar_17_1936;VideoMask;2021.1.2;119.92205063197511;
6.0;m;016_y_m_s_a.jpg;sad;7.0;happy_60.4ns.avi;happy;9.0;incongruent;130.0;150.0;126.02367393611817;s_h;;;;;0;9;9;9;;;;;;;176.84162830002606;None;178.14149910002016;178.46664819994476;179.65790679992642;179.6746528999647;185.38292439992074;None;9;0;185.38292439992074;None;;;;;;;;5;;;;;;;0.5194887999678031;187.25788419996388;None;None;None;[];187.25788419996388;None;None;;187.25788419996388;None;;;S11293;2022_Mar_17_1936;VideoMask;2021.1.2;119.92205063197511;
9.0;f;019_m_f_s_a.jpg;sad;7.0;sad_8.4ns.avi;sad;7.0;congruent;130.0;160.0;171.6633093155257;s_s;;;;;0;10;10;10;;;;;;;190.27428160002455;None;191.96609070000704;192.28271860000677;193.43260900001042;193.44939399999566;201.54922169994097;None;7;0;201.54922169994097;None;;;;;;;;5;;;;;;;1.0572627999354154;203.0990546999965;None;None;None;[];203.0990546999965;None;None;;203.0990546999965;None;;;S11293;2022_Mar_17_1936;VideoMask;2021.1.2;119.92205063197511;
4.0;m;004_o_m_h_a.jpg;happy;9.0;happy_1.1ns.avi;happy;9.0;congruent;120.0;150.0;203.50057144619865;h_h;;;;;0;11;11;11;;;;;;;206.115500099957;None;208.0988978999667;208.41546379995998;209.54051879991312;209.55722700001206;224.03188689996023;None;None;0;224.03188689996023;None;;;;;;;;6;;;;;;;;225.5817203000188;None;None;None;[];225.5817203000188;None;"['9', '7', '9']";"[0.2888807998970151, 1.4647735999897122, 1.9767423999728635]";225.5817203000188;None;;;S11293;2022_Mar_17_1936;VideoMask;2021.1.2;119.92205063197511;
7.0;m;027_o_m_h_a.jpg;happy;9.0;happy_20.1ns.avi;happy;9.0;congruent;120.0;150.0;152.91127178874285;h_h;;;;;0;12;12;12;;;;;;;228.59858160000294;None;230.09808619995601;230.41485930001363;231.56489479995798;231.58141189999878;234.56491920002736;None;9;0;234.56491920002736;None;;;;;;;;6;;;;;;;0.7934970000060275;236.11467349994928;None;None;None;[];236.11467349994928;None;['9'];[1.4278397999005392];236.11467349994928;None;;;S11293;2022_Mar_17_1936;VideoMask;2021.1.2;119.92205063197511;
0.0;f;040_y_f_s_a.jpg;sad;7.0;sad_94.3ns.avi;sad;7.0;congruent;130.0;160.0;155.27414203894395;s_s;;;;;0;13;13;13;;;;;;;239.1147075999761;None;240.62282269995194;240.93951089994516;242.08953719993588;242.10623259993736;244.6978203000035;None;7;0;244.6978203000035;None;;;;;;;;4;;;;;;;1.0285666999407113;246.25603019993287;None;None;None;[];246.25603019993287;None;['7'];[1.6462655999930575];246.25603019993287;None;;;S11293;2022_Mar_17_1936;VideoMask;2021.1.2;119.92205063197511;
0.0;f;030_o_f_s_a.jpg;sad;7.0;sad_68.1ns.avi;sad;7.0;congruent;130.0;160.0;158.9411396037211;s_s;;;;;0;14;14;14;;;;;;;249.2560763999354;None;250.81402459996752;251.1307955000084;252.28149209998082;252.322530800011;259.688915799954;None;7;0;259.688915799954;None;;;;;;;;4;;;;;;;0.6616869000717998;261.23053930001333;None;None;None;[];261.23053930001333;None;['7'];[0.5758584999712184];261.23053930001333;None;;;S11293;2022_Mar_17_1936;VideoMask;2021.1.2;119.92205063197511;
0.0;f;030_o_f_h_a.jpg;happy;9.0;sad_127.1.wmv;sad;7.0;incongruent;120.0;160.0;180.59976631384873;h_s;;;;;0;15;15;15;;;;;;;264.23896749992855;None;265.9636185999261;266.28032389993314;267.41374230000656;267.43033549992833;269.4137028999394;None;None;0;269.4137028999394;None;;;;;;;;5;;;;;;;;270.9636288000038;None;None;None;[];270.9636288000038;None;None;;270.9636288000038;None;;;S11293;2022_Mar_17_1936;VideoMask;2021.1.2;119.92205063197511;
8.0;m;008_y_m_s_a.jpg;sad;7.0;happy_133.3.wmv;happy;9.0;incongruent;130.0;150.0;152.577966552593;s_h;;;;;0;16;16;16;;;;;;;273.98857609997503;None;275.48002619994804;275.79665809997823;276.9219916999573;276.9383804999525;278.93001959996764;None;9;0;278.93001959996764;None;;;;;;;;6;;;;;;;1.0844383999938145;280.5466296999948;None;None;None;[];280.5466296999948;None;['9'];[1.0837624999694526];280.5466296999948;None;;;S11293;2022_Mar_17_1936;VideoMask;2021.1.2;119.92205063197511;
3.0;m;033_o_m_h_a.jpg;happy;9.0;sad_128.1.wmv;sad;7.0;incongruent;120.0;160.0;171.0492454518585;h_s;;;;;0;17;17;17;;;;;;;283.55489119992126;None;285.2046546000056;285.52144079993013;286.6719029999804;286.69629519991577;288.67136259994004;None;7;0;288.67136259994004;None;;;;;;;;3;;;;;;;1.0870641000801697;290.2212755000219;None;None;None;[];290.2212755000219;None;"['7', '7']";"[0.601058500004001, 2.5212145999539644]";290.2212755000219;None;;;S11293;2022_Mar_17_1936;VideoMask;2021.1.2;119.92205063197511;
1.0;f;021_o_f_h_a.jpg;happy;9.0;sad_116.1.wmv;sad;7.0;incongruent;120.0;160.0;184.06847610053055;h_s;;;;;0;18;18;18;;;;;;;293.2212153999135;None;294.97110199998133;295.2876890000189;296.4294258999871;296.44617309991736;298.4300535999937;None;7;0;298.4300535999937;None;;;;;;;;4;;;;;;;0.7763897000113502;300.1710073999129;None;None;None;[];300.1710073999129;None;"['7', '7']";"[0.6354722999967635, 1.3875064000021666]";300.1710073999129;None;;;S11293;2022_Mar_17_1936;VideoMask;2021.1.2;119.92205063197511;
4.0;m;004_o_m_s_a.jpg;sad;7.0;happy_28.1ns.avi;happy;9.0;incongruent;130.0;150.0;157.40741103039684;s_h;;;;;0;19;19;19;;;;;;;303.179383300012;None;304.7125793999294;305.0291782999411;306.26243479992263;306.27918389998376;310.55414789996576;None;9;0;310.55414789996576;None;;;;;;;;8;;;;;;;0.8126017999602482;312.11221489997115;None;None;None;[];312.11221489997115;None;"['9', '9', '9']";"[0.6382210000883788, 0.9905515999998897, 2.3184060000348836]";312.11221489997115;None;;;S11293;2022_Mar_17_1936;VideoMask;2021.1.2;119.92205063197511;
8.0;f;028_y_f_s_a.jpg;sad;7.0;happy_122.3.wmv;happy;9.0;incongruent;130.0;150.0;171.8670540936116;s_h;;;;;0;20;20;20;;;;;;;315.1121942999307;None;316.762134199962;317.0787919999566;318.21289199998137;318.2371484999312;320.2120112000266;None;9;0;320.2120112000266;None;;;;;;;;6;;;;;;;0.4504206000128761;321.76197270001285;None;None;None;[];321.76197270001285;None;['9'];[0.42049569997470826];321.76197270001285;None;;;S11293;2022_Mar_17_1936;VideoMask;2021.1.2;119.92205063197511;
8.0;m;008_y_m_s_a.jpg;sad;7.0;sad_6.5ns.avi;sad;7.0;congruent;130.0;160.0;170.39333839271438;s_s;;;;;0;21;21;21;;;;;;;324.7704080999829;None;326.41179929999635;326.72843859996647;327.8784105000086;327.8952030999353;332.87843179993797;None;7;0;332.87843179993797;None;;;;;;;;4;;;;;;;0.7520574999507517;334.4199528999161;None;None;None;[];334.4199528999161;None;['7'];[0.754502399940975];334.4199528999161;None;;;S11293;2022_Mar_17_1936;VideoMask;2021.1.2;119.92205063197511;
8.0;f;028_y_f_h_a.jpg;happy;9.0;happy_23.1ns.avi;happy;9.0;congruent;120.0;150.0;225.70986890587952;h_h;;;;;0;22;22;22;;;;;;;337.4204597999342;None;339.5197950999718;339.83640699996613;341.0195211999817;341.03618970001116;345.5446430000011;None;9;0;345.5446430000011;None;;;;;;;;7;;;;;;;0.8778254999779165;347.0861975000007;None;None;None;[];347.0861975000007;None;"['9', '9', '9']";"[0.7521898000268266, 1.5682279999600723, 2.0724807999795303]";347.0861975000007;None;;;S11293;2022_Mar_17_1936;VideoMask;2021.1.2;119.92205063197511;
8.0;m;008_y_m_h_a.jpg;happy;9.0;sad_111.1.wmv;sad;7.0;incongruent;120.0;160.0;152.63076835312847;h_s;;;;;0;23;23;23;;;;;;;350.08617999998387;None;351.5776395999128;351.89432049996685;353.027665099944;353.0443205999909;355.02767009998206;None;7;0;355.02767009998206;None;;;;;;;;4;;;;;;;1.1466358000179753;356.63587310002185;None;None;None;[];356.63587310002185;None;['7'];[1.2024766999529675];356.63587310002185;None;;;S11293;2022_Mar_17_1936;VideoMask;2021.1.2;119.92205063197511;
0.0;f;040_y_f_s_a.jpg;sad;7.0;sad_67.2ns.avi;sad;7.0;congruent;130.0;160.0;220.9892697323079;s_s;;;;;0;24;24;24;;;;;;;359.644217699999;None;361.744025999913;362.06067269993946;363.19411729997955;363.21064810000826;372.418865500018;None;7;0;372.418865500018;None;;;;;;;;2;;;;;;;0.7475252000149339;373.96872469992377;None;None;None;[];373.96872469992377;None;"['7', '7', '7', '7']";"[0.5736263999715447, 0.86158439994324, 1.21369139989838, 1.8055944999214262]";373.96872469992377;None;;;S11293;2022_Mar_17_1936;VideoMask;2021.1.2;119.92205063197511;
8.0;m;008_y_m_s_a.jpg;sad;7.0;happy_29.1ns.avi;happy;9.0;incongruent;130.0;150.0;120.0316142834122;s_h;;;;;0;25;25;25;;;;;;;376.97700760001317;None;378.2019593999721;378.51846079993993;379.65283749997616;379.67686100001447;382.3434550999664;None;9;0;382.3434550999664;None;;;;;;;;7;;;;;;;0.5671074000420049;383.9017733000219;None;None;None;[];383.9017733000219;None;"['9', '9']";"[0.6248587999725714, 2.1285423999652267]";383.9017733000219;None;;;S11293;2022_Mar_17_1936;VideoMask;2021.1.2;119.92205063197511;
6.0;m;016_y_m_s_a.jpg;sad;7.0;sad_8.3ns.avi;sad;7.0;congruent;130.0;160.0;152.85371098242734;s_s;;;;;0;26;26;26;;;;;;;386.9017353999661;None;388.42660769994836;388.7432241999777;389.9180144999409;389.9349011000013;397.63465239992365;None;7;0;397.63465239992365;None;;;;;;;;3;;;;;;;0.8597154999151826;399.18458449991886;None;None;None;[];399.18458449991886;None;"['7', '7']";"[0.733683199970983, 1.189854799886234]";399.18458449991886;None;;;S11293;2022_Mar_17_1936;VideoMask;2021.1.2;119.92205063197511;
6.0;m;016_y_m_h_a.jpg;happy;9.0;sad_114.1.wmv;sad;7.0;incongruent;120.0;160.0;136.20550699298644;h_s;;;;;0;27;27;27;;;;;;;402.1929406999843;None;403.55090659996495;403.8675904999254;404.9926491000224;405.0094142999733;407.00099909992423;None;7;0;407.00099909992423;None;;;;;;;;4;;;;;;;1.1733854999765754;408.55096269992646;None;None;None;[];408.55096269992646;None;['7'];[0.6394834999227896];408.55096269992646;None;;;S11293;2022_Mar_17_1936;VideoMask;2021.1.2;119.92205063197511;
7.0;m;027_o_m_s_a.jpg;sad;7.0;happy_117.3.wmv;happy;9.0;incongruent;130.0;150.0;215.61964028550614;s_h;;;;;0;28;28;28;;;;;;;411.55089259997476;None;413.56739109999035;413.8840194999939;415.01745669997763;415.0340728999581;417.01734619995113;None;None;0;417.01734619995113;None;;;;;;;;6;;;;;;;;418.56735149992164;None;None;None;[];418.56735149992164;None;['9'];[0.7430179000366479];418.56735149992164;None;;;S11293;2022_Mar_17_1936;VideoMask;2021.1.2;119.92205063197511;
6.0;m;016_y_m_h_a.jpg;happy;9.0;happy_9.2ns.avi;happy;9.0;congruent;120.0;150.0;130.52042428082717;h_h;;;;;0;29;29;29;;;;;;;421.5671841999283;None;422.9255169000244;423.2420797999948;424.36715579999145;424.3838729999261;430.30024170002434;None;9;0;430.30024170002434;None;;;;;;;;5;;;;;;;0.6661781999282539;431.85017889994197;None;None;None;[];431.85017889994197;None;None;;431.85017889994197;None;;;S11293;2022_Mar_17_1936;VideoMask;2021.1.2;119.92205063197511;
0.0;f;040_y_f_s_a.jpg;sad;7.0;happy_127.3.wmv;happy;9.0;incongruent;130.0;150.0;131.7195455720239;s_h;;;;;0;30;30;30;;;;;;;434.87515229999553;None;436.17497159994673;436.49170739995316;437.61680159997195;437.6333736999659;439.69158570002764;None;9;0;439.69158570002764;None;;;;;;;;6;;;;;;;1.0668050999520347;441.24156360002235;None;None;None;[];441.24156360002235;None;['9'];[1.4208079000236467];441.24156360002235;None;;;S11293;2022_Mar_17_1936;VideoMask;2021.1.2;119.92205063197511;
0.0;f;030_o_f_s_a.jpg;sad;7.0;happy_125.3.wmv;happy;9.0;incongruent;130.0;150.0;220.51454909128134;s_h;;;;;0;31;31;31;;;;;;;444.2415324000176;None;446.29956409998704;446.6162943999516;447.7578617000254;447.7747694000136;449.749604600016;None;9;0;449.749604600016;None;;;;;;;;6;;;;;;;0.7848066999576986;451.299597300007;None;None;None;[];451.299597300007;None;['9'];[0.5707020999398082];451.299597300007;None;;;S11293;2022_Mar_17_1936;VideoMask;2021.1.2;119.92205063197511;
0.0;f;030_o_f_s_a.jpg;sad;7.0;sad_64.3ns.avi;sad;7.0;congruent;130.0;160.0;165.78667874766072;s_s;;;;;0;32;32;32;;;;;;;454.2996794999344;None;455.9077081999276;456.2244282999309;457.3661691999296;457.3826284999959;462.3576081999345;None;7;0;462.3576081999345;None;;;;;;;;4;;;;;;;0.7528617999050766;463.9075386999175;None;None;None;[];463.9075386999175;None;['7'];[0.9149996999185532];463.9075386999175;None;;;S11293;2022_Mar_17_1936;VideoMask;2021.1.2;119.92205063197511;
3.0;m;013_y_m_s_a.jpg;sad;7.0;sad_7.7ns.avi;sad;7.0;congruent;130.0;160.0;196.24182255763262;s_s;;;;;0;33;33;33;;;;;;;466.91583730001;None;468.78243999998085;469.0989738999633;470.2738215000136;470.2906587999314;476.2322927999776;None;7;0;476.2322927999776;None;;;;;;;;4;;;;;;;0.614077000063844;478.38209309999365;None;None;None;[];478.38209309999365;None;['7'];[0.5442654000362381];478.38209309999365;None;;;S11293;2022_Mar_17_1936;VideoMask;2021.1.2;119.92205063197511;
3.0;m;013_y_m_h_a.jpg;happy;9.0;happy_9.1ns.avi;happy;9.0;congruent;120.0;150.0;165.1890303600433;h_h;;;;;0;34;34;34;;;;;;;481.39043309993576;None;482.9901871000184;483.3069857999217;484.49860839999747;484.51530640001874;487.66522919991985;None;9;0;487.66522919991985;None;;;;;;;;6;;;;;;;0.7253221999853849;489.2150788999861;None;None;None;[];489.2150788999861;None;['9'];[1.3995117000304163];489.2150788999861;None;;;S11293;2022_Mar_17_1936;VideoMask;2021.1.2;119.92205063197511;
4.0;m;004_o_m_h_a.jpg;happy;9.0;sad_95.1ns.avi;sad;7.0;incongruent;120.0;160.0;152.68270002069931;h_s;;;;;0;35;35;35;;;;;;;492.2232853999594;None;493.7566147999605;494.07319169992115;495.2649488999741;495.2821530000074;503.9981353000039;None;7;0;503.9981353000039;None;;;;;;;;4;;;;;;;0.8883723000762984;505.5562281999737;None;None;None;[];505.5562281999737;None;['7'];[0.6424507000483572];505.5562281999737;None;;;S11293;2022_Mar_17_1936;VideoMask;2021.1.2;119.92205063197511;
3.0;m;013_y_m_h_a.jpg;happy;9.0;sad_113.2.wmv;sad;7.0;incongruent;120.0;160.0;217.4973891947951;h_s;;;;;0;36;36;36;;;;;;;508.56454399996437;None;510.60599489999004;510.92262520000804;512.0477959999116;512.0643275999464;514.0560341000091;None;7;0;514.0560341000091;None;;;;;;;;4;;;;;;;0.9262517000315711;515.6059317999752;None;None;None;[];515.6059317999752;None;['7'];[1.0165828000754118];515.6059317999752;None;;;S11293;2022_Mar_17_1936;VideoMask;2021.1.2;119.92205063197511;
4.0;m;004_o_m_h_a.jpg;happy;9.0;happy_25.1ns.avi;happy;9.0;congruent;120.0;150.0;216.63044503818386;h_h;;;;;0;37;37;37;;;;;;;518.6059119999409;None;520.6306855999865;520.9474687000038;522.1974279999267;522.2141095999395;525.7726426000008;None;9;0;525.7726426000008;None;;;;;;;;7;;;;;;;0.4098756000166759;527.3304802000057;None;None;None;[];527.3304802000057;None;"['9', '9']";"[0.29191839997656643, 0.6037686000345275]";527.3304802000057;None;;;S11293;2022_Mar_17_1936;VideoMask;2021.1.2;119.92205063197511;
4.0;m;004_o_m_s_a.jpg;sad;7.0;happy_131.2.wmv;happy;9.0;incongruent;130.0;150.0;181.38407540847405;s_h;;;;;0;38;38;38;;;;;;;530.3306060999166;None;532.0552935999585;532.3721226999769;533.5051398000214;533.5221031999681;535.5054251999827;None;9;0;535.5054251999827;None;;;;;;;;7;;;;;;;0.7569645000621676;537.0552565000253;None;None;None;[];537.0552565000253;None;"['9', '9']";"[0.22309149999637157, 0.4949882000219077]";537.0552565000253;None;;;S11293;2022_Mar_17_1936;VideoMask;2021.1.2;119.92205063197511;
0.0;f;040_y_f_h_a.jpg;happy;9.0;happy_24.3ns.avi;happy;9.0;congruent;120.0;150.0;213.25460698950434;h_h;;;;;0;39;39;39;;;;;;;540.0552298999391;None;542.0633384999819;542.3800480000209;543.5051555000246;543.5217314999318;545.447056200006;None;9;0;545.447056200006;None;;;;;;;;6;;;;;;;0.551183299976401;547.0466110999696;None;None;None;[];547.0466110999696;None;['9'];[0.22370129998307675];547.0466110999696;None;;;S11293;2022_Mar_17_1936;VideoMask;2021.1.2;119.92205063197511;
2.0;f;012_o_f_s_a.jpg;sad;7.0;happy_139.1.wmv;happy;9.0;incongruent;130.0;150.0;162.31500468041804;s_h;;;;;0;40;40;40;;;;;;;550.0466136999894;None;551.6046128999442;551.9213726000162;553.0545787999872;553.0711978999898;555.0546562999953;None;9;0;555.0546562999953;None;;;;;;;;6;;;;;;;0.35166829999070615;556.6047242999775;None;None;None;[];556.6047242999775;None;['9'];[0.24955720000434667];556.6047242999775;None;;;S11293;2022_Mar_17_1936;VideoMask;2021.1.2;119.92205063197511;
0.0;f;030_o_f_h_a.jpg;happy;9.0;happy_24.1ns.avi;happy;9.0;congruent;120.0;150.0;168.36256624020774;h_h;;;;;0;41;41;41;;;;;;;559.6047368999571;None;561.2378401999595;561.5544089999748;562.7211263999343;562.7377806999721;566.0126450000098;None;9;0;566.0126450000098;None;;;;;;;;7;;;;;;;0.6176528000505641;567.5625281999819;None;None;None;[];567.5625281999819;None;"['9', '9']";"[1.0599450999870896, 1.643777700024657]";567.5625281999819;None;;;S11293;2022_Mar_17_1936;VideoMask;2021.1.2;119.92205063197511;
2.0;f;012_o_f_h_a.jpg;happy;9.0;sad_113.1.wmv;sad;7.0;incongruent;120.0;160.0;177.44551734737394;h_s;;;;;0;42;42;42;;;;;;;570.5709772999398;None;572.2706848999951;572.5872659999877;573.7289205999114;573.7458044999512;575.7206636000192;None;7;0;575.7206636000192;None;;;;;;;;4;;;;;;;0.7416843000100926;577.270631399937;None;None;None;[];577.270631399937;None;['7'];[0.5118852999294177];577.270631399937;None;;;S11293;2022_Mar_17_1936;VideoMask;2021.1.2;119.92205063197511;
3.0;m;033_o_m_s_a.jpg;sad;7.0;sad_64.5ns.avi;sad;7.0;congruent;130.0;160.0;130.55717223801247;s_s;;;;;0;43;43;43;;;;;;;580.2790084999288;None;581.6204546999652;581.9371461999835;583.1205298999557;583.1372964999173;589.6536392000271;None;7;0;589.6536392000271;None;;;;;;;;2;;;;;;;0.8085940999444574;591.2035742999287;None;None;None;[];591.2035742999287;None;"['7', '7', '7', '7']";"[0.4827707000076771, 0.7785445000045002, 1.0026572999777272, 1.3949347999878228]";591.2035742999287;None;;;S11293;2022_Mar_17_1936;VideoMask;2021.1.2;119.92205063197511;
7.0;m;027_o_m_h_a.jpg;happy;9.0;sad_117.1.wmv;sad;7.0;incongruent;120.0;160.0;181.28665202824095;h_s;;;;;0;44;44;44;;;;;;;594.21195789997;None;595.9449661999242;596.2616422999417;597.3950556999771;597.4116389999399;599.3949575999286;None;7;0;599.3949575999286;None;;;;;;;;3;;;;;;;0.7233130999375135;600.9449448999949;None;None;None;[];600.9449448999949;None;"['7', '7']";"[0.5173479999648407, 0.7412526999833062]";600.9449448999949;None;;;S11293;2022_Mar_17_1936;VideoMask;2021.1.2;119.92205063197511;
3.0;m;033_o_m_s_a.jpg;sad;7.0;happy_126.3.wmv;happy;9.0;incongruent;130.0;150.0;198.85252030535366;s_h;;;;;0;45;45;45;;;;;;;603.9449931000127;None;605.81967300002;606.1362828999991;607.2695582999149;607.2863735000137;609.2780411000131;None;9;0;609.2780411000131;None;;;;;;;;6;;;;;;;0.5841727999504656;610.8279339999426;None;None;None;[];610.8279339999426;None;['9'];[0.28242419997695833];610.8279339999426;None;;;S11293;2022_Mar_17_1936;VideoMask;2021.1.2;119.92205063197511;
3.0;m;033_o_m_h_a.jpg;happy;9.0;sad_136.1.wmv;sad;7.0;incongruent;120.0;160.0;176.97002883463455;h_s;;;;;0;46;46;46;;;;;;;613.8279479999328;None;615.5110289999284;615.827672699932;616.9860446000239;617.0026756000007;618.9695311000105;None;None;0;618.9695311000105;None;;;;;;;;4;;;;;;;;620.5191275000107;None;None;None;[];620.5191275000107;None;['7'];[2.4792408000212163];620.5191275000107;None;;;S11293;2022_Mar_17_1936;VideoMask;2021.1.2;119.92205063197511;
9.0;f;019_m_f_h_a.jpg;happy;9.0;happy_10.1ns.avi;happy;9.0;congruent;120.0;150.0;157.2463435658512;h_h;;;;;0;47;47;47;;;;;;;623.5192386999261;None;625.0942007999402;625.4107366999378;626.6191069999477;626.6360911999363;633.9855395000195;None;9;0;633.9855395000195;None;;;;;;;;6;;;;;;;0.5087410999694839;635.53555219993;None;None;None;[];635.53555219993;None;['9'];[0.4546568999066949];635.53555219993;None;;;S11293;2022_Mar_17_1936;VideoMask;2021.1.2;119.92205063197511;
2.0;f;012_o_f_h_a.jpg;happy;9.0;happy_2.2ns.avi;happy;9.0;congruent;120.0;150.0;206.34800317295262;h_h;;;;;0;48;48;48;;;;;;;638.535394400009;None;640.5270539999474;640.8435917999595;642.0353805000195;642.0519433999434;654.1766980999382;None;9;0;654.1766980999382;None;;;;;;;;6;;;;;;;0.4616495999507606;655.7348290999653;None;None;None;[];655.7348290999653;None;['9'];[0.6394153001019731];655.7348290999653;None;;;S11293;2022_Mar_17_1936;VideoMask;2021.1.2;119.92205063197511;
3.0;m;033_o_m_h_a.jpg;happy;9.0;happy_24.2ns.avi;happy;9.0;congruent;120.0;150.0;167.9423847659953;h_h;;;;;0;49;49;49;;;;;;;658.7432766999118;None;660.3596800999949;660.6763488999568;661.8347616000101;661.8520287999418;665.5345686000073;None;9;0;665.5345686000073;None;;;;;;;;7;;;;;;;0.4476049999939278;667.084488500026;None;None;None;[];667.084488500026;None;"['9', '9']";"[0.3058964000083506, 0.5697061999235302]";667.084488500026;None;;;S11293;2022_Mar_17_1936;VideoMask;2021.1.2;119.92205063197511;
1.0;f;021_o_f_s_a.jpg;sad;7.0;happy_61.2ns.avi;happy;9.0;incongruent;130.0;150.0;210.94664004826666;s_h;;;;;0;50;50;50;;;;;;;670.0928124999627;None;672.0926000999752;672.4093822999857;673.5674704000121;673.5841156999813;678.0675321000163;None;9;0;678.0675321000163;None;;;;;;;;7;;;;;;;0.44291969994083047;679.617239599931;None;None;None;[];679.617239599931;None;"['9', '9']";"[0.5650954999728128, 0.8209193999646232]";679.617239599931;None;;;S11293;2022_Mar_17_1936;VideoMask;2021.1.2;119.92205063197511;
4.0;m;004_o_m_s_a.jpg;sad;7.0;sad_2.4ns.avi;sad;7.0;congruent;130.0;160.0;153.02079367163634;s_s;;;;;0;51;51;51;;;;;;;682.6258113000076;None;684.1339680999517;684.4505879000062;685.6923250999535;685.7089367000153;693.5503814999247;None;7;0;693.5503814999247;None;;;;;;;;3;;;;;;;0.7118892000289634;695.1000827000244;None;None;None;[];695.1000827000244;None;"['7', '7']";"[0.6581303999992087, 0.9220673999516293]";695.1000827000244;None;;;S11293;2022_Mar_17_1936;VideoMask;2021.1.2;119.92205063197511;
8.0;m;008_y_m_h_a.jpg;happy;9.0;happy_1.2ns.avi;happy;9.0;congruent;120.0;150.0;210.98946429383824;h_h;;;;;0;52;52;52;;;;;;;698.1086966999574;None;700.1501626999816;700.466723499936;701.6419718000107;701.6584755999502;714.3915455000242;None;9;0;714.3915455000242;None;;;;;;;;5;;;;;;;0.8067470999667421;715.9413015999598;None;None;None;[];715.9413015999598;None;None;;715.9413015999598;None;;;S11293;2022_Mar_17_1936;VideoMask;2021.1.2;119.92205063197511;
2.0;f;012_o_f_s_a.jpg;sad;7.0;happy_52.2ns.avi;happy;9.0;incongruent;130.0;150.0;172.57202848318138;s_h;;;;;0;53;53;53;;;;;;;718.957783699967;None;720.5993913999991;720.9160536999116;722.0828574999468;722.0995099999709;725.6161070999224;None;9;0;725.6161070999224;None;;;;;;;;6;;;;;;;0.8624769999878481;727.1659268999938;None;None;None;[];727.1659268999938;None;['9'];[0.7844237999524921];727.1659268999938;None;;;S11293;2022_Mar_17_1936;VideoMask;2021.1.2;119.92205063197511;
9.0;f;019_m_f_s_a.jpg;sad;7.0;happy_61.1ns.avi;happy;9.0;incongruent;130.0;150.0;181.3003220572762;s_h;;;;;0;54;54;54;;;;;;;730.1660305999685;None;731.9324211999774;732.2490950999781;733.4574180999771;733.4740872000111;740.7739916999126;None;9;0;740.7739916999126;None;;;;;;;;6;;;;;;;0.5044313999824226;742.323816100019;None;None;None;[];742.323816100019;None;['9'];[0.38652669999282807];742.323816100019;None;;;S11293;2022_Mar_17_1936;VideoMask;2021.1.2;119.92205063197511;
0.0;f;030_o_f_h_a.jpg;happy;9.0;sad_133.1.wmv;sad;7.0;incongruent;120.0;160.0;198.86251500867985;h_s;;;;;0;55;55;55;;;;;;;745.3239087000256;None;747.1902379000094;747.5069962999551;748.6570512999315;748.6736606999766;750.6402133000083;None;7;0;750.6402133000083;None;;;;;;;;4;;;;;;;1.1739670999813825;752.1901599999983;None;None;None;[];752.1901599999983;None;['7'];[0.6002252000616863];752.1901599999983;None;;;S11293;2022_Mar_17_1936;VideoMask;2021.1.2;119.92205063197511;
0.0;f;040_y_f_h_a.jpg;happy;9.0;sad_128.2.wmv;sad;7.0;incongruent;120.0;160.0;206.10005857915363;h_s;;;;;0;56;56;56;;;;;;;755.1902099999133;None;757.1149346999591;757.4316066999454;758.5982576999813;758.6147473999299;760.5648578000255;None;None;0;760.5648578000255;None;;;;;;;;4;;;;;;;;762.1146971000126;None;None;None;[];762.1146971000126;None;['7'];[0.3075872999615967];762.1146971000126;None;;;S11293;2022_Mar_17_1936;VideoMask;2021.1.2;119.92205063197511;
1.0;f;021_o_f_s_a.jpg;sad;7.0;sad_9.5ns.avi;sad;7.0;congruent;130.0;160.0;206.16642757875042;s_s;;;;;0;57;57;57;;;;;;;765.1148308999836;None;767.0395480999723;767.3562286000233;768.5146956000244;768.5313673999626;774.2144744999241;None;7;0;774.2144744999241;None;;;;;;;;3;;;;;;;0.6557668999303132;775.7644352000207;None;None;None;[];775.7644352000207;None;"['7', '7', '7']";"[0.5860241999616846, 0.9139785999432206, 1.4498675999930128]";775.7644352000207;None;;;S11293;2022_Mar_17_1936;VideoMask;2021.1.2;119.92205063197511;
1.0;f;021_o_f_h_a.jpg;happy;9.0;happy_12.1ns.avi;happy;9.0;congruent;120.0;150.0;132.59080005900228;h_h;;;;;0;58;58;58;;;;;;;778.7643615999259;None;780.1143320000265;780.4308738999534;781.5896814999869;781.6140604999382;789.180678899982;None;9;0;789.180678899982;None;;;;;;;;6;;;;;;;1.017541200038977;790.7305873999139;None;None;None;[];790.7305873999139;None;"['9', '7', '9']";"[1.4996480999980122, 1.92379659996368, 2.3957167000044137]";790.7305873999139;None;;;S11293;2022_Mar_17_1936;VideoMask;2021.1.2;119.92205063197511;
3.0;m;013_y_m_s_a.jpg;sad;7.0;happy_56.2ns.avi;happy;9.0;incongruent;130.0;150.0;163.39234110935848;s_h;;;;;0;59;59;59;;;;;;;793.7389784000115;None;795.3220323999412;795.6387358999345;796.8135280999122;796.8301795999287;801.796941199922;None;9;0;801.796941199922;None;;;;;;;;6;;;;;;;0.5612821999238804;803.3469019000186;None;None;None;[];803.3469019000186;None;['9'];[0.45927669992670417];803.3469019000186;None;;;S11293;2022_Mar_17_1936;VideoMask;2021.1.2;119.92205063197511;
;;;;;;;;;;;;;;;;;;;;;;;;;;;;;;;;;;;;;;;;;;;;;;;;;;;;;;;;;;;;;;;;;806.3469077999471;None;;;;;;
