primePerson;primeGender;prime;primeEmotion;corrAnsPrime;target;targetEmotion;corrAnsTar;Cond;ID_Primer;ID_Target;JitterTime;Condition;example.thisRepN;example.thisTrialN;example.thisN;example.thisIndex;study.thisRepN;study.thisTrialN;study.thisN;study.thisIndex;MR_trigger_time;MR_trigger_number;text_intro.started;text_intro.stopped;text_probe.started;text_probe.stopped;polygon_ISI.started;polygon_ISI.stopped;polygon.started;polygon.stopped;primerImage.started;primerImage.stopped;response.started;response.stopped;key_resp.keys;key_resp.corr;key_resp.started;key_resp.stopped;slider_Text.started;slider_Text.stopped;slider_ex.response;slider_ex.rt;slider_ex.history;slider_ex.started;slider_ex.stopped;Rating;slider_resp_response.keys;slider_resp_response.rt;slider_resp_response.started;slider_resp_response.stopped;text_start.started;text_start.stopped;key_resp.rt;text_slider.started;text_slider.stopped;slider_stud.response;slider_stud.rt;slider_stud.history;slider_stud.started;slider_stud.stopped;slider_resp_study.keys;slider_resp_study.rt;slider_resp_study.started;slider_resp_study.stopped;text_ende.started;text_ende.stopped;participant;date;expName;psychopyVersion;frameRate;
1111;m;1111_m_m_h_a.jpg;happy;9;example_30.4ns.avi;neutral;7;incongruent;120.0;170.0;189.5874364012288;;0;0;0;0;;;;;18.72858750000887;1;18.80726470000809;20.807331100004376;20.807331100004376;None;22.823935100008384;None;24.740307500003837;25.0655390000029;26.198623100004625;26.21540690000984;30.532038400007877;None;None;0;30.532038400007877;None;32.09021720000601;None;None;None;[];32.09021720000601;None;4;['7'];[1.8306011000095168];32.09021720000601;None;;;;;;;;;;;;;;;;;S11944;2022_Dec_22_1629;VideoMask;2021.1.2;120.01949118104812;
1113;f;1113_y_f_s_a.jpg;sad;7;example_30.3ns.avi;neutral;7;incongruent;130.0;170.0;229.02432995836998;;0;1;1;1;;;;;;;;;;;35.098627600003965;None;37.2317347000062;37.54836480000813;38.6817449000082;38.69840410001052;40.681696600004216;None;None;0;40.681696600004216;None;42.23160700000881;None;None;None;[];42.23160700000881;None;6;"['9', '9', '7']";"[0.2491703999985475, 0.37711469999339897, 1.2572439999930793]";42.23160700000881;None;;;;;;;;;;;;;;;;;S11944;2022_Dec_22_1629;VideoMask;2021.1.2;120.01949118104812;
9.0;f;019_m_f_h_a.jpg;happy;9.0;sad_115.1.wmv;sad;7.0;incongruent;120.0;160.0;128.09063432376465;h_s;;;;;0;0;0;0;;;;;;;46.2813055000006;None;47.573008600011235;47.89026970000123;49.05625530000543;49.07296150000184;51.0396524000098;None;7;0;51.0396524000098;None;;;;;;;;3;;;;;45.23174260000815;None;0.6811806999903638;52.589537100007874;None;None;None;[];52.589537100007874;None;"['7', '7']";"[0.9312960999959614, 1.3075099999987287]";52.589537100007874;None;;;S11944;2022_Dec_22_1629;VideoMask;2021.1.2;120.01949118104812;
3.0;m;033_o_m_s_a.jpg;sad;7.0;sad_94.2ns.avi;sad;7.0;congruent;130.0;160.0;182.29120173647655;s_s;;;;;0;1;1;1;;;;;;;55.58957850000297;None;57.3394677000033;57.66448840001249;58.81451580001158;58.831136200009496;61.48085390000779;None;7;0;61.48085390000779;None;;;;;;;;3;;;;;;;0.5120229000021936;63.03094450000208;None;None;None;[];63.03094450000208;None;"['7', '7']";"[1.4257886000123108, 1.92175710000447]";63.03094450000208;None;;;S11944;2022_Dec_22_1629;VideoMask;2021.1.2;120.01949118104812;
8.0;m;008_y_m_h_a.jpg;happy;9.0;happy_26.1ns.avi;happy;9.0;congruent;120.0;150.0;155.9437854594882;h_h;;;;;0;2;2;2;;;;;;;66.03121480000846;None;67.53083620000689;67.8475296000106;68.99737480000476;69.01410350001242;70.97238669999933;None;9;0;70.97238669999933;None;;;;;;;;6;;;;;;;1.0204330999986269;72.52233220000926;None;None;None;[];72.52233220000926;None;['9'];[1.2707630000077188];72.52233220000926;None;;;S11944;2022_Dec_22_1629;VideoMask;2021.1.2;120.01949118104812;
0.0;f;040_y_f_h_a.jpg;happy;9.0;sad_138.1.wmv;sad;7.0;incongruent;120.0;160.0;133.99071306426532;h_s;;;;;0;3;3;3;;;;;;;75.53085049999936;None;76.85543470000266;77.18047250001109;78.3055114000017;78.322150100008;80.30545660000644;None;7;0;80.30545660000644;None;;;;;;;;4;;;;;;;0.991396800003713;81.85531420000189;None;None;None;[];81.85531420000189;None;['7'];[1.6094706999865593];81.85531420000189;None;;;S11944;2022_Dec_22_1629;VideoMask;2021.1.2;120.01949118104812;
8.0;f;028_y_f_s_a.jpg;sad;7.0;sad_64.2ns.avi;sad;7.0;congruent;130.0;160.0;229.88540597086478;s_s;;;;;0;4;4;4;;;;;;;84.85564460000023;None;87.06357600000047;87.38861410001118;88.55682389999856;88.58011270000134;99.51319760001206;None;7;0;99.51319760001206;None;;;;;;;;6;;;;;;;0.7118062000081409;101.06309450000117;None;None;None;[];101.06309450000117;None;['9'];[1.4180312999960734];101.06309450000117;None;;;S11944;2022_Dec_22_1629;VideoMask;2021.1.2;120.01949118104812;
7.0;m;027_o_m_s_a.jpg;sad;7.0;sad_10.4ns.avi;sad;7.0;congruent;130.0;160.0;185.20129417468752;s_s;;;;;0;5;5;5;;;;;;;104.06304710000404;None;105.82115290001093;106.14629940000304;107.31394150000415;107.33781840000302;110.43785660000867;None;7;0;110.43785660000867;None;;;;;;;;3;;;;;;;1.1391140000050655;111.98785400000634;None;None;None;[];111.98785400000634;None;"['7', '7', '7']";"[1.5170748999953503, 1.7728799000033177, 2.437021599995205]";111.98785400000634;None;;;S11944;2022_Dec_22_1629;VideoMask;2021.1.2;120.01949118104812;
2.0;f;012_o_f_s_a.jpg;sad;7.0;sad_7.5ns.avi;sad;7.0;congruent;130.0;160.0;220.27842655424388;s_s;;;;;0;6;6;6;;;;;;;114.99588149999909;None;117.02919260000635;117.35430880000058;118.49704270000802;118.52093740001146;121.27130430001125;None;7;0;121.27130430001125;None;;;;;;;;4;;;;;;;0.9375364999868907;122.82919450000918;None;None;None;[];122.82919450000918;None;['7'];[1.7317171000031522];122.82919450000918;None;;;S11944;2022_Dec_22_1629;VideoMask;2021.1.2;120.01949118104812;
2.0;f;012_o_f_h_a.jpg;happy;9.0;happy_27.1ns.avi;happy;9.0;congruent;120.0;150.0;146.44967055810616;h_h;;;;;0;7;7;7;;;;;;;125.82914220000384;None;127.27052700000058;127.59565920000023;128.75398540000606;128.7706218000094;131.21219730000303;None;9;0;131.21219730000303;None;;;;;;;;4;;;;;;;1.2047141000075499;132.76218309999967;None;None;None;[];132.76218309999967;None;['7'];[1.6547503999900073];132.76218309999967;None;;;S11944;2022_Dec_22_1629;VideoMask;2021.1.2;120.01949118104812;
8.0;f;028_y_f_h_a.jpg;happy;9.0;sad_119.1.wmv;sad;7.0;incongruent;120.0;160.0;148.71526953572538;h_s;;;;;0;8;8;8;;;;;;;135.77080940001179;None;137.2452786000067;137.57038499999908;138.70366600000125;138.72022570000263;140.76187159999972;None;7;0;140.76187159999972;None;;;;;;;;6;;;;;;;0.6310910000029253;142.31182660000923;None;None;None;[];142.31182660000923;None;['9'];[1.424904700004845];142.31182660000923;None;;;S11944;2022_Dec_22_1629;VideoMask;2021.1.2;120.01949118104812;
6.0;m;016_y_m_s_a.jpg;sad;7.0;happy_60.4ns.avi;happy;9.0;incongruent;130.0;150.0;126.02367393611817;s_h;;;;;0;9;9;9;;;;;;;145.31184400001075;None;146.6200431000034;146.93657760000497;148.0784008000046;148.09494970001106;153.86147509999864;None;9;0;153.86147509999864;None;;;;;;;;5;;;;;;;0.4913669000088703;155.41142400000535;None;None;None;[];155.41142400000535;None;None;;155.41142400000535;None;;;S11944;2022_Dec_22_1629;VideoMask;2021.1.2;120.01949118104812;
9.0;f;019_m_f_s_a.jpg;sad;7.0;sad_8.4ns.avi;sad;7.0;congruent;130.0;160.0;171.6633093155257;s_s;;;;;0;10;10;10;;;;;;;158.43633450000198;None;160.1363027000043;160.45294460000878;161.61125130001165;161.62778960001015;169.71928330000082;None;7;0;169.71928330000082;None;;;;;;;;5;;;;;;;0.7936896000028355;171.2692653000122;None;None;None;[];171.2692653000122;None;None;;171.2692653000122;None;;;S11944;2022_Dec_22_1629;VideoMask;2021.1.2;120.01949118104812;
4.0;m;004_o_m_h_a.jpg;happy;9.0;happy_1.1ns.avi;happy;9.0;congruent;120.0;150.0;203.50057144619865;h_h;;;;;0;11;11;11;;;;;;;174.29421380000713;None;176.2856965000101;176.61086890001025;177.76899210001284;177.78572460000578;192.21863970000413;None;9;0;192.21863970000413;None;;;;;;;;5;;;;;;;0.9342256999952951;193.76862360000086;None;None;None;[];193.76862360000086;None;None;;193.76862360000086;None;;;S11944;2022_Dec_22_1629;VideoMask;2021.1.2;120.01949118104812;
7.0;m;027_o_m_h_a.jpg;happy;9.0;happy_20.1ns.avi;happy;9.0;congruent;120.0;150.0;152.91127178874285;h_h;;;;;0;12;12;12;;;;;;;196.7933897000039;None;198.3018035999994;198.62685100000817;199.7766077999986;199.79334790000576;202.76834480000252;None;7;0;202.76834480000252;None;;;;;;;;6;;;;;;;0.5286705000034999;204.3432399000012;None;None;None;[];204.3432399000012;None;['9'];[0.12171589999343269];204.3432399000012;None;;;S11944;2022_Dec_22_1629;VideoMask;2021.1.2;120.01949118104812;
0.0;f;040_y_f_s_a.jpg;sad;7.0;sad_94.3ns.avi;sad;7.0;congruent;130.0;160.0;155.27414203894395;s_s;;;;;0;13;13;13;;;;;;;207.3519243000046;None;208.85139740000886;209.1764234000002;210.3681912000029;210.38475130000734;212.9263273000106;None;7;0;212.9263273000106;None;;;;;;;;4;;;;;;;0.7227112999971723;214.4761651000008;None;None;None;[];214.4761651000008;None;['7'];[1.9409292000054847];214.4761651000008;None;;;S11944;2022_Dec_22_1629;VideoMask;2021.1.2;120.01949118104812;
0.0;f;030_o_f_s_a.jpg;sad;7.0;sad_68.1ns.avi;sad;7.0;congruent;130.0;160.0;158.9411396037211;s_s;;;;;0;14;14;14;;;;;;;217.48470250000537;None;219.0593305000075;219.38453400001163;220.55104740000388;220.56773870000325;227.93413280000095;None;7;0;227.93413280000095;None;;;;;;;;5;;;;;;;0.5148973000032129;229.48416340000404;None;None;None;[];229.48416340000404;None;None;;229.48416340000404;None;;;S11944;2022_Dec_22_1629;VideoMask;2021.1.2;120.01949118104812;
0.0;f;030_o_f_h_a.jpg;happy;9.0;sad_127.1.wmv;sad;7.0;incongruent;120.0;160.0;180.59976631384873;h_s;;;;;0;15;15;15;;;;;;;232.51738230000774;None;234.24221940001007;234.56736440000532;235.6923858000082;235.70889570000872;237.69221639999887;None;None;0;237.69221639999887;None;;;;;;;;6;;;;;;;;239.2332912999991;None;None;None;[];239.2332912999991;None;['9'];[2.79155229999742];239.2332912999991;None;;;S11944;2022_Dec_22_1629;VideoMask;2021.1.2;120.01949118104812;
8.0;m;008_y_m_s_a.jpg;sad;7.0;happy_133.3.wmv;happy;9.0;incongruent;130.0;150.0;152.577966552593;s_h;;;;;0;16;16;16;;;;;;;242.2510062000074;None;243.75855490000686;244.08369970000058;245.2086691000004;245.22513250001066;247.20867950000684;None;9;0;247.20867950000684;None;;;;;;;;6;;;;;;;0.8323165000037989;248.75854010001058;None;None;None;[];248.75854010001058;None;['9'];[2.962527900002897];248.75854010001058;None;;;S11944;2022_Dec_22_1629;VideoMask;2021.1.2;120.01949118104812;
3.0;m;033_o_m_h_a.jpg;happy;9.0;sad_128.1.wmv;sad;7.0;incongruent;120.0;160.0;171.0492454518585;h_s;;;;;0;17;17;17;;;;;;;251.77515230000427;None;253.43334380000306;253.75849750000634;254.90845190000255;254.92493300000206;256.8833489000099;None;7;0;256.8833489000099;None;;;;;;;;4;;;;;;;0.4937814000004437;258.4332296000066;None;None;None;[];258.4332296000066;None;['7'];[1.6238097000023117];258.4332296000066;None;;;S11944;2022_Dec_22_1629;VideoMask;2021.1.2;120.01949118104812;
1.0;f;021_o_f_h_a.jpg;happy;9.0;sad_116.1.wmv;sad;7.0;incongruent;120.0;160.0;184.06847610053055;h_s;;;;;0;18;18;18;;;;;;;261.441823000001;None;263.1913093000039;263.51641300000483;264.64973750000354;264.66639260000375;266.64136059999873;None;7;0;266.64136059999873;None;;;;;;;;5;;;;;;;0.6316252000106033;268.19133640000655;None;None;None;[];268.19133640000655;None;None;;268.19133640000655;None;;;S11944;2022_Dec_22_1629;VideoMask;2021.1.2;120.01949118104812;
4.0;m;004_o_m_s_a.jpg;sad;7.0;happy_28.1ns.avi;happy;9.0;incongruent;130.0;150.0;157.40741103039684;s_h;;;;;0;19;19;19;;;;;;;271.2161940000078;None;272.76604080000834;273.0912214000127;274.2327689000085;274.2494592000003;278.6076153000031;None;9;0;278.6076153000031;None;;;;;;;;9;;;;;;;0.5854678999894531;280.15755360000185;None;None;None;[];280.15755360000185;None;"['9', '9', '9', '9']";"[0.48366849999001715, 0.7313978999882238, 0.9474278999987291, 1.2836494999937713]";280.15755360000185;None;;;S11944;2022_Dec_22_1629;VideoMask;2021.1.2;120.01949118104812;
8.0;f;028_y_f_s_a.jpg;sad;7.0;happy_122.3.wmv;happy;9.0;incongruent;130.0;150.0;171.8670540936116;s_h;;;;;0;20;20;20;;;;;;;283.1662095000065;None;284.84079680001014;285.1658022000047;286.29906299999857;286.3157198000117;288.2906432000018;None;9;0;288.2906432000018;None;;;;;;;;3;;;;;;;0.3984284000034677;289.84060920000775;None;None;None;[];289.84060920000775;None;"['7', '7']";"[0.5285259999945993, 0.8084484999999404]";289.84060920000775;None;;;S11944;2022_Dec_22_1629;VideoMask;2021.1.2;120.01949118104812;
8.0;m;008_y_m_s_a.jpg;sad;7.0;sad_6.5ns.avi;sad;7.0;congruent;130.0;160.0;170.39333839271438;s_s;;;;;0;21;21;21;;;;;;;292.84078730001056;None;294.4819935000123;294.8071734000114;295.9819908000063;295.99871880000865;300.9319700000051;None;7;0;300.9319700000051;None;;;;;;;;4;;;;;;;0.7251057000103174;302.4819028000056;None;None;None;[];302.4819028000056;None;['7'];[0.5191668000043137];302.4819028000056;None;;;S11944;2022_Dec_22_1629;VideoMask;2021.1.2;120.01949118104812;
8.0;f;028_y_f_h_a.jpg;happy;9.0;happy_23.1ns.avi;happy;9.0;congruent;120.0;150.0;225.70986890587952;h_h;;;;;0;22;22;22;;;;;;;305.49055880001106;None;307.5983632999996;307.9234035000118;309.08997670000826;309.106680900004;313.6232311000058;None;9;0;313.6232311000058;None;;;;;;;;9;;;;;;;0.6421220999909565;315.1730729000119;None;None;None;[];315.1730729000119;None;"['9', '9', '9', '9']";"[0.2599904999951832, 0.5159476999979233, 0.7158625999873038, 0.9078423999890219]";315.1730729000119;None;;;S11944;2022_Dec_22_1629;VideoMask;2021.1.2;120.01949118104812;
8.0;m;008_y_m_h_a.jpg;happy;9.0;sad_111.1.wmv;sad;7.0;incongruent;120.0;160.0;152.63076835312847;h_s;;;;;0;23;23;23;;;;;;;318.17345390000264;None;319.65635390000534;319.98129300000437;321.1157458000089;321.13955220000935;323.1062358000054;None;7;0;323.1062358000054;None;;;;;;;;2;;;;;;;0.5029733999981545;324.6562249000126;None;None;None;[];324.6562249000126;None;"['7', '7', '7']";"[0.4568786000018008, 0.648659200000111, 1.5688244000048144]";324.6562249000126;None;;;S11944;2022_Dec_22_1629;VideoMask;2021.1.2;120.01949118104812;
0.0;f;040_y_f_s_a.jpg;sad;7.0;sad_67.2ns.avi;sad;7.0;congruent;130.0;160.0;220.9892697323079;s_s;;;;;0;24;24;24;;;;;;;327.67265860000043;None;329.7728888999991;330.08923199999845;331.21437670000887;331.2310664000106;340.44743690000905;None;7;0;340.44743690000905;None;;;;;;;;3;;;;;;;0.7776477000006707;341.997329100006;None;None;None;[];341.997329100006;None;"['7', '7']";"[0.43579220000538044, 1.0440940000116825]";341.997329100006;None;;;S11944;2022_Dec_22_1629;VideoMask;2021.1.2;120.01949118104812;
8.0;m;008_y_m_s_a.jpg;sad;7.0;happy_29.1ns.avi;happy;9.0;incongruent;130.0;150.0;120.0316142834122;s_h;;;;;0;25;25;25;;;;;;;344.9972417000099;None;346.21380000001227;346.5303911000083;347.70715210000344;347.730550200009;350.3554245999985;None;9;0;350.3554245999985;None;;;;;;;;9;;;;;;;0.6057944999920437;351.9053375000076;None;None;None;[];351.9053375000076;None;"['9', '9', '9', '9']";"[0.38403780000226106, 0.6156066999974428, 0.8076906000060262, 0.99957379999978]";351.9053375000076;None;;;S11944;2022_Dec_22_1629;VideoMask;2021.1.2;120.01949118104812;
6.0;m;016_y_m_s_a.jpg;sad;7.0;sad_8.3ns.avi;sad;7.0;congruent;130.0;160.0;152.85371098242734;s_s;;;;;0;26;26;26;;;;;;;354.9139279000083;None;356.4635233000008;356.779841200012;357.9215523000021;357.9384420999995;365.6715935000102;None;7;0;365.6715935000102;None;;;;;;;;3;;;;;;;0.7534248000010848;367.221549599999;None;None;None;[];367.221549599999;None;"['7', '7', '7']";"[0.6196039999922505, 0.907503700000234, 1.331595899988315]";367.221549599999;None;;;S11944;2022_Dec_22_1629;VideoMask;2021.1.2;120.01949118104812;
6.0;m;016_y_m_h_a.jpg;happy;9.0;sad_114.1.wmv;sad;7.0;incongruent;120.0;160.0;136.20550699298644;h_s;;;;;0;27;27;27;;;;;;;370.2217825000116;None;371.5963902000076;371.9129591000092;373.0380812000076;373.0545715000044;375.04631760000484;None;7;0;375.04631760000484;None;;;;;;;;5;;;;;;;0.5947085999941919;376.59627980001096;None;None;None;[];376.59627980001096;None;None;;376.59627980001096;None;;;S11944;2022_Dec_22_1629;VideoMask;2021.1.2;120.01949118104812;
7.0;m;027_o_m_s_a.jpg;sad;7.0;happy_117.3.wmv;happy;9.0;incongruent;130.0;150.0;215.61964028550614;s_h;;;;;0;28;28;28;;;;;;;379.6211917000037;None;381.629334000012;381.9460564000037;383.0711588999984;383.0877788000071;385.0792868999997;None;9;0;385.0792868999997;None;;;;;;;;7;;;;;;;0.530027800006792;386.62920830000076;None;None;None;[];386.62920830000076;None;"['9', '9']";"[0.5238862999976845, 1.18798329999845]";386.62920830000076;None;;;S11944;2022_Dec_22_1629;VideoMask;2021.1.2;120.01949118104812;
6.0;m;016_y_m_h_a.jpg;happy;9.0;happy_9.2ns.avi;happy;9.0;congruent;120.0;150.0;130.52042428082717;h_h;;;;;0;29;29;29;;;;;;;389.63780380001117;None;390.98753620000207;391.30411730000924;392.4373544000118;392.45397450000746;398.3623066;None;9;0;398.3623066;None;;;;;;;;5;;;;;;;0.5188129000016488;399.9123477000103;None;None;None;[];399.9123477000103;None;"['9', '7']";"[1.2568527000112226, 2.872737600002438]";399.9123477000103;None;;;S11944;2022_Dec_22_1629;VideoMask;2021.1.2;120.01949118104812;
0.0;f;040_y_f_s_a.jpg;sad;7.0;happy_127.3.wmv;happy;9.0;incongruent;130.0;150.0;131.7195455720239;s_h;;;;;0;30;30;30;;;;;;;402.91211270001077;None;404.23692980001215;404.5532668000087;405.6870273000095;405.70370460000413;407.7535058000067;None;9;0;407.7535058000067;None;;;;;;;;9;;;;;;;0.5915332000004128;409.30357250000816;None;None;None;[];409.30357250000816;None;"['9', '9', '9', '9']";"[0.2975820999999996, 0.8974308000033488, 1.1774220000079367, 2.6816462999995565]";409.30357250000816;None;;;S11944;2022_Dec_22_1629;VideoMask;2021.1.2;120.01949118104812;
0.0;f;030_o_f_s_a.jpg;sad;7.0;happy_125.3.wmv;happy;9.0;incongruent;130.0;150.0;220.51454909128134;s_h;;;;;0;31;31;31;;;;;;;412.31208470001;None;414.38678270000673;414.71175040000526;415.8615458999993;415.8783431000047;417.8464990000066;None;9;0;417.8464990000066;None;;;;;;;;3;;;;;;;0.5789726000075461;420.5531744000036;None;None;None;[];420.5531744000036;None;"['7', '7']";"[0.42401970000355504, 0.6719534000003478]";420.5531744000036;None;;;S11944;2022_Dec_22_1629;VideoMask;2021.1.2;120.01949118104812;
0.0;f;030_o_f_s_a.jpg;sad;7.0;sad_64.3ns.avi;sad;7.0;congruent;130.0;160.0;165.78667874766072;s_s;;;;;0;32;32;32;;;;;;;423.5452312000125;None;425.17818870001065;425.50313540000934;426.6548102000088;426.6863755000086;431.6278963000077;None;8;0;431.6278963000077;None;;;;;;;;5;;;;;;;0.4454179999884218;433.17775300001085;None;None;None;[];433.17775300001085;None;None;;433.17775300001085;None;;;S11944;2022_Dec_22_1629;VideoMask;2021.1.2;120.01949118104812;
3.0;m;013_y_m_s_a.jpg;sad;7.0;sad_7.7ns.avi;sad;7.0;congruent;130.0;160.0;196.24182255763262;s_s;;;;;0;33;33;33;;;;;;;436.2110981000005;None;438.0777067000017;438.39422080000804;439.5442558000068;439.5610199000075;445.52745930000674;None;7;0;445.52745930000674;None;;;;;;;;4;;;;;;;0.9216521000053035;447.08573390000674;None;None;None;[];447.08573390000674;None;['7'];[1.6355686000024434];447.08573390000674;None;;;S11944;2022_Dec_22_1629;VideoMask;2021.1.2;120.01949118104812;
3.0;m;013_y_m_h_a.jpg;happy;9.0;happy_9.1ns.avi;happy;9.0;congruent;120.0;150.0;165.1890303600433;h_h;;;;;0;34;34;34;;;;;;;450.0942652000085;None;451.69395140001143;452.01010480000696;453.1689664000005;453.1856146000064;456.3687353999994;None;9;0;456.3687353999994;None;;;;;;;;7;;;;;;;0.8645915999950375;457.927439600011;None;None;None;[];457.927439600011;None;"['9', '9']";"[1.5057480999967083, 1.6976661999942735]";457.927439600011;None;;;S11944;2022_Dec_22_1629;VideoMask;2021.1.2;120.01949118104812;
4.0;m;004_o_m_h_a.jpg;happy;9.0;sad_95.1ns.avi;sad;7.0;incongruent;120.0;160.0;152.68270002069931;h_s;;;;;0;35;35;35;;;;;;;460.9269748000079;None;462.46861400001217;462.79370170000766;463.95176380001067;463.96849170001224;472.72819400001026;None;7;0;472.72819400001026;None;;;;;;;;2;;;;;;;1.0891054999956395;474.2932309000025;None;None;None;[];474.2932309000025;None;"['7', '7', '7', '7']";"[1.1880649000086123, 1.8119873000105144, 2.0758962000109022, 2.3718699000019114]";474.2932309000025;None;;;S11944;2022_Dec_22_1629;VideoMask;2021.1.2;120.01949118104812;
3.0;m;013_y_m_h_a.jpg;happy;9.0;sad_113.2.wmv;sad;7.0;incongruent;120.0;160.0;217.4973891947951;h_s;;;;;0;36;36;36;;;;;;;477.3017697000032;None;479.3346421000024;479.65976290000253;480.7847628000018;480.80145800000173;482.7846891000081;None;7;0;482.7846891000081;None;;;;;;;;5;;;;;;;0.8725152999977581;484.3345813000051;None;None;None;[];484.3345813000051;None;None;;484.3345813000051;None;;;S11944;2022_Dec_22_1629;VideoMask;2021.1.2;120.01949118104812;
4.0;m;004_o_m_h_a.jpg;happy;9.0;happy_25.1ns.avi;happy;9.0;congruent;120.0;150.0;216.63044503818386;h_h;;;;;0;37;37;37;;;;;;;487.36777370001073;None;489.4092764000088;489.73442970000906;490.8593244000076;490.87604880001163;494.55966360001185;None;9;0;494.55966360001185;None;;;;;;;;4;;;;;;;0.6656109000032302;496.125939000005;None;None;None;[];496.125939000005;None;['7'];[2.211741399994935];496.125939000005;None;;;S11944;2022_Dec_22_1629;VideoMask;2021.1.2;120.01949118104812;
4.0;m;004_o_m_s_a.jpg;sad;7.0;happy_131.2.wmv;happy;9.0;incongruent;130.0;150.0;181.38407540847405;s_h;;;;;0;38;38;38;;;;;;;499.1258400000079;None;500.85067179999896;501.17577100000926;502.3089004000067;502.3257131999999;504.3005547000066;None;9;0;504.3005547000066;None;;;;;;;;4;;;;;;;1.0206283000006806;505.8505947000085;None;None;None;[];505.8505947000085;None;['7'];[0.9906885999953374];505.8505947000085;None;;;S11944;2022_Dec_22_1629;VideoMask;2021.1.2;120.01949118104812;
0.0;f;040_y_f_h_a.jpg;happy;9.0;happy_24.3ns.avi;happy;9.0;congruent;120.0;150.0;213.25460698950434;h_h;;;;;0;39;39;39;;;;;;;508.85914030000276;None;510.85871340001177;511.1838070000085;512.3337781000009;512.3503998000087;514.2336916000058;None;9;0;514.2336916000058;None;;;;;;;;2;;;;;;;0.9035731000039959;515.7836290999985;None;None;None;[];515.7836290999985;None;"['7', '7', '7']";"[0.6657225999952061, 1.193455599990557, 2.913603899985901]";515.7836290999985;None;;;S11944;2022_Dec_22_1629;VideoMask;2021.1.2;120.01949118104812;
2.0;f;012_o_f_s_a.jpg;sad;7.0;happy_139.1.wmv;happy;9.0;incongruent;130.0;150.0;162.31500468041804;s_h;;;;;0;40;40;40;;;;;;;518.7835370000103;None;520.3500613000069;520.6751700000023;521.8084955000086;521.8251171000011;523.8093972000061;None;9;0;523.8093972000061;None;;;;;;;;7;;;;;;;0.6078809999889927;525.5583295000106;None;None;None;[];525.5583295000106;None;"['9', '9', '9']";"[0.7229821000073571, 1.1708337000018219, 1.690837600006489]";525.5583295000106;None;;;S11944;2022_Dec_22_1629;VideoMask;2021.1.2;120.01949118104812;
0.0;f;030_o_f_h_a.jpg;happy;9.0;happy_24.1ns.avi;happy;9.0;congruent;120.0;150.0;168.36256624020774;h_h;;;;;0;41;41;41;;;;;;;528.5667519999988;None;530.1914642000047;530.5165410000045;531.6997061000002;531.7163316000078;534.9747325000062;None;9;0;534.9747325000062;None;;;;;;;;4;;;;;;;0.5705442999897059;536.5246762000024;None;None;None;[];536.5246762000024;None;['7'];[1.788665600004606];536.5246762000024;None;;;S11944;2022_Dec_22_1629;VideoMask;2021.1.2;120.01949118104812;
2.0;f;012_o_f_h_a.jpg;happy;9.0;sad_113.1.wmv;sad;7.0;incongruent;120.0;160.0;177.44551734737394;h_s;;;;;0;42;42;42;;;;;;;539.5248162000062;None;541.2327817000041;541.5491257000103;542.699354100012;542.7161656000098;544.682744100006;None;7;0;544.682744100006;None;;;;;;;;3;;;;;;;0.6944864999968559;546.2326702999999;None;None;None;[];546.2326702999999;None;"['7', '7', '7']";"[1.112843700000667, 1.7366440999903716, 2.208619199998793]";546.2326702999999;None;;;S11944;2022_Dec_22_1629;VideoMask;2021.1.2;120.01949118104812;
3.0;m;033_o_m_s_a.jpg;sad;7.0;sad_64.5ns.avi;sad;7.0;congruent;130.0;160.0;130.55717223801247;s_s;;;;;0;43;43;43;;;;;;;549.2328694000025;None;550.5826526000019;550.9074562000023;552.0408845000056;552.0575029000029;558.61570390001;None;7;0;558.61570390001;None;;;;;;;;3;;;;;;;0.6175207000051159;560.1655924000079;None;None;None;[];560.1655924000079;None;"['7', '7']";"[0.9558068000042113, 1.6999327999947127]";560.1655924000079;None;;;S11944;2022_Dec_22_1629;VideoMask;2021.1.2;120.01949118104812;
7.0;m;027_o_m_h_a.jpg;happy;9.0;sad_117.1.wmv;sad;7.0;incongruent;120.0;160.0;181.28665202824095;h_s;;;;;0;44;44;44;;;;;;;563.1738374000124;None;564.9153675000125;565.2403753000108;566.3737345000118;566.3904419000028;568.3653168000019;None;7;0;568.3653168000019;None;;;;;;;;5;;;;;;;0.5800582999945618;569.9152669000032;None;None;None;[];569.9152669000032;None;"['7', '9']";"[0.821891700004926, 2.8379831000056583]";569.9152669000032;None;;;S11944;2022_Dec_22_1629;VideoMask;2021.1.2;120.01949118104812;
3.0;m;033_o_m_s_a.jpg;sad;7.0;happy_126.3.wmv;happy;9.0;incongruent;130.0;150.0;198.85252030535366;s_h;;;;;0;45;45;45;;;;;;;572.915205199999;None;574.8066893000068;575.1318443000055;576.2734231000068;576.2899413999985;578.2651480000059;None;9;0;578.2651480000059;None;;;;;;;;4;;;;;;;0.6402572999941185;579.8149813000055;None;None;None;[];579.8149813000055;None;['7'];[1.6026654000015697];579.8149813000055;None;;;S11944;2022_Dec_22_1629;VideoMask;2021.1.2;120.01949118104812;
3.0;m;033_o_m_h_a.jpg;happy;9.0;sad_136.1.wmv;sad;7.0;incongruent;120.0;160.0;176.97002883463455;h_s;;;;;0;46;46;46;;;;;;;582.8237236999994;None;584.5397693999985;584.8649069000094;585.989656100006;586.0064471000078;587.9897006000101;None;None;0;587.9897006000101;None;;;;;;;;5;;;;;;;;589.5397321000055;None;None;None;[];589.5397321000055;None;None;;589.5397321000055;None;;;S11944;2022_Dec_22_1629;VideoMask;2021.1.2;120.01949118104812;
9.0;f;019_m_f_h_a.jpg;happy;9.0;happy_10.1ns.avi;happy;9.0;congruent;120.0;150.0;157.2463435658512;h_h;;;;;0;47;47;47;;;;;;;592.5645989000041;None;594.1145220000035;594.4310702000075;595.597851700004;595.6144267000054;603.0142611000047;None;9;0;603.0142611000047;None;;;;;;;;5;;;;;;;0.9632733000034932;604.5641943000082;None;None;None;[];604.5641943000082;None;None;;604.5641943000082;None;;;S11944;2022_Dec_22_1629;VideoMask;2021.1.2;120.01949118104812;
2.0;f;012_o_f_h_a.jpg;happy;9.0;happy_2.2ns.avi;happy;9.0;congruent;120.0;150.0;206.34800317295262;h_h;;;;;0;48;48;48;;;;;;;607.5892448000086;None;609.5640440999996;609.8806421000045;611.0473257000122;611.064045200008;623.2220486000006;None;9;0;623.2220486000006;None;;;;;;;;5;;;;;;;0.5391983000008622;624.7802636999986;None;None;None;[];624.7802636999986;None;None;;624.7802636999986;None;;;S11944;2022_Dec_22_1629;VideoMask;2021.1.2;120.01949118104812;
3.0;m;033_o_m_h_a.jpg;happy;9.0;happy_24.2ns.avi;happy;9.0;congruent;120.0;150.0;167.9423847659953;h_h;;;;;0;49;49;49;;;;;;;627.8135433999996;None;629.4300504999992;629.7466719000076;630.9300572000066;630.9467340000119;634.6049379000033;None;9;0;634.6049379000033;None;;;;;;;;4;;;;;;;0.9807895999983884;636.1548959000065;None;None;None;[];636.1548959000065;None;['7'];[1.5428801999951247];636.1548959000065;None;;;S11944;2022_Dec_22_1629;VideoMask;2021.1.2;120.01949118104812;
1.0;f;021_o_f_s_a.jpg;sad;7.0;happy_61.2ns.avi;happy;9.0;incongruent;130.0;150.0;210.94664004826666;s_h;;;;;0;50;50;50;;;;;;;639.1631505000114;None;641.1631146;641.4793372999993;642.6545592000039;642.6713579000061;647.1379171000008;None;9;0;647.1379171000008;None;;;;;;;;5;;;;;;;0.4475016000069445;648.6878037999995;None;None;None;[];648.6878037999995;None;None;;648.6878037999995;None;;;S11944;2022_Dec_22_1629;VideoMask;2021.1.2;120.01949118104812;
4.0;m;004_o_m_s_a.jpg;sad;7.0;sad_2.4ns.avi;sad;7.0;congruent;130.0;160.0;153.02079367163634;s_s;;;;;0;51;51;51;;;;;;;651.7211157000129;None;653.2460538000014;653.5710331000009;654.7226767000102;654.738657400012;662.6624146000104;None;7;0;662.6624146000104;None;;;;;;;;4;;;;;;;0.45099919999483973;664.212314000004;None;None;None;[];664.212314000004;None;['7'];[2.516975699996692];664.212314000004;None;;;S11944;2022_Dec_22_1629;VideoMask;2021.1.2;120.01949118104812;
8.0;m;008_y_m_h_a.jpg;happy;9.0;happy_1.2ns.avi;happy;9.0;congruent;120.0;150.0;210.98946429383824;h_h;;;;;0;52;52;52;;;;;;;667.2127417000011;None;669.2622231999994;669.5787271000008;670.7371947000065;670.7540163000085;683.5129339000123;None;9;0;683.5129339000123;None;;;;;;;;5;;;;;;;0.7763973999972222;685.0783879000082;None;None;None;[];685.0783879000082;None;None;;685.0783879000082;None;;;S11944;2022_Dec_22_1629;VideoMask;2021.1.2;120.01949118104812;
2.0;f;012_o_f_s_a.jpg;sad;7.0;happy_52.2ns.avi;happy;9.0;incongruent;130.0;150.0;172.57202848318138;s_h;;;;;0;53;53;53;;;;;;;688.0949096000113;None;689.7364475000068;690.0616774000082;691.2115526000125;691.228156000012;694.7364748000109;None;9;0;694.7364748000109;None;;;;;;;;4;;;;;;;0.5771262999915052;696.4863555000047;None;None;None;[];696.4863555000047;None;['7'];[1.9871005000022706];696.4863555000047;None;;;S11944;2022_Dec_22_1629;VideoMask;2021.1.2;120.01949118104812;
9.0;f;019_m_f_s_a.jpg;sad;7.0;happy_61.1ns.avi;happy;9.0;incongruent;130.0;150.0;181.3003220572762;s_h;;;;;0;54;54;54;;;;;;;699.4946244000021;None;701.277820000003;701.5945433000015;702.736049500003;702.7527101000014;710.1193223000009;None;9;0;710.1193223000009;None;;;;;;;;4;;;;;;;0.6420231999945827;711.6692341000016;None;None;None;[];711.6692341000016;None;['7'];[1.7247883999953046];711.6692341000016;None;;;S11944;2022_Dec_22_1629;VideoMask;2021.1.2;120.01949118104812;
0.0;f;030_o_f_h_a.jpg;happy;9.0;sad_133.1.wmv;sad;7.0;incongruent;120.0;160.0;198.86251500867985;h_s;;;;;0;55;55;55;;;;;;;714.6695260999986;None;716.5606393000053;716.8935691000079;718.0274002000078;718.0440631000092;720.0272384999989;None;7;0;720.0272384999989;None;;;;;;;;2;;;;;;;0.37426210001285654;721.5772252000024;None;None;None;[];721.5772252000024;None;"['7', '7', '7']";"[0.3924871999915922, 0.8721398999914527, 1.128177799997502]";721.5772252000024;None;;;S11944;2022_Dec_22_1629;VideoMask;2021.1.2;120.01949118104812;
0.0;f;040_y_f_h_a.jpg;happy;9.0;sad_128.2.wmv;sad;7.0;incongruent;120.0;160.0;206.10005857915363;h_s;;;;;0;56;56;56;;;;;;;724.5858758000104;None;726.5187536000012;726.8521851000114;727.9852314000018;728.0019616000063;729.9770172999997;None;7;0;729.9770172999997;None;;;;;;;;2;;;;;;;0.5285548999963794;731.5269333000033;None;None;None;[];731.5269333000033;None;"['7', '7', '7', '7']";"[0.5786019999941345, 1.058438699998078, 1.3143784999992931, 1.5704925000027288]";731.5269333000033;None;;;S11944;2022_Dec_22_1629;VideoMask;2021.1.2;120.01949118104812;
1.0;f;021_o_f_s_a.jpg;sad;7.0;sad_9.5ns.avi;sad;7.0;congruent;130.0;160.0;206.16642757875042;s_s;;;;;0;57;57;57;;;;;;;734.5272809000016;None;736.4768293000088;736.8017588000075;737.9685823000036;737.9851125999994;743.6516077000124;None;7;0;743.6516077000124;None;;;;;;;;3;;;;;;;0.6304085000010673;745.2015416000067;None;None;None;[];745.2015416000067;None;"['7', '7']";"[0.432020599997486, 0.6639800999982981]";745.2015416000067;None;;;S11944;2022_Dec_22_1629;VideoMask;2021.1.2;120.01949118104812;
1.0;f;021_o_f_h_a.jpg;happy;9.0;happy_12.1ns.avi;happy;9.0;congruent;120.0;150.0;132.59080005900228;h_h;;;;;0;58;58;58;;;;;;;748.2018719000043;None;749.5515167000121;749.8764601000003;751.059693800009;751.0763350000052;758.6181570000044;None;9;0;758.6181570000044;None;;;;;;;;9;;;;;;;0.5913200999930268;760.1760666000046;None;None;None;[];760.1760666000046;None;"['9', '9', '9', '9']";"[0.8015254000056302, 1.1134037000010721, 1.3693236999970395, 1.633408599998802]";760.1760666000046;None;;;S11944;2022_Dec_22_1629;VideoMask;2021.1.2;120.01949118104812;
3.0;m;013_y_m_s_a.jpg;sad;7.0;happy_56.2ns.avi;happy;9.0;incongruent;130.0;150.0;163.39234110935848;s_h;;;;;0;59;59;59;;;;;;;763.1764409000025;None;764.7758027000091;765.0925409000047;766.2601794000075;766.2842170000076;771.2507665000012;None;9;0;771.2507665000012;None;;;;;;;;5;;;;;;;0.7347826000041096;772.8007520000101;None;None;None;[];772.8007520000101;None;None;;772.8007520000101;None;;;S11944;2022_Dec_22_1629;VideoMask;2021.1.2;120.01949118104812;
;;;;;;;;;;;;;;;;;;;;;;;;;;;;;;;;;;;;;;;;;;;;;;;;;;;;;;;;;;;;;;;;;775.8339302000095;None;;;;;;
