primePerson;primeGender;prime;primeEmotion;corrAnsPrime;target;targetEmotion;corrAnsTar;Cond;ID_Primer;ID_Target;JitterTime;example.thisRepN;example.thisTrialN;example.thisN;example.thisIndex;study.thisRepN;study.thisTrialN;study.thisN;study.thisIndex;MR_trigger_time;MR_trigger_number;text_intro.started;text_intro.stopped;text_probe.started;text_probe.stopped;polygon_ISI.started;polygon_ISI.stopped;polygon.started;polygon.stopped;primerImage.started;primerImage.stopped;response.started;response.stopped;key_resp.keys;key_resp.corr;key_resp.rt;key_resp.started;key_resp.stopped;slider_Text.started;slider_Text.stopped;slider_ex.response;slider_ex.rt;slider_ex.history;slider_ex.started;slider_ex.stopped;Rating;slider_resp_response.keys;slider_resp_response.started;slider_resp_response.stopped;text_start.started;text_start.stopped;text_slider.started;text_slider.stopped;slider_stud.response;slider_stud.rt;slider_stud.history;slider_stud.started;slider_stud.stopped;slider_resp_study.keys;slider_resp_study.started;slider_resp_study.stopped;slider_resp_study.rt;text_ende.started;text_ende.stopped;participant;date;expName;psychopyVersion;frameRate;
1111;m;1111_m_m_h_a.jpg;happy;9;example_30.4ns.avi;neutral;7;incongruent;120.0;170.0;189.5874364012288;0;0;0;0;;;;;36.123358699987875;1;36.20085989998188;38.201041799999075;38.201041799999075;None;40.226009200006956;None;42.442646099982085;42.767491999984486;43.92612980000558;43.942421499988995;48.242357699986314;None;8;0;0.48379060000297613;48.242357699986314;None;49.80940850000479;None;None;None;[];49.80940850000479;None;5;None;49.80940850000479;None;;;;;;;;;;;;;;;;S10770;2021_Jul_23_1156;VideoMask;2021.1.2;120.05493715224857;
1113;f;1113_y_f_s_a.jpg;sad;7;example_30.3ns.avi;neutral;7;incongruent;130.0;170.0;229.02432995836998;0;1;1;1;;;;;;;;;;;52.82565479999175;None;54.94202270000824;55.258684500004165;56.450439999985974;56.46706160000758;58.40878229998634;None;8;0;0.7094579999975394;58.40878229998634;None;59.96698609998566;None;None;None;[];59.96698609998566;None;5;None;59.96698609998566;None;;;;;;;;;;;;;;;;S10770;2021_Jul_23_1156;VideoMask;2021.1.2;120.05493715224857;
3.0;m;033_o_m_s_a.jpg;sad;7.0;sad_94.2ns.avi;sad;7.0;congruent;130.0;160.0;228.63582583242618;;;;;0;0;0;0;;;;;;;64.00863559998106;None;66.12498249998316;66.44172559998697;67.60836630000267;67.62496190000093;70.26666170000681;None;8;0;0.403561900020577;70.26666170000681;None;;;;;;;;5;;;;62.99196230000234;None;71.82497829999193;None;None;None;[];71.82497829999193;None;None;71.82497829999193;None;;;;S10770;2021_Jul_23_1156;VideoMask;2021.1.2;120.05493715224857;
0.0;f;030_o_f_s_a.jpg;sad;7.0;sad_68.1ns.avi;sad;7.0;congruent;130.0;160.0;163.14738846961149;;;;;0;1;1;1;;;;;;;74.8416098000016;None;76.44133699999657;76.75835389998974;77.91717410000274;77.94144860000233;85.31628410000121;None;9;0;0.594180599990068;85.31628410000121;None;;;;;;;;4;;;;;;86.88291250000475;None;None;None;[];86.88291250000475;None;['7'];86.88291250000475;None;[0.7874541000055615];;;S10770;2021_Jul_23_1156;VideoMask;2021.1.2;120.05493715224857;
8.0;m;008_y_m_h_a.jpg;happy;9.0;happy_26.1ns.avi;happy;9.0;congruent;140.0;150.0;184.58211837191982;;;;;0;2;2;2;;;;;;;89.89138139999704;None;91.62430669998867;91.94111319998046;93.16583310000715;93.18256929999916;95.08306449998054;None;8;0;0.7712573000171687;95.08306449998054;None;;;;;;;;5;;;;;;96.82412549998844;None;None;None;[];96.82412549998844;None;None;96.82412549998844;None;;;;S10770;2021_Jul_23_1156;VideoMask;2021.1.2;120.05493715224857;
0.0;f;030_o_f_s_a.jpg;sad;7.0;happy_125.3.wmv;happy;9.0;incongruent;130.0;150.0;189.50417957278896;;;;;0;3;3;3;;;;;;;99.85750650000409;None;101.65760139998747;101.9826955999888;103.11577119998401;103.13242859998718;105.10739210000611;None;9;0;0.7710981999989599;105.10739210000611;None;;;;;;;;6;;;;;;106.65737480000826;None;None;None;[];106.65737480000826;None;['9'];106.65737480000826;None;[0.5810694999818224];;;S10770;2021_Jul_23_1156;VideoMask;2021.1.2;120.05493715224857;
1.0;f;021_o_f_s_a.jpg;sad;7.0;sad_9.5ns.avi;sad;7.0;congruent;130.0;160.0;156.55128602613038;;;;;0;4;4;4;;;;;;;109.65725789999124;None;111.17377530000522;111.49054420000175;112.62365419999696;112.64926119998563;118.34860249998746;None;7;0;1.2097721000027377;118.34860249998746;None;;;;;;;;4;;;;;;119.89870940000401;None;None;None;[];119.89870940000401;None;['7'];119.89870940000401;None;[0.5956641999946442];;;S10770;2021_Jul_23_1156;VideoMask;2021.1.2;120.05493715224857;
4.0;m;004_o_m_s_a.jpg;sad;7.0;happy_28.1ns.avi;happy;9.0;incongruent;130.0;150.0;219.83540383939274;;;;;0;5;5;5;;;;;;;122.90719480000553;None;124.95671569998376;125.27348099998198;126.4741786000086;126.4985205999983;130.79847619999782;None;9;0;0.6077646000194363;130.79847619999782;None;;;;;;;;7;;;;;;132.34829439999885;None;None;None;[];132.34829439999885;None;"['9', '9', '9']";132.34829439999885;None;"[0.3940459000004921, 0.8182291999983136, 1.8741035999846645]";;;S10770;2021_Jul_23_1156;VideoMask;2021.1.2;120.05493715224857;
2.0;f;012_o_f_s_a.jpg;sad;7.0;sad_7.5ns.avi;sad;7.0;congruent;130.0;160.0;147.95125229894379;;;;;0;6;6;6;;;;;;;135.34838310000487;None;136.77305269998033;137.09036519998335;138.26482919999398;138.28146790000028;141.0149711999984;None;8;0;0.6315955999889411;141.0149711999984;None;;;;;;;;5;;;;;;142.6146785999881;None;None;None;[];142.6146785999881;None;None;142.6146785999881;None;;;;S10770;2021_Jul_23_1156;VideoMask;2021.1.2;120.05493715224857;
2.0;f;012_o_f_s_a.jpg;sad;7.0;happy_52.2ns.avi;happy;9.0;incongruent;130.0;150.0;144.3898903070799;;;;;0;7;7;7;;;;;;;145.6396027999872;None;147.04773649998242;147.3644532999897;148.5561544999946;148.5728611999948;152.0561601999798;None;8;0;0.3822980999830179;152.0561601999798;None;;;;;;;;5;;;;;;153.60598510000273;None;None;None;[];153.60598510000273;None;None;153.60598510000273;None;;;;S10770;2021_Jul_23_1156;VideoMask;2021.1.2;120.05493715224857;
0.0;f;040_y_f_s_a.jpg;sad;7.0;sad_67.2ns.avi;sad;7.0;congruent;130.0;160.0;192.80086779892653;;;;;0;8;8;8;;;;;;;156.62264650000725;None;158.48099969999748;158.7973701999872;159.97250189998886;159.9894886999973;169.1557275999803;None;8;0;0.38679099999717437;169.1557275999803;None;;;;;;;;5;;;;;;170.70558270000038;None;None;None;[];170.70558270000038;None;None;170.70558270000038;None;;;;S10770;2021_Jul_23_1156;VideoMask;2021.1.2;120.05493715224857;
3.0;m;013_y_m_s_a.jpg;sad;7.0;happy_56.2ns.avi;happy;9.0;incongruent;130.0;150.0;134.62621969351147;;;;;0;9;9;9;;;;;;;173.73035969998455;None;175.0719457999803;175.3886922999809;176.51373949999106;176.53036340000108;181.5468431999907;None;8;0;0.40364529998623766;181.5468431999907;None;;;;;;;;5;;;;;;183.09681920000003;None;None;None;[];183.09681920000003;None;None;183.09681920000003;None;;;;S10770;2021_Jul_23_1156;VideoMask;2021.1.2;120.05493715224857;
0.0;f;030_o_f_h_a.jpg;happy;9.0;sad_133.1.wmv;sad;7.0;incongruent;120.0;160.0;238.4103736452693;;;;;0;10;10;10;;;;;;;186.1308003999875;None;188.32157450000523;188.6383106999856;189.78004139999393;189.7969921999902;191.77173859998584;None;None;0;;191.77173859998584;None;;;;;;;;5;;;;;;193.32164660000126;None;None;None;[];193.32164660000126;None;None;193.32164660000126;None;;;;S10770;2021_Jul_23_1156;VideoMask;2021.1.2;120.05493715224857;
2.0;f;012_o_f_h_a.jpg;happy;9.0;happy_2.2ns.avi;happy;9.0;congruent;140.0;150.0;120.08648649110712;;;;;0;11;11;11;;;;;;;196.34653869998874;None;197.60482469998533;197.9214563999849;199.0880150999874;199.10461769998074;211.2628247999819;None;9;0;0.48008150001987815;211.2628247999819;None;;;;;;;;6;;;;;;212.82104139999137;None;None;None;[];212.82104139999137;None;['9'];212.82104139999137;None;[0.3136196999985259];;;S10770;2021_Jul_23_1156;VideoMask;2021.1.2;120.05493715224857;
9.0;f;019_m_f_s_a.jpg;sad;7.0;sad_8.4ns.avi;sad;7.0;congruent;130.0;160.0;169.3395974323834;;;;;0;12;12;12;;;;;;;215.82935489999363;None;217.4958771999809;217.81249989999924;218.97923239998636;218.9958851999836;227.08734269998968;None;8;0;0.39922620001016185;227.08734269998968;None;;;;;;;;5;;;;;;228.63715819999925;None;None;None;[];228.63715819999925;None;None;228.63715819999925;None;;;;S10770;2021_Jul_23_1156;VideoMask;2021.1.2;120.05493715224857;
8.0;m;008_y_m_s_a.jpg;sad;7.0;sad_6.5ns.avi;sad;7.0;congruent;130.0;160.0;124.24628091899196;;;;;0;13;13;13;;;;;;;231.6622575999936;None;232.9371897999954;233.25371689998428;234.4038417999982;234.42045079998206;239.38708970000152;None;8;0;0.6354204000090249;239.38708970000152;None;;;;;;;;5;;;;;;240.93693739999435;None;None;None;[];240.93693739999435;None;None;240.93693739999435;None;;;;S10770;2021_Jul_23_1156;VideoMask;2021.1.2;120.05493715224857;
1.0;f;021_o_f_h_a.jpg;happy;9.0;happy_12.1ns.avi;happy;9.0;congruent;140.0;150.0;236.6487020138435;;;;;0;14;14;14;;;;;;;243.97016530000838;None;246.18678859999636;246.50336070000776;247.6450962999952;247.6617389000021;255.25328370000352;None;9;0;0.6652908000105526;255.25328370000352;None;;;;;;;;6;;;;;;256.8031456999888;None;None;None;[];256.8031456999888;None;['9'];256.8031456999888;None;[0.7075428000243846];;;S10770;2021_Jul_23_1156;VideoMask;2021.1.2;120.05493715224857;
8.0;f;028_y_f_s_a.jpg;sad;7.0;sad_64.2ns.avi;sad;7.0;congruent;130.0;160.0;238.8507440172915;;;;;0;15;15;15;;;;;;;259.8113963000069;None;262.0946743999957;262.4113501999818;263.5860517999972;263.6029770000023;274.5444286999991;None;8;0;0.4782722000090871;274.5444286999991;None;;;;;;;;5;;;;;;276.0942332999839;None;None;None;[];276.0942332999839;None;None;276.0942332999839;None;;;;S10770;2021_Jul_23_1156;VideoMask;2021.1.2;120.05493715224857;
2.0;f;012_o_f_s_a.jpg;sad;7.0;happy_139.1.wmv;happy;9.0;incongruent;130.0;150.0;185.59030554143408;;;;;0;16;16;16;;;;;;;279.11953840000206;None;280.8688969000068;281.1856855000078;282.31902930000797;282.33574199999566;284.31900759998825;None;8;0;0.575530100002652;284.31900759998825;None;;;;;;;;5;;;;;;285.86899230000563;None;None;None;[];285.86899230000563;None;None;285.86899230000563;None;;;;S10770;2021_Jul_23_1156;VideoMask;2021.1.2;120.05493715224857;
3.0;m;033_o_m_s_a.jpg;sad;7.0;sad_64.5ns.avi;sad;7.0;congruent;130.0;160.0;159.52646627166388;;;;;0;17;17;17;;;;;;;288.88549429998966;None;290.46043439998175;290.7771000000066;291.95179709998774;291.96879539999645;298.4936578999914;None;8;0;0.6569610000005923;298.4936578999914;None;;;;;;;;5;;;;;;300.04359809999005;None;None;None;[];300.04359809999005;None;None;300.04359809999005;None;;;;S10770;2021_Jul_23_1156;VideoMask;2021.1.2;120.05493715224857;
0.0;f;040_y_f_s_a.jpg;sad;7.0;happy_127.3.wmv;happy;9.0;incongruent;130.0;150.0;131.0431594605889;;;;;0;18;18;18;;;;;;;303.0768424999842;None;304.3766765999899;304.69338509999216;305.8268093999941;305.84347999998135;307.90176039998187;None;9;0;0.5689674000022933;307.90176039998187;None;;;;;;;;6;;;;;;309.4516605999961;None;None;None;[];309.4516605999961;None;"['9', '9']";309.4516605999961;None;"[0.2108942000195384, 1.9231106000079308]";;;S10770;2021_Jul_23_1156;VideoMask;2021.1.2;120.05493715224857;
3.0;m;033_o_m_h_a.jpg;happy;9.0;sad_128.1.wmv;sad;7.0;incongruent;120.0;160.0;168.97426303437265;;;;;0;19;19;19;;;;;;;312.4519600000058;None;314.0764096000057;314.39305119999335;315.5182313999976;315.5347386999929;317.52635659999214;None;8;0;0.48827519998303615;317.52635659999214;None;;;;;;;;5;;;;;;319.0681050999847;None;None;None;[];319.0681050999847;None;None;319.0681050999847;None;;;;S10770;2021_Jul_23_1156;VideoMask;2021.1.2;120.05493715224857;
9.0;f;019_m_f_h_a.jpg;happy;9.0;sad_115.1.wmv;sad;7.0;incongruent;120.0;160.0;202.13700247699333;;;;;0;20;20;20;;;;;;;322.093068999995;None;323.9844269999885;324.3011217000021;325.42622870000196;325.44286479998846;327.4346216999984;None;8;0;0.8518565999984276;327.4346216999984;None;;;;;;;;5;;;;;;328.98446159999;None;None;None;[];328.98446159999;None;None;328.98446159999;None;;;;S10770;2021_Jul_23_1156;VideoMask;2021.1.2;120.05493715224857;
8.0;m;008_y_m_h_a.jpg;happy;9.0;happy_1.2ns.avi;happy;9.0;congruent;140.0;150.0;155.22310421045015;;;;;0;21;21;21;;;;;;;332.0008954000077;None;333.5675873;333.8842018999858;335.0591990999819;335.0759208999807;347.8090333;None;8;0;0.7337190000107512;347.8090333;None;;;;;;;;5;;;;;;349.3587726999831;None;None;None;[];349.3587726999831;None;None;349.3587726999831;None;;;;S10770;2021_Jul_23_1156;VideoMask;2021.1.2;120.05493715224857;
0.0;f;040_y_f_s_a.jpg;sad;7.0;sad_94.3ns.avi;sad;7.0;congruent;130.0;160.0;157.18644691248227;;;;;0;22;22;22;;;;;;;352.38362419998157;None;353.9171369999822;354.2336382000067;355.42522949998965;355.441837099992;357.99233720000484;None;8;0;0.3743622000038158;357.99233720000484;None;;;;;;;;5;;;;;;359.5502375999931;None;None;None;[];359.5502375999931;None;None;359.5502375999931;None;;;;S10770;2021_Jul_23_1156;VideoMask;2021.1.2;120.05493715224857;
6.0;m;016_y_m_s_a.jpg;sad;7.0;happy_60.4ns.avi;happy;9.0;incongruent;130.0;150.0;135.96622391936876;;;;;0;23;23;23;;;;;;;362.58355939999456;None;363.9585453000036;364.27519260000554;365.4001298999938;365.41670649999287;371.2000531000085;None;8;0;0.8065984999993816;371.2000531000085;None;;;;;;;;5;;;;;;372.74987749999855;None;None;None;[];372.74987749999855;None;None;372.74987749999855;None;;;;S10770;2021_Jul_23_1156;VideoMask;2021.1.2;120.05493715224857;
0.0;f;030_o_f_h_a.jpg;happy;9.0;happy_24.1ns.avi;happy;9.0;congruent;140.0;150.0;187.2363405679046;;;;;0;24;24;24;;;;;;;375.774794500001;None;377.5586149999872;377.8745756999997;379.03346330000204;379.05847590000485;382.34133279998787;None;9;0;0.4574200000206474;382.34133279998787;None;;;;;;;;6;;;;;;383.8912362999981;None;None;None;[];383.8912362999981;None;['9'];383.8912362999981;None;[0.3231255999999121];;;S10770;2021_Jul_23_1156;VideoMask;2021.1.2;120.05493715224857;
8.0;m;008_y_m_s_a.jpg;sad;7.0;happy_133.3.wmv;happy;9.0;incongruent;130.0;150.0;151.65964880545846;;;;;0;25;25;25;;;;;;;386.89127940000617;None;388.36601460000384;388.6826891999808;389.807664699998;389.82432929999777;391.8160080999951;None;9;0;1.0867470000230242;391.8160080999951;None;;;;;;;;5;;;;;;393.36602159999893;None;None;None;[];393.36602159999893;None;['9'];393.36602159999893;None;[1.152646000002278];;;S10770;2021_Jul_23_1156;VideoMask;2021.1.2;120.05493715224857;
1.0;f;021_o_f_s_a.jpg;sad;7.0;happy_61.2ns.avi;happy;9.0;incongruent;130.0;150.0;146.79956415721207;;;;;0;26;26;26;;;;;;;396.3658945999923;None;397.80744020000566;398.12466840000707;399.2822082999919;399.2989980999846;403.78233990000444;None;8;0;0.3761903999838978;403.78233990000444;None;;;;;;;;5;;;;;;405.3323151000077;None;None;None;[];405.3323151000077;None;None;405.3323151000077;None;;;;S10770;2021_Jul_23_1156;VideoMask;2021.1.2;120.05493715224857;
1.0;f;021_o_f_h_a.jpg;happy;9.0;sad_116.1.wmv;sad;7.0;incongruent;120.0;160.0;205.93899364307754;;;;;0;27;27;27;;;;;;;408.36548079998465;None;410.29867920000106;410.6153812999837;411.74874919999274;411.76546940000844;413.75712959998054;None;8;0;0.5855605999822728;413.75712959998054;None;;;;;;;;5;;;;;;415.31531330000143;None;None;None;[];415.31531330000143;None;None;415.31531330000143;None;;;;S10770;2021_Jul_23_1156;VideoMask;2021.1.2;120.05493715224857;
7.0;m;027_o_m_h_a.jpg;happy;9.0;happy_20.1ns.avi;happy;9.0;congruent;140.0;150.0;145.4488529976734;;;;;0;28;28;28;;;;;;;418.34854099998483;None;419.7735962999868;420.0901365999889;421.22353889999795;421.2402046000061;424.2402718999947;None;8;0;0.4385820000024978;424.2402718999947;None;;;;;;;;5;;;;;;425.79007529999944;None;None;None;[];425.79007529999944;None;None;425.79007529999944;None;;;;S10770;2021_Jul_23_1156;VideoMask;2021.1.2;120.05493715224857;
3.0;m;033_o_m_s_a.jpg;sad;7.0;happy_126.3.wmv;happy;9.0;incongruent;130.0;150.0;220.47504181707743;;;;;0;29;29;29;;;;;;;428.8233685999876;None;430.88157949998276;431.1980922000075;432.33145649998914;432.3482753999997;434.33158579998417;None;8;0;0.6991527999925893;434.33158579998417;None;;;;;;;;5;;;;;;435.8814488000062;None;None;None;[];435.8814488000062;None;None;435.8814488000062;None;;;;S10770;2021_Jul_23_1156;VideoMask;2021.1.2;120.05493715224857;
4.0;m;004_o_m_s_a.jpg;sad;7.0;sad_2.4ns.avi;sad;7.0;congruent;130.0;160.0;153.9424691910033;;;;;0;30;30;30;;;;;;;438.9147177999839;None;440.4146417999873;440.7311434999865;441.8729932999995;441.8896049000032;449.83122279998497;None;8;0;0.3514523000048939;449.83122279998497;None;;;;;;;;5;;;;;;451.3974522000062;None;None;None;[];451.3974522000062;None;None;451.3974522000062;None;;;;S10770;2021_Jul_23_1156;VideoMask;2021.1.2;120.05493715224857;
8.0;m;008_y_m_h_a.jpg;happy;9.0;sad_111.1.wmv;sad;7.0;incongruent;120.0;160.0;182.0123397825363;;;;;0;31;31;31;;;;;;;454.4309285999916;None;456.1640628000023;456.4807807999896;457.6058381999901;457.6225231999997;459.6143095000007;None;8;0;1.2005253999959677;459.6143095000007;None;;;;;;;;5;;;;;;461.164059600007;None;None;None;[];461.164059600007;None;None;461.164059600007;None;;;;S10770;2021_Jul_23_1156;VideoMask;2021.1.2;120.05493715224857;
4.0;m;004_o_m_h_a.jpg;happy;9.0;happy_1.1ns.avi;happy;9.0;congruent;140.0;150.0;145.41905773865074;;;;;0;32;32;32;;;;;;;464.18045139999595;None;465.68041719999746;465.99727960000746;467.1886825999827;467.20533259998774;481.6135865999968;None;9;0;0.641056499996921;481.6135865999968;None;;;;;;;;6;;;;;;483.16343059999053;None;None;None;[];483.16343059999053;None;['9'];483.16343059999053;None;[0.25958969999919645];;;S10770;2021_Jul_23_1156;VideoMask;2021.1.2;120.05493715224857;
4.0;m;004_o_m_s_a.jpg;sad;7.0;happy_131.2.wmv;happy;9.0;incongruent;130.0;150.0;163.9874412082805;;;;;0;33;33;33;;;;;;;486.1637946999981;None;487.74649980000686;488.06321809999645;489.19636509998236;489.21305120000034;491.196492499992;None;9;0;0.7944741999963298;491.196492499992;None;;;;;;;;6;;;;;;492.7464970999863;None;None;None;[];492.7464970999863;None;['9'];492.7464970999863;None;[0.28454880000208504];;;S10770;2021_Jul_23_1156;VideoMask;2021.1.2;120.05493715224857;
2.0;f;012_o_f_h_a.jpg;happy;9.0;happy_27.1ns.avi;happy;9.0;congruent;140.0;150.0;207.9053492649655;;;;;0;34;34;34;;;;;;;495.7465744999936;None;497.679558200005;497.99627340000006;499.1213511999813;499.13868340000045;501.6213058999856;None;8;0;0.3375030000170227;501.6213058999856;None;;;;;;;;5;;;;;;503.17122309998376;None;None;None;[];503.17122309998376;None;None;503.17122309998376;None;;;;S10770;2021_Jul_23_1156;VideoMask;2021.1.2;120.05493715224857;
7.0;m;027_o_m_s_a.jpg;sad;7.0;happy_117.3.wmv;happy;9.0;incongruent;130.0;150.0;218.0520785974414;;;;;0;35;35;35;;;;;;;506.1962850999844;None;508.2375549999997;508.5541806999827;509.67943869999726;509.6959513000038;511.68757389998063;None;9;0;0.5276463000045624;511.68757389998063;None;;;;;;;;6;;;;;;513.2543478999869;None;None;None;[];513.2543478999869;None;['9'];513.2543478999869;None;[0.31255929998587817];;;S10770;2021_Jul_23_1156;VideoMask;2021.1.2;120.05493715224857;
2.0;f;012_o_f_h_a.jpg;happy;9.0;sad_113.1.wmv;sad;7.0;incongruent;120.0;160.0;192.53137802384992;;;;;0;36;36;36;;;;;;;516.2541649999912;None;518.0789900999807;518.3956687999889;519.5208209999837;519.5374056999863;521.5291340999829;None;8;0;0.757640600000741;521.5291340999829;None;;;;;;;;5;;;;;;523.0789876999916;None;None;None;[];523.0789876999916;None;None;523.0789876999916;None;;;;S10770;2021_Jul_23_1156;VideoMask;2021.1.2;120.05493715224857;
8.0;f;028_y_f_h_a.jpg;happy;9.0;happy_23.1ns.avi;happy;9.0;congruent;140.0;150.0;159.76384515822056;;;;;0;37;37;37;;;;;;;526.1040021000081;None;527.6369019999984;527.9537142000045;529.1125812999962;529.1372308999998;533.6621412999812;None;9;0;0.4486818000150379;533.6621412999812;None;;;;;;;;8;;;;;;535.2369761999871;None;None;None;[];535.2369761999871;None;"['9', '9', '9']";535.2369761999871;None;"[12.10398690000875, 0.7299916000047233, 2.746067400003085]";;;S10770;2021_Jul_23_1156;VideoMask;2021.1.2;120.05493715224857;
0.0;f;030_o_f_s_a.jpg;sad;7.0;sad_64.3ns.avi;sad;7.0;congruent;130.0;160.0;172.91738127163183;;;;;0;38;38;38;;;;;;;538.2118982999818;None;539.8700446999865;540.1867373999848;541.3617429999867;541.3790606999828;546.3202275999938;None;None;0;;546.3202275999938;None;;;;;;;;5;;;;;;547.8700072999927;None;None;None;[];547.8700072999927;None;None;547.8700072999927;None;;;;S10770;2021_Jul_23_1156;VideoMask;2021.1.2;120.05493715224857;
6.0;m;016_y_m_h_a.jpg;happy;9.0;sad_114.1.wmv;sad;7.0;incongruent;120.0;160.0;196.03539454983184;;;;;0;39;39;39;;;;;;;550.902997600002;None;552.7533683000074;553.0697779000038;554.227974199981;554.2446173999924;556.2031358999957;None;8;0;0.35611019999487326;556.2031358999957;None;;;;;;;;5;;;;;;557.7529625000025;None;None;None;[];557.7529625000025;None;None;557.7529625000025;None;;;;S10770;2021_Jul_23_1156;VideoMask;2021.1.2;120.05493715224857;
6.0;m;016_y_m_s_a.jpg;sad;7.0;sad_8.3ns.avi;sad;7.0;congruent;130.0;160.0;139.87174075953956;;;;;0;40;40;40;;;;;;;560.7777313999832;None;562.1945471999934;562.5110352000047;563.6778034000017;563.6945029000053;571.4032849000068;None;8;0;0.4677337999746669;571.4032849000068;None;;;;;;;;5;;;;;;572.952586200001;None;None;None;[];572.952586200001;None;None;572.952586200001;None;;;;S10770;2021_Jul_23_1156;VideoMask;2021.1.2;120.05493715224857;
7.0;m;027_o_m_s_a.jpg;sad;7.0;sad_10.4ns.avi;sad;7.0;congruent;130.0;160.0;163.89298117292617;;;;;0;41;41;41;;;;;;;575.9861036000075;None;577.5605436000042;577.8774190999975;579.0690807999927;579.0857075999957;582.1856177999871;None;8;0;0.40540460002375767;582.1856177999871;None;;;;;;;;5;;;;;;583.7356132999994;None;None;None;[];583.7356132999994;None;None;583.7356132999994;None;;;;S10770;2021_Jul_23_1156;VideoMask;2021.1.2;120.05493715224857;
3.0;m;013_y_m_h_a.jpg;happy;9.0;happy_9.1ns.avi;happy;9.0;congruent;140.0;150.0;128.37211756912527;;;;;0;42;42;42;;;;;;;586.7604241000081;None;588.0520737000043;588.3687457999913;589.5437215999991;589.5604346999899;592.7353410999931;None;9;0;0.4795704999996815;592.7353410999931;None;;;;;;;;6;;;;;;594.4101392999873;None;None;None;[];594.4101392999873;None;['9'];594.4101392999873;None;[10.639514600014081];;;S10770;2021_Jul_23_1156;VideoMask;2021.1.2;120.05493715224857;
7.0;m;027_o_m_h_a.jpg;happy;9.0;sad_117.1.wmv;sad;7.0;incongruent;120.0;160.0;163.19466748508617;;;;;0;43;43;43;;;;;;;597.401932000008;None;598.9768955000036;599.2934752999863;600.4266867999977;600.4434338999854;602.4351161999803;None;8;0;0.6037835000024643;602.4351161999803;None;;;;;;;;5;;;;;;603.9850236999919;None;None;None;[];603.9850236999919;None;None;603.9850236999919;None;;;;S10770;2021_Jul_23_1156;VideoMask;2021.1.2;120.05493715224857;
4.0;m;004_o_m_h_a.jpg;happy;9.0;sad_95.1ns.avi;sad;7.0;incongruent;120.0;160.0;162.95060606286506;;;;;0;44;44;44;;;;;;;607.0183576999989;None;608.6347667000082;608.9517263000016;610.0764778000012;610.093160199991;618.8763157000067;None;8;0;0.5627669999958016;618.8763157000067;None;;;;;;;;5;;;;;;620.6178743999917;None;None;None;[];620.6178743999917;None;None;620.6178743999917;None;;;;S10770;2021_Jul_23_1156;VideoMask;2021.1.2;120.05493715224857;
0.0;f;040_y_f_h_a.jpg;happy;9.0;sad_128.2.wmv;sad;7.0;incongruent;120.0;160.0;121.98396994352893;;;;;0;45;45;45;;;;;;;623.6426732999971;None;624.8592984999996;625.1759819999861;626.3093476000067;626.3260412999953;628.3093349999981;None;8;0;0.36170249999850057;628.3093349999981;None;;;;;;;;5;;;;;;629.8592780999898;None;None;None;[];629.8592780999898;None;None;629.8592780999898;None;;;;S10770;2021_Jul_23_1156;VideoMask;2021.1.2;120.05493715224857;
0.0;f;040_y_f_h_a.jpg;happy;9.0;sad_138.1.wmv;sad;7.0;incongruent;120.0;160.0;195.60264978061832;;;;;0;46;46;46;;;;;;;632.8925839999865;None;634.7340439999825;635.0507413999876;636.1756562999799;636.1924996000016;638.1840552999929;None;8;0;0.27102720001130365;638.1840552999929;None;;;;;;;;5;;;;;;639.7340808000008;None;None;None;[];639.7340808000008;None;None;639.7340808000008;None;;;;S10770;2021_Jul_23_1156;VideoMask;2021.1.2;120.05493715224857;
8.0;m;008_y_m_s_a.jpg;sad;7.0;happy_29.1ns.avi;happy;9.0;incongruent;130.0;150.0;212.92407054126133;;;;;0;47;47;47;;;;;;;642.7673093999911;None;644.742058999982;645.0590397999913;646.2173178999801;646.2338734999939;648.8837469999853;None;9;0;0.41131930000847206;648.8837469999853;None;;;;;;;;6;;;;;;650.4337213999825;None;None;None;[];650.4337213999825;None;"['9', '9']";650.4337213999825;None;"[0.29329209998832084, 2.661442899989197]";;;S10770;2021_Jul_23_1156;VideoMask;2021.1.2;120.05493715224857;
0.0;f;040_y_f_h_a.jpg;happy;9.0;happy_24.3ns.avi;happy;9.0;congruent;140.0;150.0;190.23859628619445;;;;;0;48;48;48;;;;;;;653.4336543999962;None;655.2168108999904;655.5340271999885;656.6750459999894;656.6918802;658.5918562999868;None;8;0;0.6072182999923825;658.5918562999868;None;;;;;;;;5;;;;;;660.133468199987;None;None;None;[];660.133468199987;None;None;660.133468199987;None;;;;S10770;2021_Jul_23_1156;VideoMask;2021.1.2;120.05493715224857;
3.0;m;033_o_m_h_a.jpg;happy;9.0;happy_24.2ns.avi;happy;9.0;congruent;140.0;150.0;127.28107088671867;;;;;0;49;49;49;;;;;;;663.1665216999827;None;664.4498411999957;664.7665622000059;665.9499650000071;665.9665076999809;669.6248791999824;None;8;0;0.5662514999858104;669.6248791999824;None;;;;;;;;5;;;;;;671.1748024999979;None;None;None;[];671.1748024999979;None;None;671.1748024999979;None;;;;S10770;2021_Jul_23_1156;VideoMask;2021.1.2;120.05493715224857;
9.0;f;019_m_f_s_a.jpg;sad;7.0;happy_61.1ns.avi;happy;9.0;incongruent;130.0;150.0;190.9434091532566;;;;;0;50;50;50;;;;;;;674.1912600999931;None;676.033033899992;676.3496730999905;677.541676199995;677.5664091999934;684.8747565999802;None;8;0;0.3884637000155635;684.8747565999802;None;;;;;;;;5;;;;;;686.432710699999;None;None;None;[];686.432710699999;None;None;686.432710699999;None;;;;S10770;2021_Jul_23_1156;VideoMask;2021.1.2;120.05493715224857;
8.0;f;028_y_f_h_a.jpg;happy;9.0;sad_119.1.wmv;sad;7.0;incongruent;120.0;160.0;178.10396226647933;;;;;0;51;51;51;;;;;;;689.4659309999843;None;691.1657640000049;691.4911720999808;692.6240208999952;692.6406849999912;694.6823808999907;None;8;0;0.3888924000202678;694.6823808999907;None;;;;;;;;5;;;;;;696.2657784000039;None;None;None;[];696.2657784000039;None;None;696.2657784000039;None;;;;S10770;2021_Jul_23_1156;VideoMask;2021.1.2;120.05493715224857;
3.0;m;033_o_m_h_a.jpg;happy;9.0;sad_136.1.wmv;sad;7.0;incongruent;120.0;160.0;206.04367658109783;;;;;0;52;52;52;;;;;;;699.2906926999858;None;701.2238539999817;701.54049699998;702.6738694999949;702.6906658999796;704.6738577999931;None;None;0;;704.6738577999931;None;;;;;;;;5;;;;;;706.2236697000044;None;None;None;[];706.2236697000044;None;None;706.2236697000044;None;;;;S10770;2021_Jul_23_1156;VideoMask;2021.1.2;120.05493715224857;
6.0;m;016_y_m_h_a.jpg;happy;9.0;happy_9.2ns.avi;happy;9.0;congruent;140.0;150.0;136.52220806776708;;;;;0;53;53;53;;;;;;;709.2570836000086;None;710.6236991999904;710.9403553000011;712.1068428999861;712.1240973999957;717.9986139999819;None;9;0;0.5606085000035819;717.9986139999819;None;;;;;;;;6;;;;;;719.5484519999882;None;None;None;[];719.5484519999882;None;['9'];719.5484519999882;None;[0.2829189000185579];;;S10770;2021_Jul_23_1156;VideoMask;2021.1.2;120.05493715224857;
9.0;f;019_m_f_h_a.jpg;happy;9.0;happy_10.1ns.avi;happy;9.0;congruent;140.0;150.0;180.35091595488527;;;;;0;54;54;54;;;;;;;722.5483859999804;None;724.3065587999881;724.6318831999961;725.7815913000086;725.7981058000005;733.2064829999872;None;8;0;0.36089119999087416;733.2064829999872;None;;;;;;;;5;;;;;;734.7563699999882;None;None;None;[];734.7563699999882;None;None;734.7563699999882;None;;;;S10770;2021_Jul_23_1156;VideoMask;2021.1.2;120.05493715224857;
8.0;f;028_y_f_s_a.jpg;sad;7.0;happy_122.3.wmv;happy;9.0;incongruent;130.0;150.0;204.27932588393085;;;;;0;55;55;55;;;;;;;737.789635299996;None;739.7144027999893;740.0311905999843;741.1726389999967;741.1895571000059;743.1645683999814;None;8;0;0.4185943999909796;743.1645683999814;None;;;;;;;;5;;;;;;744.7143963999988;None;None;None;[];744.7143963999988;None;None;744.7143963999988;None;;;;S10770;2021_Jul_23_1156;VideoMask;2021.1.2;120.05493715224857;
3.0;m;013_y_m_s_a.jpg;sad;7.0;sad_7.7ns.avi;sad;7.0;congruent;130.0;160.0;192.40728800739942;;;;;0;56;56;56;;;;;;;747.7308907999832;None;749.5557667999819;749.8725804999995;751.0308795000019;751.047511599987;757.0058095999993;None;7;0;0.761285400018096;757.0058095999993;None;;;;;;;;4;;;;;;758.5556599999836;None;None;None;[];758.5556599999836;None;['7'];758.5556599999836;None;[0.48367859999416396];;;S10770;2021_Jul_23_1156;VideoMask;2021.1.2;120.05493715224857;
3.0;m;013_y_m_h_a.jpg;happy;9.0;sad_113.2.wmv;sad;7.0;incongruent;120.0;160.0;219.6544115751568;;;;;0;57;57;57;;;;;;;761.555718299991;None;763.597053000005;763.9138052999915;765.047169700003;765.0638795999985;767.0477465000004;None;8;0;0.5274410999845713;767.0477465000004;None;;;;;;;;5;;;;;;768.7887201999838;None;None;None;[];768.7887201999838;None;None;768.7887201999838;None;;;;S10770;2021_Jul_23_1156;VideoMask;2021.1.2;120.05493715224857;
4.0;m;004_o_m_h_a.jpg;happy;9.0;happy_25.1ns.avi;happy;9.0;congruent;140.0;150.0;237.98255695511958;;;;;0;58;58;58;;;;;;;771.8134711000021;None;774.0134402999829;774.3302526999905;775.4802082999959;775.4967611999891;779.1554279999982;None;8;0;0.5800410000083502;779.1554279999982;None;;;;;;;;5;;;;;;780.7300913000072;None;None;None;[];780.7300913000072;None;None;780.7300913000072;None;;;;S10770;2021_Jul_23_1156;VideoMask;2021.1.2;120.05493715224857;
0.0;f;030_o_f_h_a.jpg;happy;9.0;sad_127.1.wmv;sad;7.0;incongruent;120.0;160.0;231.85538291836468;;;;;0;59;59;59;;;;;;;783.763136900001;None;785.905108100007;786.2214918999816;787.3466385999927;787.3630892999936;789.3547955999966;None;8;0;0.4444798000040464;789.3547955999966;None;;;;;;;;5;;;;;;790.9045661999844;None;None;None;[];790.9045661999844;None;None;790.9045661999844;None;;;;S10770;2021_Jul_23_1156;VideoMask;2021.1.2;120.05493715224857;
;;;;;;;;;;;;;;;;;;;;;;;;;;;;;;;;;;;;;;;;;;;;;;;;;;;;;;;;;;;;;;;793.9296985999972;None;;;;;;
