primePerson;primeGender;prime;primeEmotion;corrAnsPrime;target;targetEmotion;corrAnsTar;Cond;ID_Primer;ID_Target;JitterTime;Condition;example.thisRepN;example.thisTrialN;example.thisN;example.thisIndex;study.thisRepN;study.thisTrialN;study.thisN;study.thisIndex;MR_trigger_time;MR_trigger_number;text_intro.started;text_intro.stopped;text_probe.started;text_probe.stopped;polygon_ISI.started;polygon_ISI.stopped;polygon.started;polygon.stopped;primerImage.started;primerImage.stopped;response.started;response.stopped;key_resp.keys;key_resp.corr;key_resp.rt;key_resp.started;key_resp.stopped;slider_Text.started;slider_Text.stopped;slider_ex.response;slider_ex.rt;slider_ex.history;slider_ex.started;slider_ex.stopped;Rating;slider_resp_response.keys;slider_resp_response.rt;slider_resp_response.started;slider_resp_response.stopped;text_start.started;text_start.stopped;text_slider.started;text_slider.stopped;slider_stud.response;slider_stud.rt;slider_stud.history;slider_stud.started;slider_stud.stopped;slider_resp_study.keys;slider_resp_study.rt;slider_resp_study.started;slider_resp_study.stopped;text_ende.started;text_ende.stopped;participant;date;expName;psychopyVersion;frameRate;
1111;m;1111_m_m_h_a.jpg;happy;9;example_30.4ns.avi;neutral;7;incongruent;120.0;170.0;189.5874364012288;;0;0;0;0;;;;;32.6458750999991;1;32.74018380000052;34.74855060000118;34.74855060000118;None;36.78184020000117;None;39.073350099999516;39.3984746999995;40.539976600000955;40.55654040000081;44.864991099999315;None;8;0;0.6909260000029462;44.864991099999315;None;46.431405399998766;None;None;None;[];46.431405399998766;None;6;['9'];[1.7165319000014279];46.431405399998766;None;;;;;;;;;;;;;;;;S11255;2022_Mar_01_1624;VideoMask;2021.1.2;119.97010345127197;
1113;f;1113_y_f_s_a.jpg;sad;7;example_30.3ns.avi;neutral;7;incongruent;130.0;170.0;229.02432995836998;;0;1;1;1;;;;;;;;;;;49.423779799999465;None;51.55621719999908;51.87294610000026;53.01464940000005;53.03128139999899;55.00619010000082;None;8;0;0.8456002000020817;55.00619010000082;None;56.556176800000685;None;None;None;[];56.556176800000685;None;5;None;;56.556176800000685;None;;;;;;;;;;;;;;;;S11255;2022_Mar_01_1624;VideoMask;2021.1.2;119.97010345127197;
9.0;f;019_m_f_h_a.jpg;happy;9.0;sad_115.1.wmv;sad;7.0;incongruent;120.0;160.0;128.09063432376465;h_s;;;;;0;0;0;0;;;;;;;60.58938660000058;None;61.88077600000179;62.19758730000103;63.3306717000014;63.347383000000264;65.33927200000107;None;7;0;1.464394500002527;65.33927200000107;None;;;;;;;;4;;;;;59.58945110000059;None;66.89751909999904;None;None;None;[];66.89751909999904;None;['7'];[1.2422036999996635];66.89751909999904;None;;;S11255;2022_Mar_01_1624;VideoMask;2021.1.2;119.97010345127197;
3.0;m;033_o_m_s_a.jpg;sad;7.0;sad_94.2ns.avi;sad;7.0;congruent;130.0;160.0;182.29120173647655;s_s;;;;;0;1;1;1;;;;;;;69.89759889999914;None;71.63890399999946;71.95560340000156;73.15551300000152;73.17229439999937;75.7893026999991;None;7;0;1.3664812999995775;75.7893026999991;None;;;;;;;;3;;;;;;;77.4554094999985;None;None;None;[];77.4554094999985;None;"['7', '7']";"[0.6362594999991416, 0.9566224000009242]";77.4554094999985;None;;;S11255;2022_Mar_01_1624;VideoMask;2021.1.2;119.97010345127197;
8.0;m;008_y_m_h_a.jpg;happy;9.0;happy_26.1ns.avi;happy;9.0;congruent;120.0;150.0;155.9437854594882;h_h;;;;;0;2;2;2;;;;;;;80.46386590000111;None;81.98857860000135;82.30529999999999;83.43856330000199;83.45525930000076;85.43029390000083;None;9;0;0.7333796999992046;85.43029390000083;None;;;;;;;;8;;;;;;;87.10508710000067;None;None;None;[];87.10508710000067;None;"['9', '9', '9']";"[0.6590711999997438, 1.1945917000011832, 1.5389214999995602]";87.10508710000067;None;;;S11255;2022_Mar_01_1624;VideoMask;2021.1.2;119.97010345127197;
0.0;f;040_y_f_h_a.jpg;happy;9.0;sad_138.1.wmv;sad;7.0;incongruent;120.0;160.0;133.99071306426532;h_s;;;;;0;3;3;3;;;;;;;90.11350890000176;None;91.45492960000047;91.77157530000113;92.89667249999911;92.91329789999872;94.91328829999838;None;7;0;0.78631420000238;94.91328829999838;None;;;;;;;;3;;;;;;;96.4632402999996;None;None;None;[];96.4632402999996;None;"['7', '7', '7']";"[0.67646650000097, 1.5726567999990948, 2.0366247999991174]";96.4632402999996;None;;;S11255;2022_Mar_01_1624;VideoMask;2021.1.2;119.97010345127197;
8.0;f;028_y_f_s_a.jpg;sad;7.0;sad_64.2ns.avi;sad;7.0;congruent;130.0;160.0;229.88540597086478;s_s;;;;;0;4;4;4;;;;;;;99.46309929999916;None;101.66307740000047;101.97964990000037;103.15470229999846;103.17132919999858;114.1296196000003;None;7;0;1.434108000001288;114.1296196000003;None;;;;;;;;3;;;;;;;115.69594760000109;None;None;None;[];115.69594760000109;None;"['7', '7']";"[0.875695499998983, 1.8677492999995593]";115.69594760000109;None;;;S11255;2022_Mar_01_1624;VideoMask;2021.1.2;119.97010345127197;
7.0;m;027_o_m_s_a.jpg;sad;7.0;sad_10.4ns.avi;sad;7.0;congruent;130.0;160.0;185.20129417468752;s_s;;;;;0;5;5;5;;;;;;;118.69591819999914;None;120.46232579999923;120.77883560000191;121.92976279999857;121.95401499999934;125.07897260000027;None;7;0;0.7007706000003964;125.07897260000027;None;;;;;;;;3;;;;;;;126.62890559999869;None;None;None;[];126.62890559999869;None;"['7', '7']";"[0.46285969999735244, 1.3829895999988366]";126.62890559999869;None;;;S11255;2022_Mar_01_1624;VideoMask;2021.1.2;119.97010345127197;
2.0;f;012_o_f_s_a.jpg;sad;7.0;sad_7.5ns.avi;sad;7.0;congruent;130.0;160.0;220.27842655424388;s_s;;;;;0;6;6;6;;;;;;;129.63735219999944;None;131.7036040999992;132.02027019999878;133.19535480000195;133.2119864999986;135.9455511999986;None;7;0;0.8900549999998475;135.9455511999986;None;;;;;;;;4;;;;;;;137.50357630000144;None;None;None;[];137.50357630000144;None;['7'];[0.4920343999983743];137.50357630000144;None;;;S11255;2022_Mar_01_1624;VideoMask;2021.1.2;119.97010345127197;
2.0;f;012_o_f_h_a.jpg;happy;9.0;happy_27.1ns.avi;happy;9.0;congruent;120.0;150.0;146.44967055810616;h_h;;;;;0;7;7;7;;;;;;;140.50362479999967;None;141.9450614999987;142.2616713999996;143.45311009999932;143.4700965000011;145.8866135999997;None;9;0;0.5090060000002268;145.8866135999997;None;;;;;;;;6;;;;;;;147.43655859999853;None;None;None;[];147.43655859999853;None;"['9', '9']";"[0.3511543000022357, 0.9432087000022875]";147.43655859999853;None;;;S11255;2022_Mar_01_1624;VideoMask;2021.1.2;119.97010345127197;
8.0;f;028_y_f_h_a.jpg;happy;9.0;sad_119.1.wmv;sad;7.0;incongruent;120.0;160.0;148.71526953572538;h_s;;;;;0;8;8;8;;;;;;;150.44491460000063;None;151.8946165999987;152.21145270000125;153.35308480000094;153.36971840000115;155.41963549999855;None;7;0;0.5519476000008581;155.41963549999855;None;;;;;;;;4;;;;;;;156.9696178000013;None;None;None;[];156.9696178000013;None;['7'];[0.42575249999936204];156.9696178000013;None;;;S11255;2022_Mar_01_1624;VideoMask;2021.1.2;119.97010345127197;
6.0;m;016_y_m_s_a.jpg;sad;7.0;happy_60.4ns.avi;happy;9.0;incongruent;130.0;150.0;126.02367393611817;s_h;;;;;0;9;9;9;;;;;;;159.9778914999988;None;161.28612160000193;161.60271569999895;162.75346250000075;162.7861914999994;168.527607;None;9;0;0.4599901999972644;168.527607;None;;;;;;;;7;;;;;;;170.08579559999998;None;None;None;[];170.08579559999998;None;"['9', '9']";"[0.47779430000082357, 0.9338760000027833]";170.08579559999998;None;;;S11255;2022_Mar_01_1624;VideoMask;2021.1.2;119.97010345127197;
9.0;f;019_m_f_s_a.jpg;sad;7.0;sad_8.4ns.avi;sad;7.0;congruent;130.0;160.0;171.6633093155257;s_s;;;;;0;10;10;10;;;;;;;173.08580520000032;None;174.77739139999903;175.0939545000001;176.2614293000006;176.28574479999952;184.37707560000126;None;7;0;0.4665007000003243;184.37707560000126;None;;;;;;;;2;;;;;;;185.93536709999898;None;None;None;[];185.93536709999898;None;"['7', '7', '7']";"[0.6042121999998926, 1.1801620000005641, 2.0284094999988156]";185.93536709999898;None;;;S11255;2022_Mar_01_1624;VideoMask;2021.1.2;119.97010345127197;
4.0;m;004_o_m_h_a.jpg;happy;9.0;happy_1.1ns.avi;happy;9.0;congruent;120.0;150.0;203.50057144619865;h_h;;;;;0;11;11;11;;;;;;;188.9269439000018;None;190.90165390000038;191.21843490000174;192.38514710000163;192.40179519999947;206.84299029999966;None;8;0;1.0005509000002348;206.84299029999966;None;;;;;;;;5;;;;;;;208.39296860000104;None;None;None;[];208.39296860000104;None;None;;208.39296860000104;None;;;S11255;2022_Mar_01_1624;VideoMask;2021.1.2;119.97010345127197;
7.0;m;027_o_m_h_a.jpg;happy;9.0;happy_20.1ns.avi;happy;9.0;congruent;120.0;150.0;152.91127178874285;h_h;;;;;0;12;12;12;;;;;;;211.4093653000018;None;212.90940190000038;213.22617570000148;214.37606270000106;214.3927380999994;217.37613870000132;None;9;0;0.7954081999996561;217.37613870000132;None;;;;;;;;7;;;;;;;218.92587229999845;None;None;None;[];218.92587229999845;None;"['9', '9']";"[0.909876700003224, 1.5977549000017461]";218.92587229999845;None;;;S11255;2022_Mar_01_1624;VideoMask;2021.1.2;119.97010345127197;
0.0;f;040_y_f_s_a.jpg;sad;7.0;sad_94.3ns.avi;sad;7.0;congruent;130.0;160.0;155.27414203894395;s_s;;;;;0;13;13;13;;;;;;;221.9343184999998;None;223.45068510000056;223.7673939999986;224.90896259999863;224.9257261999992;227.52562409999882;None;7;0;0.37388780000037514;227.52562409999882;None;;;;;;;;4;;;;;;;229.0756188000014;None;None;None;[];229.0756188000014;None;['7'];[0.5918815999975777];229.0756188000014;None;;;S11255;2022_Mar_01_1624;VideoMask;2021.1.2;119.97010345127197;
0.0;f;030_o_f_s_a.jpg;sad;7.0;sad_68.1ns.avi;sad;7.0;congruent;130.0;160.0;158.9411396037211;s_s;;;;;0;14;14;14;;;;;;;232.07562340000004;None;233.64206600000034;233.95876340000177;235.12545210000098;235.1421392000011;242.51683459999913;None;7;0;0.46259809999901336;242.51683459999913;None;;;;;;;;4;;;;;;;244.06687629999942;None;None;None;[];244.06687629999942;None;"['7', '7']";"[0.5446143000008306, 1.4647475999991002]";244.06687629999942;None;;;S11255;2022_Mar_01_1624;VideoMask;2021.1.2;119.97010345127197;
0.0;f;030_o_f_h_a.jpg;happy;9.0;sad_127.1.wmv;sad;7.0;incongruent;120.0;160.0;180.59976631384873;h_s;;;;;0;15;15;15;;;;;;;247.06681780000144;None;248.7998676999996;249.11648129999958;250.27498769999875;250.29146870000113;252.25826139999845;None;None;0;;252.25826139999845;None;;;;;;;;5;;;;;;;253.80821569999898;None;None;None;[];253.80821569999898;None;None;;253.80821569999898;None;;;S11255;2022_Mar_01_1624;VideoMask;2021.1.2;119.97010345127197;
8.0;m;008_y_m_s_a.jpg;sad;7.0;happy_133.3.wmv;happy;9.0;incongruent;130.0;150.0;152.577966552593;s_h;;;;;0;16;16;16;;;;;;;256.8414311999986;None;258.3412281000019;258.6579965000019;259.791404399999;259.80799200000183;261.79122890000144;None;9;0;0.4602626000014425;261.79122890000144;None;;;;;;;;6;;;;;;;263.34118189999936;None;None;None;[];263.34118189999936;None;['9'];[0.8062512000033166];263.34118189999936;None;;;S11255;2022_Mar_01_1624;VideoMask;2021.1.2;119.97010345127197;
3.0;m;033_o_m_h_a.jpg;happy;9.0;sad_128.1.wmv;sad;7.0;incongruent;120.0;160.0;171.0492454518585;h_s;;;;;0;17;17;17;;;;;;;266.3411887000002;None;267.99924219999957;268.31609749999916;269.4491925000002;269.46593700000085;271.4492796000013;None;None;0;;271.4492796000013;None;;;;;;;;4;;;;;;;272.9990324999999;None;None;None;[];272.9990324999999;None;['7'];[1.1326701000034518];272.9990324999999;None;;;S11255;2022_Mar_01_1624;VideoMask;2021.1.2;119.97010345127197;
1.0;f;021_o_f_h_a.jpg;happy;9.0;sad_116.1.wmv;sad;7.0;incongruent;120.0;160.0;184.06847610053055;h_s;;;;;0;18;18;18;;;;;;;276.0075431000005;None;277.77389870000115;278.0906434999997;279.22406110000156;279.24066089999906;281.22391250000146;None;7;0;0.9075086000011652;281.22391250000146;None;;;;;;;;4;;;;;;;282.7738473999998;None;None;None;[];282.7738473999998;None;['7'];[0.5735381999984384];282.7738473999998;None;;;S11255;2022_Mar_01_1624;VideoMask;2021.1.2;119.97010345127197;
4.0;m;004_o_m_s_a.jpg;sad;7.0;happy_28.1ns.avi;happy;9.0;incongruent;130.0;150.0;157.40741103039684;s_h;;;;;0;19;19;19;;;;;;;285.7739658999999;None;287.31527880000067;287.64055120000194;288.8907781000016;288.9161434999987;293.1568453;None;9;0;0.31076499999835505;293.1568453;None;;;;;;;;8;;;;;;;294.70687779999935;None;None;None;[];294.70687779999935;None;"['9', '9', '9', '9']";"[0.25668860000223503, 0.5763624999999593, 0.928281300002709, 1.3846354000015708]";294.70687779999935;None;;;S11255;2022_Mar_01_1624;VideoMask;2021.1.2;119.97010345127197;
8.0;f;028_y_f_s_a.jpg;sad;7.0;happy_122.3.wmv;happy;9.0;incongruent;130.0;150.0;171.8670540936116;s_h;;;;;0;20;20;20;;;;;;;297.71522800000093;None;299.38154869999926;299.6983576999992;300.8400112999989;300.85660709999866;302.8315892999999;None;9;0;0.6118556000001263;302.8315892999999;None;;;;;;;;8;;;;;;;304.38152550000086;None;None;None;[];304.38152550000086;None;"['9', '9', '9', '9']";"[0.47787379999863333, 0.8136292999988655, 1.2940706000008504, 1.981979100000899]";304.38152550000086;None;;;S11255;2022_Mar_01_1624;VideoMask;2021.1.2;119.97010345127197;
8.0;m;008_y_m_s_a.jpg;sad;7.0;sad_6.5ns.avi;sad;7.0;congruent;130.0;160.0;170.39333839271438;s_s;;;;;0;21;21;21;;;;;;;307.3898829999998;None;309.0562267999994;309.38152210000044;310.57296580000184;310.58952209999916;315.5062676000016;None;7;0;0.6170211999997264;315.5062676000016;None;;;;;;;;4;;;;;;;317.42277340000146;None;None;None;[];317.42277340000146;None;['7'];[0.3566608000000997];317.42277340000146;None;;;S11255;2022_Mar_01_1624;VideoMask;2021.1.2;119.97010345127197;
8.0;f;028_y_f_h_a.jpg;happy;9.0;happy_23.1ns.avi;happy;9.0;congruent;120.0;150.0;225.70986890587952;h_h;;;;;0;22;22;22;;;;;;;320.4227565000001;None;322.5224694999997;322.8390873999997;324.00587950000045;324.022428100001;328.5565362999987;None;9;0;0.3349850999984483;328.5565362999987;None;;;;;;;;9;;;;;;;330.1390032999989;None;None;None;[];330.1390032999989;None;"['9', '9', '9', '9']";"[0.31247020000228076, 0.6963026000012178, 1.0562948000006145, 1.4805276000006415]";330.1390032999989;None;;;S11255;2022_Mar_01_1624;VideoMask;2021.1.2;119.97010345127197;
8.0;m;008_y_m_h_a.jpg;happy;9.0;sad_111.1.wmv;sad;7.0;incongruent;120.0;160.0;152.63076835312847;h_s;;;;;0;23;23;23;;;;;;;333.14738040000157;None;334.6387949000018;334.9554355;336.0888997000002;336.10542519999944;338.0887747000015;None;7;0;0.6184949000016786;338.0887747000015;None;;;;;;;;4;;;;;;;339.6387590999984;None;None;None;[];339.6387590999984;None;"['7', '7', '7']";"[0.45253650000086054, 0.8606599000013375, 1.5086903000010352]";339.6387590999984;None;;;S11255;2022_Mar_01_1624;VideoMask;2021.1.2;119.97010345127197;
0.0;f;040_y_f_s_a.jpg;sad;7.0;sad_67.2ns.avi;sad;7.0;congruent;130.0;160.0;220.9892697323079;s_s;;;;;0;24;24;24;;;;;;;342.63864490000196;None;344.7468305000002;345.06355650000114;346.2884371;346.30502569999953;355.4217080999988;None;7;0;0.40576470000087284;355.4217080999988;None;;;;;;;;4;;;;;;;357.1298143999993;None;None;None;[];357.1298143999993;None;"['7', '7']";"[0.5536969999993744, 1.1374517000003834]";357.1298143999993;None;;;S11255;2022_Mar_01_1624;VideoMask;2021.1.2;119.97010345127197;
8.0;m;008_y_m_s_a.jpg;sad;7.0;happy_29.1ns.avi;happy;9.0;incongruent;130.0;150.0;120.0316142834122;s_h;;;;;0;25;25;25;;;;;;;360.1298558000017;None;361.3545914999995;361.6712875000012;362.87180589999844;362.89621239999906;365.49630199999956;None;9;0;0.6590490999988106;365.49630199999956;None;;;;;;;;7;;;;;;;367.04618290000144;None;None;None;[];367.04618290000144;None;"['9', '9']";"[0.7171560000024328, 1.1090812000002188]";367.04618290000144;None;;;S11255;2022_Mar_01_1624;VideoMask;2021.1.2;119.97010345127197;
6.0;m;016_y_m_s_a.jpg;sad;7.0;sad_8.3ns.avi;sad;7.0;congruent;130.0;160.0;152.85371098242734;s_s;;;;;0;26;26;26;;;;;;;370.04614890000084;None;371.5793803000015;371.89597539999886;373.095855399999;373.112611200002;380.7875505000011;None;7;0;0.6397529999994731;380.7875505000011;None;;;;;;;;4;;;;;;;382.3373007000009;None;None;None;[];382.3373007000009;None;['7'];[0.5298831000000064];382.3373007000009;None;;;S11255;2022_Mar_01_1624;VideoMask;2021.1.2;119.97010345127197;
6.0;m;016_y_m_h_a.jpg;happy;9.0;sad_114.1.wmv;sad;7.0;incongruent;120.0;160.0;136.20550699298644;h_s;;;;;0;27;27;27;;;;;;;385.3374436999984;None;386.7037507999994;387.02047400000083;388.14556190000076;388.1620718999984;390.15393069999845;None;7;0;0.681363899999269;390.15393069999845;None;;;;;;;;2;;;;;;;391.7037281000012;None;None;None;[];391.7037281000012;None;"['7', '7', '7', '7', '7']";"[0.6356134000016027, 1.0354692000000796, 1.379505100001552, 1.7956783000008727, 2.3077133000006143]";391.7037281000012;None;;;S11255;2022_Mar_01_1624;VideoMask;2021.1.2;119.97010345127197;
7.0;m;027_o_m_s_a.jpg;sad;7.0;happy_117.3.wmv;happy;9.0;incongruent;130.0;150.0;215.61964028550614;s_h;;;;;0;28;28;28;;;;;;;394.71196129999953;None;396.7284427000013;397.04515639999954;398.17857599999843;398.1951153000009;400.1784692000001;None;9;0;0.4008248999998614;400.1784692000001;None;;;;;;;;7;;;;;;;401.7283975999999;None;None;None;[];401.7283975999999;None;"['9', '9']";"[0.6507691000006162, 1.0749379000008048]";401.7283975999999;None;;;S11255;2022_Mar_01_1624;VideoMask;2021.1.2;119.97010345127197;
6.0;m;016_y_m_h_a.jpg;happy;9.0;happy_9.2ns.avi;happy;9.0;congruent;120.0;150.0;130.52042428082717;h_h;;;;;0;29;29;29;;;;;;;404.72841699999844;None;406.061601100002;406.378180300002;407.5696973000013;407.58636320000005;413.43632440000147;None;9;0;0.42297019999750773;413.43632440000147;None;;;;;;;;8;;;;;;;415.22785990000193;None;None;None;[];415.22785990000193;None;"['9', '9', '9']";"[0.4953486000013072, 1.2394318000006024, 1.6076320000029227]";415.22785990000193;None;;;S11255;2022_Mar_01_1624;VideoMask;2021.1.2;119.97010345127197;
0.0;f;040_y_f_s_a.jpg;sad;7.0;happy_127.3.wmv;happy;9.0;incongruent;130.0;150.0;131.7195455720239;s_h;;;;;0;30;30;30;;;;;;;418.2363379000017;None;419.5527636000006;419.8694221000005;421.0028650999993;421.0194651999991;423.0860035000005;None;9;0;0.6212980000018433;423.0860035000005;None;;;;;;;;8;;;;;;;424.6359267000007;None;None;None;[];424.6359267000007;None;"['9', '9', '9']";"[0.30321639999965555, 0.703394299998763, 1.2474750000001222]";424.6359267000007;None;;;S11255;2022_Mar_01_1624;VideoMask;2021.1.2;119.97010345127197;
0.0;f;030_o_f_s_a.jpg;sad;7.0;happy_125.3.wmv;happy;9.0;incongruent;130.0;150.0;220.51454909128134;s_h;;;;;0;31;31;31;;;;;;;427.6360219999988;None;429.70227460000024;430.0190287000005;431.1605946000018;431.1773863000017;433.1525106000008;None;9;0;1.1310444000009738;433.1525106000008;None;;;;;;;;6;;;;;;;434.7023104;None;None;None;[];434.7023104;None;['9'];[0.620826099999249];434.7023104;None;;;S11255;2022_Mar_01_1624;VideoMask;2021.1.2;119.97010345127197;
0.0;f;030_o_f_s_a.jpg;sad;7.0;sad_64.3ns.avi;sad;7.0;congruent;130.0;160.0;165.78667874766072;s_s;;;;;0;32;32;32;;;;;;;437.7106887000009;None;439.3270655999986;439.6438003000003;440.8354905999986;440.8521228999998;445.78547249999974;None;7;0;0.9859844999991765;445.78547249999974;None;;;;;;;;4;;;;;;;447.3686154999996;None;None;None;[];447.3686154999996;None;['7'];[0.3305875999976706];447.3686154999996;None;;;S11255;2022_Mar_01_1624;VideoMask;2021.1.2;119.97010345127197;
3.0;m;013_y_m_s_a.jpg;sad;7.0;sad_7.7ns.avi;sad;7.0;congruent;130.0;160.0;196.24182255763262;s_s;;;;;0;33;33;33;;;;;;;450.3769570000004;None;452.2349961;452.55169580000074;453.7431006000006;453.75987349999923;459.6848084000012;None;7;0;0.3103783000005933;459.6848084000012;None;;;;;;;;4;;;;;;;461.24317449999944;None;None;None;[];461.24317449999944;None;['7'];[0.4240423999981431];461.24317449999944;None;;;S11255;2022_Mar_01_1624;VideoMask;2021.1.2;119.97010345127197;
3.0;m;013_y_m_h_a.jpg;happy;9.0;happy_9.1ns.avi;happy;9.0;congruent;120.0;150.0;165.1890303600433;h_h;;;;;0;34;34;34;;;;;;;464.24321019999843;None;465.86806010000146;466.18459710000025;467.3433522999985;467.3680486000012;470.54288369999995;None;9;0;0.5082323999995424;470.54288369999995;None;;;;;;;;6;;;;;;;472.09279660000175;None;None;None;[];472.09279660000175;None;['9'];[0.35818660000222735];472.09279660000175;None;;;S11255;2022_Mar_01_1624;VideoMask;2021.1.2;119.97010345127197;
4.0;m;004_o_m_h_a.jpg;happy;9.0;sad_95.1ns.avi;sad;7.0;incongruent;120.0;160.0;152.68270002069931;h_s;;;;;0;35;35;35;;;;;;;475.1011964999998;None;476.6424986999991;476.95918560000064;478.12713799999983;478.1593753999987;486.88412160000007;None;7;0;0.6550361000008706;486.88412160000007;None;;;;;;;;2;;;;;;;488.4339407000007;None;None;None;[];488.4339407000007;None;"['7', '7', '7', '7', '7']";"[0.3689489999997022, 0.6810374000015145, 1.0654877000015404, 1.593352899999445, 2.001241999998456]";488.4339407000007;None;;;S11255;2022_Mar_01_1624;VideoMask;2021.1.2;119.97010345127197;
3.0;m;013_y_m_h_a.jpg;happy;9.0;sad_113.2.wmv;sad;7.0;incongruent;120.0;160.0;217.4973891947951;h_s;;;;;0;36;36;36;;;;;;;491.44227460000184;None;493.47540149999986;493.792038399999;494.91717739999876;494.9336035000015;496.9255572000002;None;None;0;;496.9255572000002;None;;;;;;;;5;;;;;;;498.4751004999998;None;None;None;[];498.4751004999998;None;None;;498.4751004999998;None;;;S11255;2022_Mar_01_1624;VideoMask;2021.1.2;119.97010345127197;
4.0;m;004_o_m_h_a.jpg;happy;9.0;happy_25.1ns.avi;happy;9.0;congruent;120.0;150.0;216.63044503818386;h_h;;;;;0;37;37;37;;;;;;;501.50021579999884;None;503.52503330000036;503.85085049999907;505.0668476999999;505.0834622000002;508.66669860000184;None;9;0;0.656758400000399;508.66669860000184;None;;;;;;;;6;;;;;;;510.233293199999;None;None;None;[];510.233293199999;None;"['9', '9', '9', '9']";"[0.3619500999993761, 0.9859428999989177, 1.5860016999977233, 2.329898099997081]";510.233293199999;None;;;S11255;2022_Mar_01_1624;VideoMask;2021.1.2;119.97010345127197;
4.0;m;004_o_m_s_a.jpg;sad;7.0;happy_131.2.wmv;happy;9.0;incongruent;130.0;150.0;181.38407540847405;s_h;;;;;0;38;38;38;;;;;;;513.2331517999992;None;514.9746219000008;515.2913178999988;516.4417920000014;516.4662581000011;518.424650500001;None;9;0;1.0264556000001903;518.424650500001;None;;;;;;;;6;;;;;;;519.9745659;None;None;None;[];519.9745659;None;['9'];[0.3728701000000001];519.9745659;None;;;S11255;2022_Mar_01_1624;VideoMask;2021.1.2;119.97010345127197;
0.0;f;040_y_f_h_a.jpg;happy;9.0;happy_24.3ns.avi;happy;9.0;congruent;120.0;150.0;213.25460698950434;h_h;;;;;0;39;39;39;;;;;;;522.9745246999992;None;524.9659804000003;525.2827104999997;526.4744092000001;526.4910783999985;528.3410745000001;None;9;0;0.6540103000006638;528.3410745000001;None;;;;;;;;7;;;;;;;529.8910305999998;None;None;None;[];529.8910305999998;None;"['9', '9']";"[0.37610510000013164, 0.8238893000016105]";529.8910305999998;None;;;S11255;2022_Mar_01_1624;VideoMask;2021.1.2;119.97010345127197;
2.0;f;012_o_f_s_a.jpg;sad;7.0;happy_139.1.wmv;happy;9.0;incongruent;130.0;150.0;162.31500468041804;s_h;;;;;0;40;40;40;;;;;;;532.8991876;None;534.4572453000001;534.7740142000002;535.9080969999995;535.9407605000015;537.9074086;None;9;0;0.39952119999725255;537.9074086;None;;;;;;;;7;;;;;;;539.4489906000017;None;None;None;[];539.4489906000017;None;"['9', '9']";"[0.3143256000003021, 1.6581981999988784]";539.4489906000017;None;;;S11255;2022_Mar_01_1624;VideoMask;2021.1.2;119.97010345127197;
0.0;f;030_o_f_h_a.jpg;happy;9.0;happy_24.1ns.avi;happy;9.0;congruent;120.0;150.0;168.36256624020774;h_h;;;;;0;41;41;41;;;;;;;542.4488720000008;None;544.0821723000008;544.3987758000003;545.6578747999993;545.6907008999988;548.8570376999996;None;9;0;0.706362299999455;548.8570376999996;None;;;;;;;;7;;;;;;;550.4069754000011;None;None;None;[];550.4069754000011;None;"['9', '9']";"[0.40423329999975977, 0.8281991000003472]";550.4069754000011;None;;;S11255;2022_Mar_01_1624;VideoMask;2021.1.2;119.97010345127197;
2.0;f;012_o_f_h_a.jpg;happy;9.0;sad_113.1.wmv;sad;7.0;incongruent;120.0;160.0;177.44551734737394;h_s;;;;;0;42;42;42;;;;;;;553.4070371999987;None;555.1066056000018;555.4233912999989;556.5565803999998;556.5734238000005;558.5566752999985;None;7;0;0.5824381999991601;558.5566752999985;None;;;;;;;;4;;;;;;;560.1066522000001;None;None;None;[];560.1066522000001;None;['7'];[0.7205532000007224];560.1066522000001;None;;;S11255;2022_Mar_01_1624;VideoMask;2021.1.2;119.97010345127197;
3.0;m;033_o_m_s_a.jpg;sad;7.0;sad_64.5ns.avi;sad;7.0;congruent;130.0;160.0;130.55717223801247;s_s;;;;;0;43;43;43;;;;;;;563.1150392000018;None;564.4646520999995;564.7899957000009;566.014779000001;566.0314427000012;572.4979219000015;None;7;0;0.26496659999975236;572.4979219000015;None;;;;;;;;1;;;;;;;574.0478951000005;None;None;None;[];574.0478951000005;None;"['7', '7', '7', '7']";"[0.2111232999995991, 0.8273449000007531, 1.3472007999989728, 1.9393077999993693]";574.0478951000005;None;;;S11255;2022_Mar_01_1624;VideoMask;2021.1.2;119.97010345127197;
7.0;m;027_o_m_h_a.jpg;happy;9.0;sad_117.1.wmv;sad;7.0;incongruent;120.0;160.0;181.28665202824095;h_s;;;;;0;44;44;44;;;;;;;577.056191300002;None;578.7976090000011;579.1142815999992;580.2476996000005;580.2643293000001;582.2476152999989;None;7;0;1.275508599999739;582.2476152999989;None;;;;;;;;3;;;;;;;583.7975738999994;None;None;None;[];583.7975738999994;None;"['7', '7']";"[0.5814949999985402, 1.9095176000009815]";583.7975738999994;None;;;S11255;2022_Mar_01_1624;VideoMask;2021.1.2;119.97010345127197;
3.0;m;033_o_m_s_a.jpg;sad;7.0;happy_126.3.wmv;happy;9.0;incongruent;130.0;150.0;198.85252030535366;s_h;;;;;0;45;45;45;;;;;;;586.7976029999991;None;588.6973069000014;589.0139930000005;590.147288600001;590.1638237000006;592.1471812999989;None;9;0;0.7358439999989059;592.1471812999989;None;;;;;;;;7;;;;;;;593.6972409000009;None;None;None;[];593.6972409000009;None;"['9', '9', '9']";"[0.4098685999997542, 0.8419030999975803, 1.4417418999983056]";593.6972409000009;None;;;S11255;2022_Mar_01_1624;VideoMask;2021.1.2;119.97010345127197;
3.0;m;033_o_m_h_a.jpg;happy;9.0;sad_136.1.wmv;sad;7.0;incongruent;120.0;160.0;176.97002883463455;h_s;;;;;0;46;46;46;;;;;;;596.6971403999996;None;598.3802806999993;598.6969640999996;599.8220570000012;599.8386944999984;601.830303499999;None;7;0;0.5966520000001765;601.830303499999;None;;;;;;;;3;;;;;;;603.3719238000012;None;None;None;[];603.3719238000012;None;"['7', '7', '7']";"[0.3271058999998786, 0.7752153000001272, 1.4710297000019636]";603.3719238000012;None;;;S11255;2022_Mar_01_1624;VideoMask;2021.1.2;119.97010345127197;
9.0;f;019_m_f_h_a.jpg;happy;9.0;happy_10.1ns.avi;happy;9.0;congruent;120.0;150.0;157.2463435658512;h_h;;;;;0;47;47;47;;;;;;;606.3802706999995;None;607.9384004999993;608.2550120000014;609.396772600001;609.4133986000015;616.8382944000004;None;9;0;0.3486904000019422;616.8382944000004;None;;;;;;;;8;;;;;;;618.4381251000013;None;None;None;[];618.4381251000013;None;"['9', '9', '9', '9']";"[0.268598300001031, 0.6771006000017223, 1.1568621000005805, 2.380866800001968]";618.4381251000013;None;;;S11255;2022_Mar_01_1624;VideoMask;2021.1.2;119.97010345127197;
2.0;f;012_o_f_h_a.jpg;happy;9.0;happy_2.2ns.avi;happy;9.0;congruent;120.0;150.0;206.34800317295262;h_h;;;;;0;48;48;48;;;;;;;621.4380146000003;None;623.4297035000018;623.7461796999996;624.8961101999994;624.9128707000018;637.0792293999984;None;9;0;0.37165920000188635;637.0792293999984;None;;;;;;;;6;;;;;;;638.6291224000015;None;None;None;[];638.6291224000015;None;['9'];[0.4058012999994389];638.6291224000015;None;;;S11255;2022_Mar_01_1624;VideoMask;2021.1.2;119.97010345127197;
3.0;m;033_o_m_h_a.jpg;happy;9.0;happy_24.2ns.avi;happy;9.0;congruent;120.0;150.0;167.9423847659953;h_h;;;;;0;49;49;49;;;;;;;641.6290109000001;None;643.2456130999999;643.5622239000004;644.7623324999986;644.7788695999989;648.4204907999992;None;9;0;0.6543467000010423;648.4204907999992;None;;;;;;;;7;;;;;;;649.9703846000011;None;None;None;[];649.9703846000011;None;"['9', '9', '9']";"[0.31255679999958375, 0.7123787999989872, 1.2331465999995999]";649.9703846000011;None;;;S11255;2022_Mar_01_1624;VideoMask;2021.1.2;119.97010345127197;
1.0;f;021_o_f_s_a.jpg;sad;7.0;happy_61.2ns.avi;happy;9.0;incongruent;130.0;150.0;210.94664004826666;s_h;;;;;0;50;50;50;;;;;;;652.9703945000001;None;654.9618068000018;655.2785839999997;656.4706350999986;656.4951857999986;660.9367487000018;None;9;0;0.5381617999992159;660.9367487000018;None;;;;;;;;7;;;;;;;662.4867140999995;None;None;None;[];662.4867140999995;None;"['9', '9', '9']";"[0.3963008999999147, 0.86814460000096, 1.3001669000004767]";662.4867140999995;None;;;S11255;2022_Mar_01_1624;VideoMask;2021.1.2;119.97010345127197;
4.0;m;004_o_m_s_a.jpg;sad;7.0;sad_2.4ns.avi;sad;7.0;congruent;130.0;160.0;153.02079367163634;s_s;;;;;0;51;51;51;;;;;;;665.4949397000019;None;667.0113923999997;667.3281905000003;668.5448523000014;668.5615098999988;676.4196663000002;None;7;0;0.5992906999999832;676.4196663000002;None;;;;;;;;3;;;;;;;678.0278515999998;None;None;None;[];678.0278515999998;None;"['7', '7', '7']";"[0.33500999999887426, 0.8148684000007052, 1.1912029999984952]";678.0278515999998;None;;;S11255;2022_Mar_01_1624;VideoMask;2021.1.2;119.97010345127197;
8.0;m;008_y_m_h_a.jpg;happy;9.0;happy_1.2ns.avi;happy;9.0;congruent;120.0;150.0;210.98946429383824;h_h;;;;;0;52;52;52;;;;;;;681.0278233999998;None;683.0692110999989;683.3858570000011;684.5610263000017;684.5776938999988;697.3105351000013;None;9;0;0.46024629999737954;697.3105351000013;None;;;;;;;;6;;;;;;;698.8688552999993;None;None;None;[];698.8688552999993;None;['9'];[0.7101871999984724];698.8688552999993;None;;;S11255;2022_Mar_01_1624;VideoMask;2021.1.2;119.97010345127197;
2.0;f;012_o_f_s_a.jpg;sad;7.0;happy_52.2ns.avi;happy;9.0;incongruent;130.0;150.0;172.57202848318138;s_h;;;;;0;53;53;53;;;;;;;701.8771409000001;None;703.527019000001;703.8436408000016;705.027408599999;705.0519587999988;708.5268332000014;None;9;0;0.5400192999986757;708.5268332000014;None;;;;;;;;8;;;;;;;710.0766642000017;None;None;None;[];710.0766642000017;None;"['9', '9', '9']";"[0.36635999999998603, 0.7500264000009338, 2.494309699999576]";710.0766642000017;None;;;S11255;2022_Mar_01_1624;VideoMask;2021.1.2;119.97010345127197;
9.0;f;019_m_f_s_a.jpg;sad;7.0;happy_61.1ns.avi;happy;9.0;incongruent;130.0;150.0;181.3003220572762;s_h;;;;;0;54;54;54;;;;;;;713.0851285999997;None;714.8683192999997;715.1848721999995;716.4183058000017;716.4349106000009;723.709786200001;None;9;0;0.42109489999711514;723.709786200001;None;;;;;;;;7;;;;;;;725.3345345000016;None;None;None;[];725.3345345000016;None;"['9', '9']";"[0.6122235999973782, 0.9721462999987125]";725.3345345000016;None;;;S11255;2022_Mar_01_1624;VideoMask;2021.1.2;119.97010345127197;
0.0;f;030_o_f_h_a.jpg;happy;9.0;sad_133.1.wmv;sad;7.0;incongruent;120.0;160.0;198.86251500867985;h_s;;;;;0;55;55;55;;;;;;;728.3430326999987;None;730.2177080000001;730.5344212000018;731.6595349999989;731.6760845999997;733.6677114999984;None;7;0;0.8712204000003112;733.6677114999984;None;;;;;;;;3;;;;;;;735.209357300002;None;None;None;[];735.209357300002;None;"['7', '7']";"[0.3054236999996647, 0.8334590000013122]";735.209357300002;None;;;S11255;2022_Mar_01_1624;VideoMask;2021.1.2;119.97010345127197;
0.0;f;040_y_f_h_a.jpg;happy;9.0;sad_128.2.wmv;sad;7.0;incongruent;120.0;160.0;206.10005857915363;h_s;;;;;0;56;56;56;;;;;;;738.2093658000013;None;740.1673898000008;740.484051899999;741.6173022000003;741.6341370000009;743.6173933999999;None;None;0;;743.6173933999999;None;;;;;;;;5;;;;;;;745.1671486000014;None;None;None;[];745.1671486000014;None;None;;745.1671486000014;None;;;S11255;2022_Mar_01_1624;VideoMask;2021.1.2;119.97010345127197;
1.0;f;021_o_f_s_a.jpg;sad;7.0;sad_9.5ns.avi;sad;7.0;congruent;130.0;160.0;206.16642757875042;s_s;;;;;0;57;57;57;;;;;;;748.2006714999989;None;750.150461199999;750.4671225999991;751.6421636000014;751.6588142;757.3254111999995;None;7;0;0.43736469999930705;757.3254111999995;None;;;;;;;;4;;;;;;;758.8752071999988;None;None;None;[];758.8752071999988;None;"['7', '7', '7']";"[0.3354603000007046, 0.855496399999538, 2.11955719999969]";758.8752071999988;None;;;S11255;2022_Mar_01_1624;VideoMask;2021.1.2;119.97010345127197;
1.0;f;021_o_f_h_a.jpg;happy;9.0;happy_12.1ns.avi;happy;9.0;congruent;120.0;150.0;132.59080005900228;h_h;;;;;0;58;58;58;;;;;;;761.8835782999995;None;763.2501787000001;763.5667747000007;764.7166159000008;764.7334568000006;772.3164628000013;None;9;0;0.6622458999991068;772.3164628000013;None;;;;;;;;8;;;;;;;773.8664061999989;None;None;None;[];773.8664061999989;None;"['9', '9', '9']";"[0.39240910000080476, 0.8161198000016157, 1.3604688000013994]";773.8664061999989;None;;;S11255;2022_Mar_01_1624;VideoMask;2021.1.2;119.97010345127197;
3.0;m;013_y_m_s_a.jpg;sad;7.0;happy_56.2ns.avi;happy;9.0;incongruent;130.0;150.0;163.39234110935848;s_h;;;;;0;59;59;59;;;;;;;776.8747481999999;None;778.4577911999986;778.774534799999;780.0410025000019;780.0576709999987;784.9327264999993;None;9;0;0.6461493000024348;784.9327264999993;None;;;;;;;;6;;;;;;;786.4743878000008;None;None;None;[];786.4743878000008;None;"['9', '9']";"[0.3202457000006689, 0.8804391000012401]";786.4743878000008;None;;;S11255;2022_Mar_01_1624;VideoMask;2021.1.2;119.97010345127197;
;;;;;;;;;;;;;;;;;;;;;;;;;;;;;;;;;;;;;;;;;;;;;;;;;;;;;;;;;;;;;;;;;789.4826874999999;None;;;;;;
