primePerson;primeGender;prime;primeEmotion;corrAnsPrime;target;targetEmotion;corrAnsTar;Cond;ID_Primer;ID_Target;JitterTime;Condition;example.thisRepN;example.thisTrialN;example.thisN;example.thisIndex;study.thisRepN;study.thisTrialN;study.thisN;study.thisIndex;MR_trigger_time;MR_trigger_number;text_intro.started;text_intro.stopped;text_probe.started;text_probe.stopped;polygon_ISI.started;polygon_ISI.stopped;polygon.started;polygon.stopped;primerImage.started;primerImage.stopped;response.started;response.stopped;key_resp.keys;key_resp.corr;key_resp.started;key_resp.stopped;slider_Text.started;slider_Text.stopped;slider_ex.response;slider_ex.rt;slider_ex.history;slider_ex.started;slider_ex.stopped;Rating;slider_resp_response.keys;slider_resp_response.started;slider_resp_response.stopped;text_start.started;text_start.stopped;key_resp.rt;text_slider.started;text_slider.stopped;slider_stud.response;slider_stud.rt;slider_stud.history;slider_stud.started;slider_stud.stopped;slider_resp_study.keys;slider_resp_study.rt;slider_resp_study.started;slider_resp_study.stopped;text_ende.started;text_ende.stopped;participant;date;expName;psychopyVersion;frameRate;
1111;m;1111_m_m_h_a.jpg;happy;9;example_30.4ns.avi;neutral;7;incongruent;120.0;170.0;189.5874364012288;;0;0;0;0;;;;;28.45682650001254;1;28.552151900017634;30.55221039999742;30.55221039999742;None;32.56886190001387;None;34.776942900032736;35.102050599991344;36.243758200027514;36.26019290002296;40.56839020003099;None;None;0;40.56839020003099;None;42.135143399995286;None;None;None;[];42.135143399995286;None;5;None;42.135143399995286;None;;;;;;;;;;;;;;;;;S11905;2022_Dec_05_1846;VideoMask;2021.1.2;120.00393613113614;
1113;f;1113_y_f_s_a.jpg;sad;7;example_30.3ns.avi;neutral;7;incongruent;130.0;170.0;229.02432995836998;;0;1;1;1;;;;;;;;;;;45.13498470000923;None;47.25166680000257;47.568337100034114;48.693445799988694;48.710095199989155;50.70151670003543;None;None;0;50.70151670003543;None;52.24298610002734;None;None;None;[];52.24298610002734;None;5;None;52.24298610002734;None;;;;;;;;;;;;;;;;;S11905;2022_Dec_05_1846;VideoMask;2021.1.2;120.00393613113614;
9.0;f;019_m_f_h_a.jpg;happy;9.0;sad_115.1.wmv;sad;7.0;incongruent;120.0;160.0;128.09063432376465;h_s;;;;;0;0;0;0;;;;;;;56.301548600022215;None;57.58464980003191;57.90125200001057;59.026394100044854;59.04298020002898;61.0512211000314;None;7;0;61.0512211000314;None;;;;;;;;3;;;;55.267999200033955;None;1.1902929000207223;62.617842100036796;None;None;None;[];62.617842100036796;None;"['7', '7', '7']";"[1.543616299983114, 2.271630199975334, 2.967652899969835]";62.617842100036796;None;;;S11905;2022_Dec_05_1846;VideoMask;2021.1.2;120.00393613113614;
3.0;m;033_o_m_s_a.jpg;sad;7.0;sad_94.2ns.avi;sad;7.0;congruent;130.0;160.0;182.29120173647655;s_s;;;;;0;1;1;1;;;;;;;65.62600380001822;None;67.36753079999471;67.68427970004268;68.81782850000309;68.83439710002858;71.50914750003722;None;7;0;71.50914750003722;None;;;;;;;;4;;;;;;0.5402774999965914;73.05911710002692;None;None;None;[];73.05911710002692;None;['7'];[0.750360100006219];73.05911710002692;None;;;S11905;2022_Dec_05_1846;VideoMask;2021.1.2;120.00393613113614;
8.0;m;008_y_m_h_a.jpg;happy;9.0;happy_26.1ns.avi;happy;9.0;congruent;120.0;150.0;155.9437854594882;h_h;;;;;0;2;2;2;;;;;;;76.05908410000848;None;77.55069000000367;77.86731260002125;78.9923963000183;79.0089508999954;80.99234669998987;None;9;0;80.99234669998987;None;;;;;;;;7;;;;;;0.6091166000114754;82.53377050004201;None;None;None;[];82.53377050004201;None;"['9', '9']";"[1.1553969000233337, 2.3078489000326954]";82.53377050004201;None;;;S11905;2022_Dec_05_1846;VideoMask;2021.1.2;120.00393613113614;
0.0;f;040_y_f_h_a.jpg;happy;9.0;sad_138.1.wmv;sad;7.0;incongruent;120.0;160.0;133.99071306426532;h_s;;;;;0;3;3;3;;;;;;;85.53367239999352;None;86.85871300002327;87.17533980001463;88.30053539999062;88.31702330004191;90.30867180001223;None;7;0;90.30867180001223;None;;;;;;;;3;;;;;;0.4124958000029437;91.8585180999944;None;None;None;[];91.8585180999944;None;"['7', '7', '7']";"[0.6307473999913782, 1.022731399978511, 1.7190151999820955]";91.8585180999944;None;;;S11905;2022_Dec_05_1846;VideoMask;2021.1.2;120.00393613113614;
8.0;f;028_y_f_s_a.jpg;sad;7.0;sad_64.2ns.avi;sad;7.0;congruent;130.0;160.0;229.88540597086478;s_s;;;;;0;4;4;4;;;;;;;94.8583916000207;None;97.049940900004;97.36658319999697;98.49155999999493;98.50822399999015;109.49964190000901;None;7;0;109.49964190000901;None;;;;;;;;4;;;;;;0.35776679997798055;111.04120390000753;None;None;None;[];111.04120390000753;None;['7'];[0.4802262000157498];111.04120390000753;None;;;S11905;2022_Dec_05_1846;VideoMask;2021.1.2;120.00393613113614;
7.0;m;027_o_m_s_a.jpg;sad;7.0;sad_10.4ns.avi;sad;7.0;congruent;130.0;160.0;185.20129417468752;s_s;;;;;0;5;5;5;;;;;;;114.04108900000574;None;115.79928320000181;116.11604300001636;117.24125140003162;117.25783980003325;120.41602010000497;None;7;0;120.41602010000497;None;;;;;;;;3;;;;;;1.3852996999630705;121.96583780000219;None;None;None;[];121.96583780000219;None;"['7', '7']";"[0.6755843000137247, 1.123578600003384]";121.96583780000219;None;;;S11905;2022_Dec_05_1846;VideoMask;2021.1.2;120.00393613113614;
2.0;f;012_o_f_s_a.jpg;sad;7.0;sad_7.5ns.avi;sad;7.0;congruent;130.0;160.0;220.27842655424388;s_s;;;;;0;6;6;6;;;;;;;124.97408150002593;None;127.01570170000196;127.33235229999991;128.4575435000006;128.4741124000284;131.2573253000155;None;7;0;131.2573253000155;None;;;;;;;;2;;;;;;0.41611599997850135;132.8071925000404;None;None;None;[];132.8071925000404;None;"['7', '7', '7', '7', '7']";"[0.4903903999947943, 0.7863468999858014, 1.186255800013896, 1.5541530000045896, 2.026029800006654]";132.8071925000404;None;;;S11905;2022_Dec_05_1846;VideoMask;2021.1.2;120.00393613113614;
2.0;f;012_o_f_h_a.jpg;happy;9.0;happy_27.1ns.avi;happy;9.0;congruent;120.0;150.0;146.44967055810616;h_h;;;;;0;7;7;7;;;;;;;135.8071061000228;None;137.22371839999687;137.54036590002943;138.6655735000386;138.68201280001085;141.16525870002806;None;9;0;141.16525870002806;None;;;;;;;;7;;;;;;0.5883203000412323;142.71519860002445;None;None;None;[];142.71519860002445;None;"['9', '9']";"[0.4302711999625899, 0.9421166999964043]";142.71519860002445;None;;;S11905;2022_Dec_05_1846;VideoMask;2021.1.2;120.00393613113614;
8.0;f;028_y_f_h_a.jpg;happy;9.0;sad_119.1.wmv;sad;7.0;incongruent;120.0;160.0;148.71526953572538;h_s;;;;;0;8;8;8;;;;;;;145.71512529999018;None;147.17334830004256;147.49008780001896;148.61510920000728;148.63177520001773;150.68992279999657;None;7;0;150.68992279999657;None;;;;;;;;2;;;;;;0.5833382999990135;152.23985600000015;None;None;None;[];152.23985600000015;None;"['7', '7', '7', '7']";"[0.5215240999823436, 0.8813128999900073, 1.5933147000032477, 2.217322900018189]";152.23985600000015;None;;;S11905;2022_Dec_05_1846;VideoMask;2021.1.2;120.00393613113614;
6.0;m;016_y_m_s_a.jpg;sad;7.0;happy_60.4ns.avi;happy;9.0;incongruent;130.0;150.0;126.02367393611817;s_h;;;;;0;9;9;9;;;;;;;155.23979520000285;None;156.5230709000025;156.8397320000222;157.96479450003244;157.98131380003178;163.7644651000155;None;9;0;163.7644651000155;None;;;;;;;;8;;;;;;0.4287962999660522;165.331072400033;None;None;None;[];165.331072400033;None;"['9', '9', '9', '9']";"[0.5343799999682233, 1.038394299976062, 1.6781142999534495, 2.3662610999890603]";165.331072400033;None;;;S11905;2022_Dec_05_1846;VideoMask;2021.1.2;120.00393613113614;
9.0;f;019_m_f_s_a.jpg;sad;7.0;sad_8.4ns.avi;sad;7.0;congruent;130.0;160.0;171.6633093155257;s_s;;;;;0;10;10;10;;;;;;;168.330982399988;None;170.01430139999138;170.33096880000085;171.45609330001753;171.47265980002703;179.59738089999883;None;7;0;179.59738089999883;None;;;;;;;;3;;;;;;0.4920010999776423;181.1472813000437;None;None;None;[];181.1472813000437;None;"['7', '7']";"[0.38242570002330467, 1.022180300031323]";181.1472813000437;None;;;S11905;2022_Dec_05_1846;VideoMask;2021.1.2;120.00393613113614;
4.0;m;004_o_m_h_a.jpg;happy;9.0;happy_1.1ns.avi;happy;9.0;congruent;120.0;150.0;203.50057144619865;h_h;;;;;0;11;11;11;;;;;;;184.1471897000447;None;186.1554428000236;186.47215610003332;187.5971867000335;187.6138401000062;202.08821080002235;None;9;0;202.08821080002235;None;;;;;;;;6;;;;;;0.4009399999631569;203.63816360000055;None;None;None;[];203.63816360000055;None;['9'];[0.4431622999836691];203.63816360000055;None;;;S11905;2022_Dec_05_1846;VideoMask;2021.1.2;120.00393613113614;
7.0;m;027_o_m_h_a.jpg;happy;9.0;happy_20.1ns.avi;happy;9.0;congruent;120.0;150.0;152.91127178874285;h_h;;;;;0;12;12;12;;;;;;;206.63806010002736;None;208.1380737000145;208.4547836999991;209.57130980002694;209.5880543999956;212.60461450001458;None;9;0;212.60461450001458;None;;;;;;;;7;;;;;;0.6369104000041261;214.15451830002712;None;None;None;[];214.15451830002712;None;"['9', '9']";"[0.3668622000259347, 0.7746922000078484]";214.15451830002712;None;;;S11905;2022_Dec_05_1846;VideoMask;2021.1.2;120.00393613113614;
0.0;f;040_y_f_s_a.jpg;sad;7.0;sad_94.3ns.avi;sad;7.0;congruent;130.0;160.0;155.27414203894395;s_s;;;;;0;13;13;13;;;;;;;217.1544405000168;None;218.66270750004333;218.97945059998892;220.10444309999002;220.1209794000024;222.7376307999948;None;7;0;222.7376307999948;None;;;;;;;;5;;;;;;0.4877228999976069;224.28748450003332;None;None;None;[];224.28748450003332;None;"['7', '7']";"[0.6098003999795765, 1.378023299970664]";224.28748450003332;None;;;S11905;2022_Dec_05_1846;VideoMask;2021.1.2;120.00393613113614;
0.0;f;030_o_f_s_a.jpg;sad;7.0;sad_68.1ns.avi;sad;7.0;congruent;130.0;160.0;158.9411396037211;s_s;;;;;0;14;14;14;;;;;;;227.28744799998822;None;228.85403370001586;229.17072069999995;230.29569400002947;230.31239219999406;237.72878130001482;None;7;0;237.72878130001482;None;;;;;;;;3;;;;;;0.32034089998342097;239.2787660000031;None;None;None;[];239.2787660000031;None;"['7', '7']";"[0.33840119995875284, 1.3223377999966033]";239.2787660000031;None;;;S11905;2022_Dec_05_1846;VideoMask;2021.1.2;120.00393613113614;
0.0;f;030_o_f_h_a.jpg;happy;9.0;sad_127.1.wmv;sad;7.0;incongruent;120.0;160.0;180.59976631384873;h_s;;;;;0;15;15;15;;;;;;;242.27863030001754;None;244.00348940002732;244.3202706000302;245.4453177000396;245.4619447000441;247.45345209998777;None;7;0;247.45345209998777;None;;;;;;;;4;;;;;;0.6518700000015087;249.0034001999884;None;None;None;[];249.0034001999884;None;['7'];[0.36596599995391443];249.0034001999884;None;;;S11905;2022_Dec_05_1846;VideoMask;2021.1.2;120.00393613113614;
8.0;m;008_y_m_s_a.jpg;sad;7.0;happy_133.3.wmv;happy;9.0;incongruent;130.0;150.0;152.577966552593;s_h;;;;;0;16;16;16;;;;;;;252.00330530002248;None;253.5032654000097;253.81995370000368;254.94498950004345;254.96162320004078;256.9531289000297;None;9;0;256.9531289000297;None;;;;;;;;6;;;;;;0.40015020000282675;258.5031261999975;None;None;None;[];258.5031261999975;None;['9'];[0.5300862999865785];258.5031261999975;None;;;S11905;2022_Dec_05_1846;VideoMask;2021.1.2;120.00393613113614;
3.0;m;033_o_m_h_a.jpg;happy;9.0;sad_128.1.wmv;sad;7.0;incongruent;120.0;160.0;171.0492454518585;h_s;;;;;0;17;17;17;;;;;;;261.50299200002337;None;263.161215500033;263.47795900003985;264.60308960004477;264.61951620003674;266.61115539999446;None;7;0;266.61115539999446;None;;;;;;;;4;;;;;;1.1261814000317827;268.16104430000996;None;None;None;[];268.16104430000996;None;"['7', '7']";"[0.5603191999834962, 1.0323413999867626]";268.16104430000996;None;;;S11905;2022_Dec_05_1846;VideoMask;2021.1.2;120.00393613113614;
1.0;f;021_o_f_h_a.jpg;happy;9.0;sad_116.1.wmv;sad;7.0;incongruent;120.0;160.0;184.06847610053055;h_s;;;;;0;18;18;18;;;;;;;271.1610176000395;None;272.9109039999894;273.2276525000343;274.3527974000317;274.36932649998926;276.36080870003207;None;7;0;276.36080870003207;None;;;;;;;;4;;;;;;0.6325039000366814;277.9107860000222;None;None;None;[];277.9107860000222;None;['7'];[0.49034740001661703];277.9107860000222;None;;;S11905;2022_Dec_05_1846;VideoMask;2021.1.2;120.00393613113614;
4.0;m;004_o_m_s_a.jpg;sad;7.0;happy_28.1ns.avi;happy;9.0;incongruent;130.0;150.0;157.40741103039684;s_h;;;;;0;19;19;19;;;;;;;280.9106974999886;None;282.43563650001306;282.752292899997;283.87748780002585;283.8939937000396;288.2770670999889;None;9;0;288.2770670999889;None;;;;;;;;7;;;;;;0.4284289000206627;289.82703330001095;None;None;None;[];289.82703330001095;None;"['9', '9']";"[0.3584380999673158, 0.7580862999893725]";289.82703330001095;None;;;S11905;2022_Dec_05_1846;VideoMask;2021.1.2;120.00393613113614;
8.0;f;028_y_f_s_a.jpg;sad;7.0;happy_122.3.wmv;happy;9.0;incongruent;130.0;150.0;171.8670540936116;s_h;;;;;0;20;20;20;;;;;;;292.8270101000089;None;294.4685199999949;294.7851806000108;295.91034010000294;295.92691000003833;297.9184903000132;None;9;0;297.9184903000132;None;;;;;;;;8;;;;;;0.4108129999949597;299.4684770000167;None;None;None;[];299.4684770000167;None;"['9', '9', '9', '9']";"[0.5008716000011191, 0.8126737999846227, 1.1090107000200078, 1.5088672999991104]";299.4684770000167;None;;;S11905;2022_Dec_05_1846;VideoMask;2021.1.2;120.00393613113614;
8.0;m;008_y_m_s_a.jpg;sad;7.0;sad_6.5ns.avi;sad;7.0;congruent;130.0;160.0;170.39333839271438;s_s;;;;;0;21;21;21;;;;;;;302.47665920003783;None;304.1099632999976;304.4266990000033;305.5517535000108;305.56844390003243;310.5596760000335;None;7;0;310.5596760000335;None;;;;;;;;3;;;;;;0.6576859999913722;312.10965689999284;None;None;None;[];312.10965689999284;None;"['7', '7']";"[0.3955398999969475, 1.10756809997838]";312.10965689999284;None;;;S11905;2022_Dec_05_1846;VideoMask;2021.1.2;120.00393613113614;
8.0;f;028_y_f_h_a.jpg;happy;9.0;happy_23.1ns.avi;happy;9.0;congruent;120.0;150.0;225.70986890587952;h_h;;;;;0;22;22;22;;;;;;;315.1095178000396;None;317.19297169998754;317.5095265000127;318.62609380000504;318.64280880003935;323.21767740004;None;9;0;323.21767740004;None;;;;;;;;7;;;;;;0.5437428000150248;324.76760150003247;None;None;None;[];324.76760150003247;None;"['9', '9']";"[0.33780050004133955, 0.7135591999976896]";324.76760150003247;None;;;S11905;2022_Dec_05_1846;VideoMask;2021.1.2;120.00393613113614;
8.0;m;008_y_m_h_a.jpg;happy;9.0;sad_111.1.wmv;sad;7.0;incongruent;120.0;160.0;152.63076835312847;h_s;;;;;0;23;23;23;;;;;;;327.76743750000605;None;329.2424542999943;329.5590741999913;330.6840962000424;330.7007435000269;332.69228170003043;None;7;0;332.69228170003043;None;;;;;;;;3;;;;;;0.41274979995796457;334.242250100011;None;None;None;[];334.242250100011;None;"['7', '7', '7', '7', '7']";"[0.3831885000108741, 0.7188789999927394, 1.310832399991341, 1.7272601000149734, 2.1671078999643214]";334.242250100011;None;;;S11905;2022_Dec_05_1846;VideoMask;2021.1.2;120.00393613113614;
0.0;f;040_y_f_s_a.jpg;sad;7.0;sad_67.2ns.avi;sad;7.0;congruent;130.0;160.0;220.9892697323079;s_s;;;;;0;24;24;24;;;;;;;337.2422010000446;None;339.33380000002217;339.65046550001716;340.775570400001;340.7920777000254;350.00848140002927;None;7;0;350.00848140002927;None;;;;;;;;4;;;;;;0.5526737000327557;351.55834059999324;None;None;None;[];351.55834059999324;None;"['7', '7']";"[0.41889430000446737, 0.8747587000252679]";351.55834059999324;None;;;S11905;2022_Dec_05_1846;VideoMask;2021.1.2;120.00393613113614;
8.0;m;008_y_m_s_a.jpg;sad;7.0;happy_29.1ns.avi;happy;9.0;incongruent;130.0;150.0;120.0316142834122;s_h;;;;;0;25;25;25;;;;;;;354.55823870003223;None;355.7832497000345;356.09993810002925;357.21653490001336;357.23323600000003;359.9247777000419;None;9;0;359.9247777000419;None;;;;;;;;6;;;;;;0.428280399995856;361.4747302000178;None;None;None;[];361.4747302000178;None;"['9', '9', '9']";"[0.33456510002724826, 1.1023401000420563, 1.8866236000321805]";361.4747302000178;None;;;S11905;2022_Dec_05_1846;VideoMask;2021.1.2;120.00393613113614;
6.0;m;016_y_m_s_a.jpg;sad;7.0;sad_8.3ns.avi;sad;7.0;congruent;130.0;160.0;152.85371098242734;s_s;;;;;0;26;26;26;;;;;;;364.47462890000315;None;366.00814220000757;366.3245642000111;367.4497181000188;367.46626920002745;375.21593490004307;None;7;0;375.21593490004307;None;;;;;;;;4;;;;;;0.5935458000167273;376.76589500001865;None;None;None;[];376.76589500001865;None;['7'];[0.5715200999984518];376.76589500001865;None;;;S11905;2022_Dec_05_1846;VideoMask;2021.1.2;120.00393613113614;
6.0;m;016_y_m_h_a.jpg;happy;9.0;sad_114.1.wmv;sad;7.0;incongruent;120.0;160.0;136.20550699298644;h_s;;;;;0;27;27;27;;;;;;;379.765785399999;None;381.1156050999998;381.432407699991;382.5576419000281;382.5740882999962;384.5656197000062;None;None;0;384.5656197000062;None;;;;;;;;5;;;;;;;386.11582589999307;None;None;None;[];386.11582589999307;None;None;;386.11582589999307;None;;;S11905;2022_Dec_05_1846;VideoMask;2021.1.2;120.00393613113614;
7.0;m;027_o_m_s_a.jpg;sad;7.0;happy_117.3.wmv;happy;9.0;incongruent;130.0;150.0;215.61964028550614;s_h;;;;;0;28;28;28;;;;;;;389.13203440001234;None;391.12374920002185;391.44036499998765;392.56542500003707;392.58213250001427;394.57365740003297;None;9;0;394.57365740003297;None;;;;;;;;7;;;;;;0.739593899983447;396.11525780003285;None;None;None;[];396.11525780003285;None;"['9', '9', '9', '9']";"[0.27810300001874566, 0.8221411000122316, 1.4779037000262178, 1.9739794000051916]";396.11525780003285;None;;;S11905;2022_Dec_05_1846;VideoMask;2021.1.2;120.00393613113614;
6.0;m;016_y_m_h_a.jpg;happy;9.0;happy_9.2ns.avi;happy;9.0;congruent;120.0;150.0;130.52042428082717;h_h;;;;;0;29;29;29;;;;;;;399.1152357000392;None;400.440095500031;400.75680390000343;401.8819748000242;401.8984150000033;407.8149429000332;None;9;0;407.8149429000332;None;;;;;;;;8;;;;;;0.4820975000038743;409.36479830002645;None;None;None;[];409.36479830002645;None;"['9', '9', '9']";"[0.34818480000831187, 0.6845647000009194, 1.0204939999966882]";409.36479830002645;None;;;S11905;2022_Dec_05_1846;VideoMask;2021.1.2;120.00393613113614;
0.0;f;040_y_f_s_a.jpg;sad;7.0;happy_127.3.wmv;happy;9.0;incongruent;130.0;150.0;131.7195455720239;s_h;;;;;0;30;30;30;;;;;;;412.3646978000179;None;413.6729525999981;413.9897018999909;415.1147462000372;415.13136320002377;417.1895780999912;None;9;0;417.1895780999912;None;;;;;;;;6;;;;;;0.6997019000118598;418.7395231000264;None;None;None;[];418.7395231000264;None;['9'];[0.573469000053592];418.7395231000264;None;;;S11905;2022_Dec_05_1846;VideoMask;2021.1.2;120.00393613113614;
0.0;f;030_o_f_s_a.jpg;sad;7.0;happy_125.3.wmv;happy;9.0;incongruent;130.0;150.0;220.51454909128134;s_h;;;;;0;31;31;31;;;;;;;421.73937600001227;None;423.8060301000369;424.1226660000393;425.24790650000796;425.26436249999097;427.2559474000009;None;9;0;427.2559474000009;None;;;;;;;;6;;;;;;0.7133350999793038;428.7974923000438;None;None;None;[];428.7974923000438;None;"['9', '9']";"[0.42767050000838935, 0.9234397999825887]";428.7974923000438;None;;;S11905;2022_Dec_05_1846;VideoMask;2021.1.2;120.00393613113614;
0.0;f;030_o_f_s_a.jpg;sad;7.0;sad_64.3ns.avi;sad;7.0;congruent;130.0;160.0;165.78667874766072;s_s;;;;;0;32;32;32;;;;;;;431.7973769000382;None;433.40559810004197;433.72239479998825;434.84754119999707;434.86402010003803;439.85550720000174;None;7;0;439.85550720000174;None;;;;;;;;3;;;;;;0.729450499988161;441.4053911000374;None;None;None;[];441.4053911000374;None;"['7', '7']";"[0.5396276999963447, 2.571880399947986]";441.4053911000374;None;;;S11905;2022_Dec_05_1846;VideoMask;2021.1.2;120.00393613113614;
3.0;m;013_y_m_s_a.jpg;sad;7.0;sad_7.7ns.avi;sad;7.0;congruent;130.0;160.0;196.24182255763262;s_s;;;;;0;33;33;33;;;;;;;444.4052989000338;None;446.25515550002456;446.5719753000303;447.697091500042;447.7136513000005;453.7050733999931;None;7;0;453.7050733999931;None;;;;;;;;4;;;;;;0.3600970000261441;455.2549689000007;None;None;None;[];455.2549689000007;None;['7'];[0.4819808999891393];455.2549689000007;None;;;S11905;2022_Dec_05_1846;VideoMask;2021.1.2;120.00393613113614;
3.0;m;013_y_m_h_a.jpg;happy;9.0;happy_9.1ns.avi;happy;9.0;congruent;120.0;150.0;165.1890303600433;h_h;;;;;0;34;34;34;;;;;;;458.2549107000232;None;459.85487070004456;460.1714684999897;461.29650230001425;461.3131096000434;464.5297053999966;None;9;0;464.5297053999966;None;;;;;;;;6;;;;;;0.6313456000061706;466.07961429998977;None;None;None;[];466.07961429998977;None;['9'];[0.3378116000094451];466.07961429998977;None;;;S11905;2022_Dec_05_1846;VideoMask;2021.1.2;120.00393613113614;
4.0;m;004_o_m_h_a.jpg;happy;9.0;sad_95.1ns.avi;sad;7.0;incongruent;120.0;160.0;152.68270002069931;h_s;;;;;0;35;35;35;;;;;;;469.079543400032;None;470.6213362000417;470.93782170000486;472.06302170001436;472.0795276000281;480.86249379999936;None;7;0;480.86249379999936;None;;;;;;;;4;;;;;;0.7467687000171281;482.41237320000073;None;None;None;[];482.41237320000073;None;"['7', '7']";"[0.46088159998180345, 1.0047819999745116]";482.41237320000073;None;;;S11905;2022_Dec_05_1846;VideoMask;2021.1.2;120.00393613113614;
3.0;m;013_y_m_h_a.jpg;happy;9.0;sad_113.2.wmv;sad;7.0;incongruent;120.0;160.0;217.4973891947951;h_s;;;;;0;36;36;36;;;;;;;485.41229760000715;None;487.46227080002427;487.7789557999931;488.90413889999036;488.9205360999913;490.9121681000106;None;7;0;490.9121681000106;None;;;;;;;;4;;;;;;0.9451108999783173;492.4620668000425;None;None;None;[];492.4620668000425;None;['7'];[0.4749166000401601];492.4620668000425;None;;;S11905;2022_Dec_05_1846;VideoMask;2021.1.2;120.00393613113614;
4.0;m;004_o_m_h_a.jpg;happy;9.0;happy_25.1ns.avi;happy;9.0;congruent;120.0;150.0;216.63044503818386;h_h;;;;;0;37;37;37;;;;;;;495.4620179000194;None;497.4869027000386;497.8036021000007;498.9287924999953;498.9453140000114;502.6284796000109;None;9;0;502.6284796000109;None;;;;;;;;6;;;;;;0.6766601999988779;504.1783672000165;None;None;None;[];504.1783672000165;None;['9'];[0.43851559999166057];504.1783672000165;None;;;S11905;2022_Dec_05_1846;VideoMask;2021.1.2;120.00393613113614;
4.0;m;004_o_m_s_a.jpg;sad;7.0;happy_131.2.wmv;happy;9.0;incongruent;130.0;150.0;181.38407540847405;s_h;;;;;0;38;38;38;;;;;;;507.1783527000225;None;508.8947788000223;509.2116007000441;510.336579099996;510.3531622000155;512.3447789000347;None;9;0;512.3447789000347;None;;;;;;;;7;;;;;;0.4320754999644123;513.8946265000268;None;None;None;[];513.8946265000268;None;"['9', '9']";"[0.32221180002670735, 1.426259400031995]";513.8946265000268;None;;;S11905;2022_Dec_05_1846;VideoMask;2021.1.2;120.00393613113614;
0.0;f;040_y_f_h_a.jpg;happy;9.0;happy_24.3ns.avi;happy;9.0;congruent;120.0;150.0;213.25460698950434;h_h;;;;;0;39;39;39;;;;;;;516.8945792000159;None;518.8611870000022;519.1779685000074;520.3029048999888;520.3195433000219;522.2361039000098;None;9;0;522.2361039000098;None;;;;;;;;6;;;;;;0.7329248999594711;523.7861029999913;None;None;None;[];523.7861029999913;None;['9'];[0.3027914999984205];523.7861029999913;None;;;S11905;2022_Dec_05_1846;VideoMask;2021.1.2;120.00393613113614;
2.0;f;012_o_f_s_a.jpg;sad;7.0;happy_139.1.wmv;happy;9.0;incongruent;130.0;150.0;162.31500468041804;s_h;;;;;0;40;40;40;;;;;;;526.7859766000183;None;528.3443211000413;528.6608472000225;529.785963900038;529.8025796000147;531.7942469000118;None;9;0;531.7942469000118;None;;;;;;;;6;;;;;;0.7187537999707274;533.3440835000365;None;None;None;[];533.3440835000365;None;"['9', '9']";"[0.3853003000258468, 0.8888915000134148]";533.3440835000365;None;;;S11905;2022_Dec_05_1846;VideoMask;2021.1.2;120.00393613113614;
0.0;f;030_o_f_h_a.jpg;happy;9.0;happy_24.1ns.avi;happy;9.0;congruent;120.0;150.0;168.36256624020774;h_h;;;;;0;41;41;41;;;;;;;536.3439371000277;None;538.2522246000008;538.5690099000349;539.6940038999892;539.7106458999915;543.0271210999927;None;9;0;543.0271210999927;None;;;;;;;;6;;;;;;0.6457197000272572;544.5771130000358;None;None;None;[];544.5771130000358;None;"['9', '9']";"[0.3280514000216499, 0.8161089000059292]";544.5771130000358;None;;;S11905;2022_Dec_05_1846;VideoMask;2021.1.2;120.00393613113614;
2.0;f;012_o_f_h_a.jpg;happy;9.0;sad_113.1.wmv;sad;7.0;incongruent;120.0;160.0;177.44551734737394;h_s;;;;;0;42;42;42;;;;;;;547.576937600039;None;549.2602367000072;549.5769183000084;550.7021530999918;550.7186197999981;552.7101041999995;None;7;0;552.7101041999995;None;;;;;;;;4;;;;;;0.4429785999818705;554.2517690000241;None;None;None;[];554.2517690000241;None;['7'];[0.39718999998876825];554.2517690000241;None;;;S11905;2022_Dec_05_1846;VideoMask;2021.1.2;120.00393613113614;
3.0;m;033_o_m_s_a.jpg;sad;7.0;sad_64.5ns.avi;sad;7.0;congruent;130.0;160.0;130.55717223801247;s_s;;;;;0;43;43;43;;;;;;;557.2516730999923;None;558.5765968000051;558.8932717000134;560.0184603999951;560.0349730000016;566.6097678000224;None;7;0;566.6097678000224;None;;;;;;;;3;;;;;;0.7274394999840297;568.1596208999981;None;None;None;[];568.1596208999981;None;"['7', '7', '7']";"[0.4093485999619588, 0.8972497999784537, 1.2973187000025064]";568.1596208999981;None;;;S11905;2022_Dec_05_1846;VideoMask;2021.1.2;120.00393613113614;
7.0;m;027_o_m_h_a.jpg;happy;9.0;sad_117.1.wmv;sad;7.0;incongruent;120.0;160.0;181.28665202824095;h_s;;;;;0;44;44;44;;;;;;;571.1594987999997;None;572.8844550999929;573.2011410000268;574.3263349999906;574.3428633000003;576.3344139000401;None;7;0;576.3344139000401;None;;;;;;;;4;;;;;;0.7467691000201739;577.8843611000339;None;None;None;[];577.8843611000339;None;['7'];[0.40452889999141917];577.8843611000339;None;;;S11905;2022_Dec_05_1846;VideoMask;2021.1.2;120.00393613113614;
3.0;m;033_o_m_s_a.jpg;sad;7.0;happy_126.3.wmv;happy;9.0;incongruent;130.0;150.0;198.85252030535366;s_h;;;;;0;45;45;45;;;;;;;580.88412230002;None;582.7590815000003;583.0757912000408;584.2008956000209;584.2174336999888;586.2090662000119;None;9;0;586.2090662000119;None;;;;;;;;6;;;;;;0.4400594999897294;587.7589970999979;None;None;None;[];587.7589970999979;None;"['9', '9', '7']";"[0.3462293000193313, 1.122016999986954, 1.6820377999683842]";587.7589970999979;None;;;S11905;2022_Dec_05_1846;VideoMask;2021.1.2;120.00393613113614;
3.0;m;033_o_m_h_a.jpg;happy;9.0;sad_136.1.wmv;sad;7.0;incongruent;120.0;160.0;176.97002883463455;h_s;;;;;0;46;46;46;;;;;;;590.758945700014;None;592.4505340000032;592.7671716000186;593.8921869000187;593.9087904000189;595.900395100005;None;None;0;595.900395100005;None;;;;;;;;5;;;;;;;597.4505527000292;None;None;None;[];597.4505527000292;None;None;;597.4505527000292;None;;;S11905;2022_Dec_05_1846;VideoMask;2021.1.2;120.00393613113614;
9.0;f;019_m_f_h_a.jpg;happy;9.0;happy_10.1ns.avi;happy;9.0;congruent;120.0;150.0;157.2463435658512;h_h;;;;;0;47;47;47;;;;;;;600.4668473000056;None;602.0335018000333;602.3502356000245;603.4753652000218;603.4919010000303;610.9249696999905;None;9;0;610.9249696999905;None;;;;;;;;6;;;;;;0.3559238000307232;612.4748721999931;None;None;None;[];612.4748721999931;None;['9'];[0.14213749999180436];612.4748721999931;None;;;S11905;2022_Dec_05_1846;VideoMask;2021.1.2;120.00393613113614;
2.0;f;012_o_f_h_a.jpg;happy;9.0;happy_2.2ns.avi;happy;9.0;congruent;120.0;150.0;206.34800317295262;h_h;;;;;0;48;48;48;;;;;;;615.4747812999994;None;617.4413364999928;617.7580352000077;618.8832135000266;618.8996925000101;631.099263400014;None;9;0;631.099263400014;None;;;;;;;;5;;;;;;0.31792549998499453;632.6491677000304;None;None;None;[];632.6491677000304;None;None;;632.6491677000304;None;;;S11905;2022_Dec_05_1846;VideoMask;2021.1.2;120.00393613113614;
3.0;m;033_o_m_h_a.jpg;happy;9.0;happy_24.2ns.avi;happy;9.0;congruent;120.0;150.0;167.9423847659953;h_h;;;;;0;49;49;49;;;;;;;635.6657690000138;None;637.2823845000239;637.5989897000254;638.7243640000233;638.7406835000147;642.4572188000311;None;9;0;642.4572188000311;None;;;;;;;;6;;;;;;0.8321045000338927;644.0071181000094;None;None;None;[];644.0071181000094;None;['9'];[0.48186050000367686];644.0071181000094;None;;;S11905;2022_Dec_05_1846;VideoMask;2021.1.2;120.00393613113614;
1.0;f;021_o_f_s_a.jpg;sad;7.0;happy_61.2ns.avi;happy;9.0;incongruent;130.0;150.0;210.94664004826666;s_h;;;;;0;50;50;50;;;;;;;647.0070781999966;None;648.9821341999923;649.2986657000147;650.4236977000255;650.4402718000347;654.956988800026;None;9;0;654.956988800026;None;;;;;;;;6;;;;;;0.5642484999843873;656.5066975000082;None;None;None;[];656.5066975000082;None;['9'];[0.31024139997316524];656.5066975000082;None;;;S11905;2022_Dec_05_1846;VideoMask;2021.1.2;120.00393613113614;
4.0;m;004_o_m_s_a.jpg;sad;7.0;sad_2.4ns.avi;sad;7.0;congruent;130.0;160.0;153.02079367163634;s_s;;;;;0;51;51;51;;;;;;;659.5065999000217;None;661.0149136999971;661.3316341000027;662.4567743000225;662.4733363999985;670.4312683999888;None;7;0;670.4312683999888;None;;;;;;;;4;;;;;;0.6736829999717884;671.9812416000059;None;None;None;[];671.9812416000059;None;['7'];[0.3638156999950297];671.9812416000059;None;;;S11905;2022_Dec_05_1846;VideoMask;2021.1.2;120.00393613113614;
8.0;m;008_y_m_h_a.jpg;happy;9.0;happy_1.2ns.avi;happy;9.0;congruent;120.0;150.0;210.98946429383824;h_h;;;;;0;52;52;52;;;;;;;674.9811525000259;None;677.014553999994;677.3311158000142;678.4562461000169;678.472811100015;691.2556245000451;None;9;0;691.2556245000451;None;;;;;;;;7;;;;;;0.361490799987223;692.8055851000245;None;None;None;[];692.8055851000245;None;"['9', '9']";"[0.2673850000137463, 0.5713132999953814]";692.8055851000245;None;;;S11905;2022_Dec_05_1846;VideoMask;2021.1.2;120.00393613113614;
2.0;f;012_o_f_s_a.jpg;sad;7.0;happy_52.2ns.avi;happy;9.0;incongruent;130.0;150.0;172.57202848318138;s_h;;;;;0;53;53;53;;;;;;;695.8054621000192;None;697.4553907000227;697.772119500034;698.8972535000066;698.9137078000349;702.455282400013;None;9;0;702.455282400013;None;;;;;;;;6;;;;;;0.7296687999623828;704.005253100011;None;None;None;[];704.005253100011;None;['9'];[0.291547000000719];704.005253100011;None;;;S11905;2022_Dec_05_1846;VideoMask;2021.1.2;120.00393613113614;
9.0;f;019_m_f_s_a.jpg;sad;7.0;happy_61.1ns.avi;happy;9.0;incongruent;130.0;150.0;181.3003220572762;s_h;;;;;0;54;54;54;;;;;;;707.0050676999963;None;708.7884457000182;709.1050528000342;710.2302465999965;710.2467353999964;717.6297612999915;None;9;0;717.6297612999915;None;;;;;;;;7;;;;;;0.3233827999792993;719.1796535000321;None;None;None;[];719.1796535000321;None;"['9', '9', '9']";"[0.27745839999988675, 0.7494197000050917, 1.1095294999540783]";719.1796535000321;None;;;S11905;2022_Dec_05_1846;VideoMask;2021.1.2;120.00393613113614;
0.0;f;030_o_f_h_a.jpg;happy;9.0;sad_133.1.wmv;sad;7.0;incongruent;120.0;160.0;198.86251500867985;h_s;;;;;0;55;55;55;;;;;;;722.1796518000192;None;724.0544515000074;724.3712089000037;725.4964427000377;725.5128659000038;727.504396400007;None;7;0;727.504396400007;None;;;;;;;;5;;;;;;0.3527542999945581;729.0543251000345;None;None;None;[];729.0543251000345;None;None;;729.0543251000345;None;;;S11905;2022_Dec_05_1846;VideoMask;2021.1.2;120.00393613113614;
0.0;f;040_y_f_h_a.jpg;happy;9.0;sad_128.2.wmv;sad;7.0;incongruent;120.0;160.0;206.10005857915363;h_s;;;;;0;56;56;56;;;;;;;732.0708902000333;None;733.9958661000128;734.3125666000415;735.4378243000247;735.4542352000135;737.4457918000408;None;7;0;737.4457918000408;None;;;;;;;;4;;;;;;0.7631832000333816;738.995682400011;None;None;None;[];738.995682400011;None;['7'];[0.3333349999738857];738.995682400011;None;;;S11905;2022_Dec_05_1846;VideoMask;2021.1.2;120.00393613113614;
1.0;f;021_o_f_s_a.jpg;sad;7.0;sad_9.5ns.avi;sad;7.0;congruent;130.0;160.0;206.16642757875042;s_s;;;;;0;57;57;57;;;;;;;741.9956949999905;None;743.9372355000232;744.2539131999947;745.3788640000275;745.3955674000317;751.1119534000172;None;7;0;751.1119534000172;None;;;;;;;;4;;;;;;0.4649855999741703;752.6619134999928;None;None;None;[];752.6619134999928;None;['7'];[1.7068626999971457];752.6619134999928;None;;;S11905;2022_Dec_05_1846;VideoMask;2021.1.2;120.00393613113614;
1.0;f;021_o_f_h_a.jpg;happy;9.0;happy_12.1ns.avi;happy;9.0;congruent;120.0;150.0;132.59080005900228;h_h;;;;;0;58;58;58;;;;;;;755.6618060999899;None;757.0201395000331;757.3367722000112;758.4533605999895;758.4700941999909;766.0865797000006;None;8;0;766.0865797000006;None;;;;;;;;5;;;;;;0.5304161999956705;767.628124000039;None;None;None;[];767.628124000039;None;None;;767.628124000039;None;;;S11905;2022_Dec_05_1846;VideoMask;2021.1.2;120.00393613113614;
3.0;m;013_y_m_s_a.jpg;sad;7.0;happy_56.2ns.avi;happy;9.0;incongruent;130.0;150.0;163.39234110935848;s_h;;;;;0;59;59;59;;;;;;;770.6446753999917;None;772.2363001999911;772.5529763000086;773.678142299992;773.6946441000327;778.711099600012;None;9;0;778.711099600012;None;;;;;;;;5;;;;;;0.6177336999680847;780.2610295999912;None;None;None;[];780.2610295999912;None;None;;780.2610295999912;None;;;S11905;2022_Dec_05_1846;VideoMask;2021.1.2;120.00393613113614;
;;;;;;;;;;;;;;;;;;;;;;;;;;;;;;;;;;;;;;;;;;;;;;;;;;;;;;;;;;;;;;;;783.277565299999;None;;;;;;
