primePerson;primeGender;prime;primeEmotion;corrAnsPrime;target;targetEmotion;corrAnsTar;Cond;ID_Primer;ID_Target;JitterTime;Condition;example.thisRepN;example.thisTrialN;example.thisN;example.thisIndex;study.thisRepN;study.thisTrialN;study.thisN;study.thisIndex;MR_trigger_time;MR_trigger_number;text_intro.started;text_intro.stopped;text_probe.started;text_probe.stopped;polygon_ISI.started;polygon_ISI.stopped;polygon.started;polygon.stopped;primerImage.started;primerImage.stopped;response.started;response.stopped;key_resp.keys;key_resp.corr;key_resp.rt;key_resp.started;key_resp.stopped;slider_Text.started;slider_Text.stopped;slider_ex.response;slider_ex.rt;slider_ex.history;slider_ex.started;slider_ex.stopped;Rating;slider_resp_response.keys;slider_resp_response.rt;slider_resp_response.started;slider_resp_response.stopped;text_start.started;text_start.stopped;text_slider.started;text_slider.stopped;slider_stud.response;slider_stud.rt;slider_stud.history;slider_stud.started;slider_stud.stopped;slider_resp_study.keys;slider_resp_study.rt;slider_resp_study.started;slider_resp_study.stopped;text_ende.started;text_ende.stopped;participant;date;expName;psychopyVersion;frameRate;
1111;m;1111_m_m_h_a.jpg;happy;9;example_30.4ns.avi;neutral;7;incongruent;120.0;170.0;189.5874364012288;;0;0;0;0;;;;;48.6905151999963;1;48.77598820001003;51.417269300000044;51.417269300000044;None;52.80061390000628;None;55.23415980002028;55.55877830000827;56.7504168000014;56.76712590001989;61.050562000018544;None;9;0;0.7468819000059739;61.050562000018544;None;62.89207390000229;None;None;None;[];62.89207390000229;None;8;"['9', '9', '9']";"[1.0336560000141617, 1.5453526000201236, 1.8094704000104684]";62.89207390000229;None;;;;;;;;;;;;;;;;S11986;2023_Jan_26_1802;VideoMask;2021.1.2;59.900899956613806;
1113;f;1113_y_f_s_a.jpg;sad;7;example_30.3ns.avi;neutral;7;incongruent;130.0;170.0;229.02432995836998;;0;1;1;1;;;;;;;;;;;65.9005707000033;None;68.03332839999348;68.35848950000945;69.48345790000167;69.50006900000153;71.48341700001038;None;8;0;1.3141962999943644;71.48341700001038;None;73.04161970000132;None;None;None;[];73.04161970000132;None;6;['9'];[2.81969589999062];73.04161970000132;None;;;;;;;;;;;;;;;;S11986;2023_Jan_26_1802;VideoMask;2021.1.2;59.900899956613806;
9.0;f;019_m_f_h_a.jpg;happy;9.0;sad_115.1.wmv;sad;7.0;incongruent;120.0;160.0;128.09063432376465;h_s;;;;;0;0;0;0;;;;;;;77.09151779999956;None;78.38298210001085;78.69906630000332;79.87456490000477;79.89140100000077;81.85876430000644;None;7;0;0.5626880000054371;81.85876430000644;None;;;;;;;;3;;;;;76.04983050000737;None;83.42450150000514;None;None;None;[];83.42450150000514;None;"['7', '7', '7']";"[0.5090425999951549, 0.8688116999983322, 1.2208500999840908]";83.42450150000514;None;;;S11986;2023_Jan_26_1802;VideoMask;2021.1.2;59.900899956613806;
3.0;m;033_o_m_s_a.jpg;sad;7.0;sad_94.2ns.avi;sad;7.0;congruent;130.0;160.0;182.29120173647655;s_s;;;;;0;1;1;1;;;;;;;86.41631800000323;None;88.1660458999977;88.48214670000016;89.71609000000171;89.73276660000556;92.3160373000137;None;7;0;0.7855160000035539;92.3160373000137;None;;;;;;;;2;;;;;;;93.86592100001872;None;None;None;[];93.86592100001872;None;"['7', '7', '7']";"[0.5156194999872241, 0.9155795999977272, 1.2754486000048928]";93.86592100001872;None;;;S11986;2023_Jan_26_1802;VideoMask;2021.1.2;59.900899956613806;
8.0;m;008_y_m_h_a.jpg;happy;9.0;happy_26.1ns.avi;happy;9.0;congruent;120.0;150.0;155.9437854594882;h_h;;;;;0;2;2;2;;;;;;;96.87471370000276;None;98.38233059999766;98.69858210001257;99.85747610000544;99.87409100000514;101.83237970000482;None;7;0;0.757192799996119;101.83237970000482;None;;;;;;;;4;;;;;;;103.57390800002031;None;None;None;[];103.57390800002031;None;"['7', '7']";"[0.5113618999894243, 1.3032533999939915]";103.57390800002031;None;;;S11986;2023_Jan_26_1802;VideoMask;2021.1.2;59.900899956613806;
0.0;f;040_y_f_h_a.jpg;happy;9.0;sad_138.1.wmv;sad;7.0;incongruent;120.0;160.0;133.99071306426532;h_s;;;;;0;3;3;3;;;;;;;106.57411459999275;None;107.9070192000072;108.22317070001736;109.39045790000819;109.40702320000855;111.35704450000776;None;7;0;0.9524627999926452;111.35704450000776;None;;;;;;;;3;;;;;;;112.90697219999856;None;None;None;[];112.90697219999856;None;"['7', '7']";"[0.2823885999969207, 0.5945012000156567]";112.90697219999856;None;;;S11986;2023_Jan_26_1802;VideoMask;2021.1.2;59.900899956613806;
8.0;f;028_y_f_s_a.jpg;sad;7.0;sad_64.2ns.avi;sad;7.0;congruent;130.0;160.0;229.88540597086478;s_s;;;;;0;4;4;4;;;;;;;115.91530220001005;None;118.1234497000114;118.44902719999664;119.62329030002002;119.63990939999348;130.58976500001154;None;7;0;0.7435355000197887;130.58976500001154;None;;;;;;;;3;;;;;;;132.1396883999987;None;None;None;[];132.1396883999987;None;"['7', '7']";"[0.46574580000014976, 0.9138079000113066]";132.1396883999987;None;;;S11986;2023_Jan_26_1802;VideoMask;2021.1.2;59.900899956613806;
7.0;m;027_o_m_s_a.jpg;sad;7.0;sad_10.4ns.avi;sad;7.0;congruent;130.0;160.0;185.20129417468752;s_s;;;;;0;5;5;5;;;;;;;135.14799290001974;None;136.92281360001653;137.2389027000172;138.51460570000927;138.53099890000885;141.54776620000484;None;7;0;0.7217784999811556;141.54776620000484;None;;;;;;;;2;;;;;;;143.0976679000014;None;None;None;[];143.0976679000014;None;"['7', '7', '7']";"[0.36365690000820905, 0.7397372999985237, 1.2995971000054851]";143.0976679000014;None;;;S11986;2023_Jan_26_1802;VideoMask;2021.1.2;59.900899956613806;
2.0;f;012_o_f_s_a.jpg;sad;7.0;sad_7.5ns.avi;sad;7.0;congruent;130.0;160.0;220.27842655424388;s_s;;;;;0;6;6;6;;;;;;;146.09801169999992;None;148.14745790002053;148.472454200004;149.69752829999197;149.7141126000206;152.3890411000175;None;8;0;0.8003496000019368;152.3890411000175;None;;;;;;;;4;;;;;;;154.1223838000151;None;None;None;[];154.1223838000151;None;['7'];[2.850928899977589];154.1223838000151;None;;;S11986;2023_Jan_26_1802;VideoMask;2021.1.2;59.900899956613806;
2.0;f;012_o_f_h_a.jpg;happy;9.0;happy_27.1ns.avi;happy;9.0;congruent;120.0;150.0;146.44967055810616;h_h;;;;;0;7;7;7;;;;;;;157.12221639999188;None;158.55557940001017;158.95552089999546;160.08869520001463;160.10528770001838;162.58036379999248;None;8;0;0.44916119999834336;162.58036379999248;None;;;;;;;;5;;;;;;;164.33850090001943;None;None;None;[];164.33850090001943;None;None;;164.33850090001943;None;;;S11986;2023_Jan_26_1802;VideoMask;2021.1.2;59.900899956613806;
8.0;f;028_y_f_h_a.jpg;happy;9.0;sad_119.1.wmv;sad;7.0;incongruent;120.0;160.0;148.71526953572538;h_s;;;;;0;8;8;8;;;;;;;167.37193190000835;None;168.90509780001594;169.22128739999607;170.36337989999447;170.38019560000976;172.4217185000016;None;8;0;0.8556733999866992;172.4217185000016;None;;;;;;;;5;;;;;;;174.01327510000556;None;None;None;[];174.01327510000556;None;None;;174.01327510000556;None;;;S11986;2023_Jan_26_1802;VideoMask;2021.1.2;59.900899956613806;
6.0;m;016_y_m_s_a.jpg;sad;7.0;happy_60.4ns.avi;happy;9.0;incongruent;130.0;150.0;126.02367393611817;s_h;;;;;0;9;9;9;;;;;;;177.0382959000126;None;178.3299066000036;178.6459462000057;179.8297886000073;179.84633500000928;185.57128760000342;None;8;0;0.5062460000044666;185.57128760000342;None;;;;;;;;6;;;;;;;187.1212260000175;None;None;None;[];187.1212260000175;None;['9'];[0.38015310000628233];187.1212260000175;None;;;S11986;2023_Jan_26_1802;VideoMask;2021.1.2;59.900899956613806;
9.0;f;019_m_f_s_a.jpg;sad;7.0;sad_8.4ns.avi;sad;7.0;congruent;130.0;160.0;171.6633093155257;s_s;;;;;0;10;10;10;;;;;;;190.12164890000713;None;191.80446590000065;192.12941019999562;193.3627495999972;193.37933200001135;201.39578930000425;None;7;0;0.8494447999983095;201.39578930000425;None;;;;;;;;4;;;;;;;203.07901899999706;None;None;None;[];203.07901899999706;None;['7'];[0.45427650000783615];203.07901899999706;None;;;S11986;2023_Jan_26_1802;VideoMask;2021.1.2;59.900899956613806;
4.0;m;004_o_m_h_a.jpg;happy;9.0;happy_1.1ns.avi;happy;9.0;congruent;120.0;150.0;203.50057144619865;h_h;;;;;0;11;11;11;;;;;;;206.08781110000564;None;208.08709600000293;208.41222250001738;209.6038835000072;209.62050300001283;224.02005270001246;None;8;0;0.785329999984242;224.02005270001246;None;;;;;;;;3;;;;;;;225.56998060000478;None;None;None;[];225.56998060000478;None;"['7', '7']";"[0.5152734000002965, 1.2673127999878488]";225.56998060000478;None;;;S11986;2023_Jan_26_1802;VideoMask;2021.1.2;59.900899956613806;
7.0;m;027_o_m_h_a.jpg;happy;9.0;happy_20.1ns.avi;happy;9.0;congruent;120.0;150.0;152.91127178874285;h_h;;;;;0;12;12;12;;;;;;;228.57039440001245;None;230.06968529999722;230.38648600000306;231.51982600000338;231.53644660001737;234.54472520001582;None;9;0;0.5804586999875028;234.54472520001582;None;;;;;;;;7;;;;;;;236.09454250001;None;None;None;[];236.09454250001;None;"['9', '9']";"[0.5748123999801464, 1.1586153999960516]";236.09454250001;None;;;S11986;2023_Jan_26_1802;VideoMask;2021.1.2;59.900899956613806;
0.0;f;040_y_f_s_a.jpg;sad;7.0;sad_94.3ns.avi;sad;7.0;congruent;130.0;160.0;155.27414203894395;s_s;;;;;0;13;13;13;;;;;;;239.1032167999947;None;240.61110579999513;240.9362240000046;242.13587110000663;242.1527602999995;244.694276299997;None;8;0;0.8470386000117287;244.694276299997;None;;;;;;;;3;;;;;;;246.244334899995;None;None;None;[];246.244334899995;None;"['7', '7', '7']";"[0.5532294000149705, 1.1051397999981418, 1.5051464000134729]";246.244334899995;None;;;S11986;2023_Jan_26_1802;VideoMask;2021.1.2;59.900899956613806;
0.0;f;030_o_f_s_a.jpg;sad;7.0;sad_68.1ns.avi;sad;7.0;congruent;130.0;160.0;158.9411396037211;s_s;;;;;0;14;14;14;;;;;;;249.2442723000131;None;250.81905009999173;251.1441874000011;252.35428289999254;252.3773738000018;259.70212980001816;None;7;0;0.43142200002330355;259.70212980001816;None;;;;;;;;2;;;;;;;261.2521195000154;None;None;None;[];261.2521195000154;None;"['7', '7', '7']";"[0.6331097999936901, 0.929375199979404, 1.2812450999917928]";261.2521195000154;None;;;S11986;2023_Jan_26_1802;VideoMask;2021.1.2;59.900899956613806;
0.0;f;030_o_f_h_a.jpg;happy;9.0;sad_127.1.wmv;sad;7.0;incongruent;120.0;160.0;180.59976631384873;h_s;;;;;0;15;15;15;;;;;;;264.26067489999696;None;265.9935427000164;266.3186879999994;267.4437395000132;267.4603072000027;269.44351450001705;None;7;0;1.0977362999983598;269.44351450001705;None;;;;;;;;4;;;;;;;271.0266581000178;None;None;None;[];271.0266581000178;None;['7'];[0.690644299989799];271.0266581000178;None;;;S11986;2023_Jan_26_1802;VideoMask;2021.1.2;59.900899956613806;
8.0;m;008_y_m_s_a.jpg;sad;7.0;happy_133.3.wmv;happy;9.0;incongruent;130.0;150.0;152.577966552593;s_h;;;;;0;16;16;16;;;;;;;274.0270867999934;None;275.5265686000057;275.85166220000247;276.9767012000084;276.9934475000191;278.97657560001244;None;9;0;0.39680060002137907;278.97657560001244;None;;;;;;;;5;;;;;;;280.52659330001916;None;None;None;[];280.52659330001916;None;None;;280.52659330001916;None;;;S11986;2023_Jan_26_1802;VideoMask;2021.1.2;59.900899956613806;
3.0;m;033_o_m_h_a.jpg;happy;9.0;sad_128.1.wmv;sad;7.0;incongruent;120.0;160.0;171.0492454518585;h_s;;;;;0;17;17;17;;;;;;;283.55144969999674;None;285.2095643999928;285.5347694999946;286.66778570000315;286.6844682999945;288.65962000002037;None;8;0;0.8977761999994982;288.65962000002037;None;;;;;;;;5;;;;;;;290.21787230001064;None;None;None;[];290.21787230001064;None;None;;290.21787230001064;None;;;S11986;2023_Jan_26_1802;VideoMask;2021.1.2;59.900899956613806;
1.0;f;021_o_f_h_a.jpg;happy;9.0;sad_116.1.wmv;sad;7.0;incongruent;120.0;160.0;184.06847610053055;h_s;;;;;0;18;18;18;;;;;;;293.2511392000015;None;295.00107510000817;295.32607730000746;296.4947104000021;296.5260166999942;298.4509351000015;None;7;0;1.2103855999885127;298.4509351000015;None;;;;;;;;4;;;;;;;300.0008630999946;None;None;None;[];300.0008630999946;None;['7'];[0.6204937000002246];300.0008630999946;None;;;S11986;2023_Jan_26_1802;VideoMask;2021.1.2;59.900899956613806;
4.0;m;004_o_m_s_a.jpg;sad;7.0;happy_28.1ns.avi;happy;9.0;incongruent;130.0;150.0;157.40741103039684;s_h;;;;;0;19;19;19;;;;;;;303.00938470000983;None;304.55907770001795;304.87573880000855;306.10876890001236;306.1256448000204;310.4088913000014;None;9;0;0.3804944999865256;310.4088913000014;None;;;;;;;;8;;;;;;;312.7005640999996;None;None;None;[];312.7005640999996;None;"['9', '9', '9', '9']";"[0.37732729999697767, 0.7606875000055879, 1.112817699991865, 1.464688899985049]";312.7005640999996;None;;;S11986;2023_Jan_26_1802;VideoMask;2021.1.2;59.900899956613806;
8.0;f;028_y_f_s_a.jpg;sad;7.0;happy_122.3.wmv;happy;9.0;incongruent;130.0;150.0;171.8670540936116;s_h;;;;;0;20;20;20;;;;;;;315.70060880001984;None;317.3418432000035;317.6670004000189;318.8016073000035;318.8251641000097;320.79188090001117;None;9;0;0.9336633000057191;320.79188090001117;None;;;;;;;;6;;;;;;;322.3418029000168;None;None;None;[];322.3418029000168;None;['9'];[0.3995580000046175];322.3418029000168;None;;;S11986;2023_Jan_26_1802;VideoMask;2021.1.2;59.900899956613806;
8.0;m;008_y_m_s_a.jpg;sad;7.0;sad_6.5ns.avi;sad;7.0;congruent;130.0;160.0;170.39333839271438;s_s;;;;;0;21;21;21;;;;;;;325.35024800000247;None;326.98335260001477;327.29945099999895;328.51659559999825;328.5331961000047;333.43316360001336;None;7;0;0.6760581000125967;333.43316360001336;None;;;;;;;;5;;;;;;;334.98306779999984;None;None;None;[];334.98306779999984;None;None;;334.98306779999984;None;;;S11986;2023_Jan_26_1802;VideoMask;2021.1.2;59.900899956613806;
8.0;f;028_y_f_h_a.jpg;happy;9.0;happy_23.1ns.avi;happy;9.0;congruent;120.0;150.0;225.70986890587952;h_h;;;;;0;22;22;22;;;;;;;338.0163305000169;None;340.099346700008;340.4245282000047;341.6493813999987;341.6655386000057;346.12431840001955;None;9;0;0.4249707000271883;346.12431840001955;None;;;;;;;;7;;;;;;;347.6826310000033;None;None;None;[];347.6826310000033;None;"['9', '9']";"[0.29056819999823347, 0.6749652000144124]";347.6826310000033;None;;;S11986;2023_Jan_26_1802;VideoMask;2021.1.2;59.900899956613806;
8.0;m;008_y_m_h_a.jpg;happy;9.0;sad_111.1.wmv;sad;7.0;incongruent;120.0;160.0;152.63076835312847;h_s;;;;;0;23;23;23;;;;;;;350.69092389999423;None;352.18245110000134;352.5075669999933;353.65055760001997;353.6741888000106;355.64074780000374;None;7;0;1.1646985999832395;355.64074780000374;None;;;;;;;;5;;;;;;;357.19060180001543;None;None;None;[];357.19060180001543;None;None;;357.19060180001543;None;;;S11986;2023_Jan_26_1802;VideoMask;2021.1.2;59.900899956613806;
0.0;f;040_y_f_s_a.jpg;sad;7.0;sad_67.2ns.avi;sad;7.0;congruent;130.0;160.0;220.9892697323079;s_s;;;;;0;24;24;24;;;;;;;360.22397099999944;None;362.30705080000916;362.62321650001104;363.7988278999983;363.81548889999976;372.99021849999554;None;7;0;0.7509862000006251;372.99021849999554;None;;;;;;;;4;;;;;;;374.5401086000202;None;None;None;[];374.5401086000202;None;['7'];[0.7852079999865964];374.5401086000202;None;;;S11986;2023_Jan_26_1802;VideoMask;2021.1.2;59.900899956613806;
8.0;m;008_y_m_s_a.jpg;sad;7.0;happy_29.1ns.avi;happy;9.0;incongruent;130.0;150.0;120.0316142834122;s_h;;;;;0;25;25;25;;;;;;;377.5402576000197;None;378.76485390000744;379.09002580001834;380.2648018000182;380.28144059999613;382.91478210000787;None;8;0;0.4824877999781165;382.91478210000787;None;;;;;;;;6;;;;;;;384.4647707999975;None;None;None;[];384.4647707999975;None;['9'];[0.27661870000883937];384.4647707999975;None;;;S11986;2023_Jan_26_1802;VideoMask;2021.1.2;59.900899956613806;
6.0;m;016_y_m_s_a.jpg;sad;7.0;sad_8.3ns.avi;sad;7.0;congruent;130.0;160.0;152.85371098242734;s_s;;;;;0;26;26;26;;;;;;;387.4733602000051;None;389.0062995000044;389.3312964999932;390.4833612999937;390.5146895000071;398.2143490000162;None;7;0;0.8550434999924619;398.2143490000162;None;;;;;;;;3;;;;;;;399.7642934000178;None;None;None;[];399.7642934000178;None;"['7', '7']";"[0.31299840001156554, 0.6730531000066549]";399.7642934000178;None;;;S11986;2023_Jan_26_1802;VideoMask;2021.1.2;59.900899956613806;
6.0;m;016_y_m_h_a.jpg;happy;9.0;sad_114.1.wmv;sad;7.0;incongruent;120.0;160.0;136.20550699298644;h_s;;;;;0;27;27;27;;;;;;;402.7728638999979;None;404.1140888000082;404.4391564000107;405.5641497000179;405.5807233999949;407.5640480000002;None;7;0;0.7613151000114158;407.5640480000002;None;;;;;;;;2;;;;;;;409.1140424000041;None;None;None;[];409.1140424000041;None;"['7', '7', '7']";"[0.459235800022725, 0.7551922000129707, 1.0433129000011832]";409.1140424000041;None;;;S11986;2023_Jan_26_1802;VideoMask;2021.1.2;59.900899956613806;
7.0;m;027_o_m_s_a.jpg;sad;7.0;happy_117.3.wmv;happy;9.0;incongruent;130.0;150.0;215.61964028550614;s_h;;;;;0;28;28;28;;;;;;;412.11422859999584;None;414.1303928999987;414.4554788999958;415.5887454000185;415.60548339999514;417.58039489999646;None;8;0;0.5930538999964483;417.58039489999646;None;;;;;;;;4;;;;;;;419.4053582000197;None;None;None;[];419.4053582000197;None;['7'];[0.3598943999968469];419.4053582000197;None;;;S11986;2023_Jan_26_1802;VideoMask;2021.1.2;59.900899956613806;
6.0;m;016_y_m_h_a.jpg;happy;9.0;happy_9.2ns.avi;happy;9.0;congruent;120.0;150.0;130.52042428082717;h_h;;;;;0;29;29;29;;;;;;;422.4056458999985;None;423.85521919999155;424.1712541000161;425.3135797000141;425.33015850000083;431.2382178000116;None;8;0;1.0714686999854166;431.2382178000116;None;;;;;;;;4;;;;;;;432.9799034000025;None;None;None;[];432.9799034000025;None;['7'];[0.4974237999995239];432.9799034000025;None;;;S11986;2023_Jan_26_1802;VideoMask;2021.1.2;59.900899956613806;
0.0;f;040_y_f_s_a.jpg;sad;7.0;happy_127.3.wmv;happy;9.0;incongruent;130.0;150.0;131.7195455720239;s_h;;;;;0;30;30;30;;;;;;;435.9818477999943;None;437.3296861000126;437.65483310000855;438.78810150001664;438.8046549000137;440.84631730002;None;9;0;0.3909683999954723;440.84631730002;None;;;;;;;;6;;;;;;;442.3962882000196;None;None;None;[];442.3962882000196;None;['9'];[0.9049587000044994];442.3962882000196;None;;;S11986;2023_Jan_26_1802;VideoMask;2021.1.2;59.900899956613806;
0.0;f;030_o_f_s_a.jpg;sad;7.0;happy_125.3.wmv;happy;9.0;incongruent;130.0;150.0;220.51454909128134;s_h;;;;;0;31;31;31;;;;;;;445.4049745000084;None;447.45431289999397;447.7710926000145;448.9062277000048;448.93767040001694;450.9042842000199;None;8;0;0.45299140000133775;450.9042842000199;None;;;;;;;;6;;;;;;;452.454270599992;None;None;None;[];452.454270599992;None;"['9', '9']";"[0.34300910000456497, 1.0070071999798529]";452.454270599992;None;;;S11986;2023_Jan_26_1802;VideoMask;2021.1.2;59.900899956613806;
0.0;f;030_o_f_s_a.jpg;sad;7.0;sad_64.3ns.avi;sad;7.0;congruent;130.0;160.0;165.78667874766072;s_s;;;;;0;32;32;32;;;;;;;455.45461410001735;None;457.05412149999756;457.37912779999897;458.57905840000603;458.59567450001487;463.5060736000014;None;7;0;0.9313725999963935;463.5060736000014;None;;;;;;;;3;;;;;;;465.24548740001046;None;None;None;[];465.24548740001046;None;"['7', '7']";"[0.551627799984999, 1.239623900008155]";465.24548740001046;None;;;S11986;2023_Jan_26_1802;VideoMask;2021.1.2;59.900899956613806;
3.0;m;013_y_m_s_a.jpg;sad;7.0;sad_7.7ns.avi;sad;7.0;congruent;130.0;160.0;196.24182255763262;s_s;;;;;0;33;33;33;;;;;;;468.2458899000194;None;470.12021470000036;470.4453202000004;471.57847360000596;471.5951943999971;477.57011160001275;None;7;0;0.7793776999751572;477.57011160001275;None;;;;;;;;5;;;;;;;479.12001650000457;None;None;None;[];479.12001650000457;None;None;;479.12001650000457;None;;;S11986;2023_Jan_26_1802;VideoMask;2021.1.2;59.900899956613806;
3.0;m;013_y_m_h_a.jpg;happy;9.0;happy_9.1ns.avi;happy;9.0;congruent;120.0;150.0;165.1890303600433;h_h;;;;;0;34;34;34;;;;;;;482.1449832000071;None;483.75305440000375;484.0781987000082;485.2295199999935;485.2450335000176;488.4364072000026;None;8;0;0.6648274000035599;488.4364072000026;None;;;;;;;;5;;;;;;;489.9863511000003;None;None;None;[];489.9863511000003;None;None;;489.9863511000003;None;;;S11986;2023_Jan_26_1802;VideoMask;2021.1.2;59.900899956613806;
4.0;m;004_o_m_h_a.jpg;happy;9.0;sad_95.1ns.avi;sad;7.0;incongruent;120.0;160.0;152.68270002069931;h_s;;;;;0;35;35;35;;;;;;;493.011258500017;None;494.5362104999949;494.86120899999514;496.0944403000176;496.11116470000707;504.7859094000014;None;7;0;0.8193231000041123;504.7859094000014;None;;;;;;;;2;;;;;;;506.3357077999972;None;None;None;[];506.3357077999972;None;"['7', '7', '7']";"[0.3813687000074424, 0.7974615000130143, 1.2855492000235245]";506.3357077999972;None;;;S11986;2023_Jan_26_1802;VideoMask;2021.1.2;59.900899956613806;
3.0;m;013_y_m_h_a.jpg;happy;9.0;sad_113.2.wmv;sad;7.0;incongruent;120.0;160.0;217.4973891947951;h_s;;;;;0;36;36;36;;;;;;;509.3444939000183;None;511.39391720001004;511.7189713999978;512.8606809000194;512.877249800018;514.843876400002;None;7;0;1.3855629000172485;514.843876400002;None;;;;;;;;3;;;;;;;516.39386750001;None;None;None;[];516.39386750001;None;"['7', '7']";"[0.7313973999989685, 1.075425599992741]";516.39386750001;None;;;S11986;2023_Jan_26_1802;VideoMask;2021.1.2;59.900899956613806;
4.0;m;004_o_m_h_a.jpg;happy;9.0;happy_25.1ns.avi;happy;9.0;congruent;120.0;150.0;216.63044503818386;h_h;;;;;0;37;37;37;;;;;;;519.3941641999991;None;521.4269779000024;521.7520096999942;522.8769711999921;522.8937255000055;526.5768148000061;None;8;0;0.3563502999895718;526.5768148000061;None;;;;;;;;6;;;;;;;528.1267565000162;None;None;None;[];528.1267565000162;None;['9'];[0.4304212999995798];528.1267565000162;None;;;S11986;2023_Jan_26_1802;VideoMask;2021.1.2;59.900899956613806;
4.0;m;004_o_m_s_a.jpg;sad;7.0;happy_131.2.wmv;happy;9.0;incongruent;130.0;150.0;181.38407540847405;s_h;;;;;0;38;38;38;;;;;;;531.1268637000176;None;532.8514772000199;533.176735200017;534.3098340000142;534.3265993999958;536.3015574000019;None;8;0;0.47185450000688434;536.3015574000019;None;;;;;;;;4;;;;;;;537.8597948999959;None;None;None;[];537.8597948999959;None;['7'];[0.5853922000096645];537.8597948999959;None;;;S11986;2023_Jan_26_1802;VideoMask;2021.1.2;59.900899956613806;
0.0;f;040_y_f_h_a.jpg;happy;9.0;happy_24.3ns.avi;happy;9.0;congruent;120.0;150.0;213.25460698950434;h_h;;;;;0;39;39;39;;;;;;;540.8596905000159;None;542.8512505000108;543.176260200009;544.4095754000009;544.4262388999923;546.2345611000201;None;8;0;0.7786157000227831;546.2345611000201;None;;;;;;;;5;;;;;;;547.7843742000114;None;None;None;[];547.7843742000114;None;None;;547.7843742000114;None;;;S11986;2023_Jan_26_1802;VideoMask;2021.1.2;59.900899956613806;
2.0;f;012_o_f_s_a.jpg;sad;7.0;happy_139.1.wmv;happy;9.0;incongruent;130.0;150.0;162.31500468041804;s_h;;;;;0;40;40;40;;;;;;;550.8181413999991;None;552.3843115000054;552.7093157999916;553.8426066999964;553.8592860999925;555.8509264000168;None;8;0;1.114315600018017;555.8509264000168;None;;;;;;;;5;;;;;;;557.5091437000083;None;None;None;[];557.5091437000083;None;None;;557.5091437000083;None;;;S11986;2023_Jan_26_1802;VideoMask;2021.1.2;59.900899956613806;
0.0;f;030_o_f_h_a.jpg;happy;9.0;happy_24.1ns.avi;happy;9.0;congruent;120.0;150.0;168.36256624020774;h_h;;;;;0;41;41;41;;;;;;;560.5424196000095;None;562.1588428000105;562.4840878999967;563.7087974000024;563.7254768999992;566.9422224000155;None;8;0;0.5753596000140533;566.9422224000155;None;;;;;;;;6;;;;;;;568.5004554000043;None;None;None;[];568.5004554000043;None;['9'];[1.0007735000108369];568.5004554000043;None;;;S11986;2023_Jan_26_1802;VideoMask;2021.1.2;59.900899956613806;
2.0;f;012_o_f_h_a.jpg;happy;9.0;sad_113.1.wmv;sad;7.0;incongruent;120.0;160.0;177.44551734737394;h_s;;;;;0;42;42;42;;;;;;;571.5091898000101;None;573.1918531999981;573.5169514000008;574.6501648999983;574.6753002000041;576.6418474999955;None;8;0;0.4753863000078127;576.6418474999955;None;;;;;;;;4;;;;;;;578.1917892000056;None;None;None;[];578.1917892000056;None;['7'];[1.1413478000031319];578.1917892000056;None;;;S11986;2023_Jan_26_1802;VideoMask;2021.1.2;59.900899956613806;
3.0;m;033_o_m_s_a.jpg;sad;7.0;sad_64.5ns.avi;sad;7.0;congruent;130.0;160.0;130.55717223801247;s_s;;;;;0;43;43;43;;;;;;;581.200444200018;None;582.5500466999947;582.8660709999967;584.0083128999977;584.0249401000037;590.5914028999978;None;7;0;0.5818391999928281;590.5914028999978;None;;;;;;;;1;;;;;;;592.3663608999923;None;None;None;[];592.3663608999923;None;"['7', '7', '7', '7']";"[0.5030549999792129, 0.9508165000006557, 1.3908104999864008, 1.7508247999940068]";592.3663608999923;None;;;S11986;2023_Jan_26_1802;VideoMask;2021.1.2;59.900899956613806;
7.0;m;027_o_m_h_a.jpg;happy;9.0;sad_117.1.wmv;sad;7.0;incongruent;120.0;160.0;181.28665202824095;h_s;;;;;0;44;44;44;;;;;;;595.3745699000137;None;597.1161039000144;597.441249800002;598.5743443999963;598.591108099994;600.5660373000137;None;7;0;0.8391640999761876;600.5660373000137;None;;;;;;;;3;;;;;;;602.2742764000141;None;None;None;[];602.2742764000141;None;"['7', '7']";"[0.3229329999885522, 0.6752171999833081]";602.2742764000141;None;;;S11986;2023_Jan_26_1802;VideoMask;2021.1.2;59.900899956613806;
3.0;m;033_o_m_s_a.jpg;sad;7.0;happy_126.3.wmv;happy;9.0;incongruent;130.0;150.0;198.85252030535366;s_h;;;;;0;45;45;45;;;;;;;605.2745868999918;None;607.157472699997;607.4826581999951;608.6157731999992;608.6325566000014;610.6075548999943;None;8;0;1.3419818000111263;610.6075548999943;None;;;;;;;;5;;;;;;;612.1573526000138;None;None;None;[];612.1573526000138;None;None;;612.1573526000138;None;;;S11986;2023_Jan_26_1802;VideoMask;2021.1.2;59.900899956613806;
3.0;m;033_o_m_h_a.jpg;happy;9.0;sad_136.1.wmv;sad;7.0;incongruent;120.0;160.0;176.97002883463455;h_s;;;;;0;46;46;46;;;;;;;615.1822687000094;None;616.8654763000086;617.190593700012;618.3239063000074;618.3405165000004;620.3154966000002;None;7;0;1.1381801000097767;620.3154966000002;None;;;;;;;;4;;;;;;;621.8654103000008;None;None;None;[];621.8654103000008;None;['7'];[0.45968170001287945];621.8654103000008;None;;;S11986;2023_Jan_26_1802;VideoMask;2021.1.2;59.900899956613806;
9.0;f;019_m_f_h_a.jpg;happy;9.0;happy_10.1ns.avi;happy;9.0;congruent;120.0;150.0;157.2463435658512;h_h;;;;;0;47;47;47;;;;;;;624.865536199999;None;626.4317756000091;626.7570002000139;627.8828322000045;627.8984088000143;635.3316218999971;None;9;0;0.4174723000032827;635.3316218999971;None;;;;;;;;6;;;;;;;636.881541300012;None;None;None;[];636.881541300012;None;['9'];[0.3395629999868106];636.881541300012;None;;;S11986;2023_Jan_26_1802;VideoMask;2021.1.2;59.900899956613806;
2.0;f;012_o_f_h_a.jpg;happy;9.0;happy_2.2ns.avi;happy;9.0;congruent;120.0;150.0;206.34800317295262;h_h;;;;;0;48;48;48;;;;;;;639.8814478999993;None;641.9064106000005;642.2229486000142;643.3813649000076;643.398047900002;655.5643137000152;None;9;0;1.448764000000665;655.5643137000152;None;;;;;;;;5;;;;;;;657.1141871;None;None;None;[];657.1141871;None;None;;657.1141871;None;;;S11986;2023_Jan_26_1802;VideoMask;2021.1.2;59.900899956613806;
3.0;m;033_o_m_h_a.jpg;happy;9.0;happy_24.2ns.avi;happy;9.0;congruent;120.0;150.0;167.9423847659953;h_h;;;;;0;49;49;49;;;;;;;660.1391892000102;None;661.7389868000173;662.0551975000126;663.3389182999963;663.3554890000087;666.9306046999991;None;8;0;0.5945639999990817;666.9306046999991;None;;;;;;;;6;;;;;;;668.4805258999986;None;None;None;[];668.4805258999986;None;['9'];[0.30890000000363216];668.4805258999986;None;;;S11986;2023_Jan_26_1802;VideoMask;2021.1.2;59.900899956613806;
1.0;f;021_o_f_s_a.jpg;sad;7.0;happy_61.2ns.avi;happy;9.0;incongruent;130.0;150.0;210.94664004826666;s_h;;;;;0;50;50;50;;;;;;;671.4908419999992;None;673.6055086000124;673.9214387999964;675.1400161000201;675.163615700003;679.5885292000021;None;9;0;0.6726446000102442;679.5885292000021;None;;;;;;;;7;;;;;;;681.171763499995;None;None;None;[];681.171763499995;None;"['9', '9']";"[0.26550350000616163, 0.6413800000154879]";681.171763499995;None;;;S11986;2023_Jan_26_1802;VideoMask;2021.1.2;59.900899956613806;
4.0;m;004_o_m_s_a.jpg;sad;7.0;sad_2.4ns.avi;sad;7.0;congruent;130.0;160.0;153.02079367163634;s_s;;;;;0;51;51;51;;;;;;;684.1804507000197;None;685.7049005000154;686.021527200006;687.1570776000153;687.1882679999981;695.1213304999983;None;7;0;0.6358957999909762;695.1213304999983;None;;;;;;;;2;;;;;;;696.6712434999936;None;None;None;[];696.6712434999936;None;"['7', '7', '7']";"[0.3422742999973707, 0.7502696000155993, 1.2057466999976896]";696.6712434999936;None;;;S11986;2023_Jan_26_1802;VideoMask;2021.1.2;59.900899956613806;
8.0;m;008_y_m_h_a.jpg;happy;9.0;happy_1.2ns.avi;happy;9.0;congruent;120.0;150.0;210.98946429383824;h_h;;;;;0;52;52;52;;;;;;;699.6797156000102;None;701.7294555999979;702.0461399000196;703.2210817000014;703.2376437000057;715.9706766000018;None;9;0;0.706638000003295;715.9706766000018;None;;;;;;;;5;;;;;;;717.5206036000163;None;None;None;[];717.5206036000163;None;None;;717.5206036000163;None;;;S11986;2023_Jan_26_1802;VideoMask;2021.1.2;59.900899956613806;
2.0;f;012_o_f_s_a.jpg;sad;7.0;happy_52.2ns.avi;happy;9.0;incongruent;130.0;150.0;172.57202848318138;s_h;;;;;0;53;53;53;;;;;;;720.5453189999971;None;722.2120266999991;722.5282451999956;723.6704116000037;723.6869489999954;727.2119884999993;None;9;0;0.5294012000085786;727.2119884999993;None;;;;;;;;6;;;;;;;728.7618872000021;None;None;None;[];728.7618872000021;None;['9'];[0.27553500002250075];728.7618872000021;None;;;S11986;2023_Jan_26_1802;VideoMask;2021.1.2;59.900899956613806;
9.0;f;019_m_f_s_a.jpg;sad;7.0;happy_61.1ns.avi;happy;9.0;incongruent;130.0;150.0;181.3003220572762;s_h;;;;;0;54;54;54;;;;;;;731.7618463000108;None;733.5532915999938;733.8695262999972;735.0616121000203;735.0783771999995;742.4031255000154;None;8;0;0.4981634000141639;742.4031255000154;None;;;;;;;;5;;;;;;;743.9530879000085;None;None;None;[];743.9530879000085;None;None;;743.9530879000085;None;;;S11986;2023_Jan_26_1802;VideoMask;2021.1.2;59.900899956613806;
0.0;f;030_o_f_h_a.jpg;happy;9.0;sad_133.1.wmv;sad;7.0;incongruent;120.0;160.0;198.86251500867985;h_s;;;;;0;55;55;55;;;;;;;746.9862959000166;None;748.852827499999;749.1694888999918;750.2945073000155;750.3111988000164;752.3028545000125;None;7;0;0.8144226000003982;752.3028545000125;None;;;;;;;;5;;;;;;;753.8610770000087;None;None;None;[];753.8610770000087;None;None;;753.8610770000087;None;;;S11986;2023_Jan_26_1802;VideoMask;2021.1.2;59.900899956613806;
0.0;f;040_y_f_h_a.jpg;happy;9.0;sad_128.2.wmv;sad;7.0;incongruent;120.0;160.0;206.10005857915363;h_s;;;;;0;56;56;56;;;;;;;756.8943569000112;None;758.8192187999957;759.1358339000144;760.2690608999983;760.2859683000133;762.2858150000102;None;7;0;0.6075809999892954;762.2858150000102;None;;;;;;;;4;;;;;;;763.8357697000029;None;None;None;[];763.8357697000029;None;['7'];[0.2812817000085488];763.8357697000029;None;;;S11986;2023_Jan_26_1802;VideoMask;2021.1.2;59.900899956613806;
1.0;f;021_o_f_s_a.jpg;sad;7.0;sad_9.5ns.avi;sad;7.0;congruent;130.0;160.0;206.16642757875042;s_s;;;;;0;57;57;57;;;;;;;766.8444284000143;None;768.8021280000103;769.1183955000015;770.2619819999964;770.2854786000098;775.9852975000103;None;7;0;0.4836690000083763;775.9852975000103;None;;;;;;;;3;;;;;;;777.5352722000098;None;None;None;[];777.5352722000098;None;"['7', '7']";"[0.36572410000371747, 0.7897610999934841]";777.5352722000098;None;;;S11986;2023_Jan_26_1802;VideoMask;2021.1.2;59.900899956613806;
1.0;f;021_o_f_h_a.jpg;happy;9.0;happy_12.1ns.avi;happy;9.0;congruent;120.0;150.0;132.59080005900228;h_h;;;;;0;58;58;58;;;;;;;780.5356244000141;None;781.8935119000089;782.2101480000129;783.3615942000179;783.3775582000089;790.9598998000147;None;9;0;0.5333176999993157;790.9598998000147;None;;;;;;;;7;;;;;;;792.5097210000094;None;None;None;[];792.5097210000094;None;"['9', '9', '9']";"[0.33563049999065697, 0.8474257999914698, 1.487514199980069]";792.5097210000094;None;;;S11986;2023_Jan_26_1802;VideoMask;2021.1.2;59.900899956613806;
3.0;m;013_y_m_s_a.jpg;sad;7.0;happy_56.2ns.avi;happy;9.0;incongruent;130.0;150.0;163.39234110935848;s_h;;;;;0;59;59;59;;;;;;;795.518043899996;None;797.101241299999;797.4179069999955;798.5593749000109;798.5761457000044;803.5844050000014;None;9;0;0.7567126000067219;803.5844050000014;None;;;;;;;;6;;;;;;;805.5260793000052;None;None;None;[];805.5260793000052;None;['9'];[0.6710582000087015];805.5260793000052;None;;;S11986;2023_Jan_26_1802;VideoMask;2021.1.2;59.900899956613806;
;;;;;;;;;;;;;;;;;;;;;;;;;;;;;;;;;;;;;;;;;;;;;;;;;;;;;;;;;;;;;;;;;808.534627999994;None;;;;;;
