primePerson;primeGender;prime;primeEmotion;corrAnsPrime;target;targetEmotion;corrAnsTar;Cond;ID_Primer;ID_Target;JitterTime;Condition;example.thisRepN;example.thisTrialN;example.thisN;example.thisIndex;study.thisRepN;study.thisTrialN;study.thisN;study.thisIndex;MR_trigger_time;MR_trigger_number;text_intro.started;text_intro.stopped;text_probe.started;text_probe.stopped;polygon_ISI.started;polygon_ISI.stopped;polygon.started;polygon.stopped;primerImage.started;primerImage.stopped;response.started;response.stopped;key_resp.keys;key_resp.corr;key_resp.rt;key_resp.started;key_resp.stopped;slider_Text.started;slider_Text.stopped;slider_ex.response;slider_ex.rt;slider_ex.history;slider_ex.started;slider_ex.stopped;Rating;slider_resp_response.keys;slider_resp_response.started;slider_resp_response.stopped;text_start.started;text_start.stopped;text_slider.started;text_slider.stopped;slider_stud.response;slider_stud.rt;slider_stud.history;slider_stud.started;slider_stud.stopped;slider_resp_study.keys;slider_resp_study.rt;slider_resp_study.started;slider_resp_study.stopped;text_ende.started;text_ende.stopped;participant;date;expName;psychopyVersion;frameRate;
1111;m;1111_m_m_h_a.jpg;happy;9;example_30.4ns.avi;neutral;7;incongruent;120.0;170.0;189.5874364012288;;0;0;0;0;;;;;22.583860599996115;1;22.678444299999683;24.678558799998427;24.678558799998427;None;26.695008199996664;None;28.9699838000015;29.3033809999979;30.4283351999984;30.44493859999784;34.76160230000096;None;8;0;1.2964681000012206;34.76160230000096;None;36.34473050000088;None;None;None;[];36.34473050000088;None;5;None;36.34473050000088;None;;;;;;;;;;;;;;;;S11930;2022_Dec_14_1800;VideoMask;2021.1.2;120.04528108242658;
1113;f;1113_y_f_s_a.jpg;sad;7;example_30.3ns.avi;neutral;7;incongruent;130.0;170.0;229.02432995836998;;0;1;1;1;;;;;;;;;;;39.344571699999506;None;41.486250000001746;41.811301199995796;42.94464770000195;42.96126540000114;44.93624229999841;None;8;0;1.025716600001033;44.93624229999841;None;46.48614789999556;None;None;None;[];46.48614789999556;None;5;None;46.48614789999556;None;;;;;;;;;;;;;;;;S11930;2022_Dec_14_1800;VideoMask;2021.1.2;120.04528108242658;
9.0;f;019_m_f_h_a.jpg;happy;9.0;sad_115.1.wmv;sad;7.0;incongruent;120.0;160.0;128.09063432376465;h_s;;;;;0;0;0;0;;;;;;;50.536033399999724;None;51.81084340000234;52.13595579999674;53.26908849999745;53.28595430000132;55.27752160000091;None;7;0;1.1004065000015544;55.27752160000091;None;;;;;;;;1;;;;49.51936249999562;None;56.84425080000074;None;None;None;[];56.84425080000074;None;"['7', '7', '7', '7']";"[0.7415886999951908, 1.3255129999961355, 2.1815309999947203, 2.7016663999966113]";56.84425080000074;None;;;S11930;2022_Dec_14_1800;VideoMask;2021.1.2;120.04528108242658;
3.0;m;033_o_m_s_a.jpg;sad;7.0;sad_94.2ns.avi;sad;7.0;congruent;130.0;160.0;182.29120173647655;s_s;;;;;0;1;1;1;;;;;;;59.835758799999894;None;61.58559899999818;61.910578399998485;63.06898139999976;63.0854554999969;65.72715249999601;None;7;0;1.2745366000017384;65.72715249999601;None;;;;;;;;3;;;;;;67.27710900000238;None;None;None;[];67.27710900000238;None;"['7', '7']";"[1.300563400000101, 1.7487104000028921]";67.27710900000238;None;;;S11930;2022_Dec_14_1800;VideoMask;2021.1.2;120.04528108242658;
8.0;m;008_y_m_h_a.jpg;happy;9.0;happy_26.1ns.avi;happy;9.0;congruent;120.0;150.0;155.9437854594882;h_h;;;;;0;2;2;2;;;;;;;70.28579100000206;None;71.785240600002;72.10194849999971;73.23512640000263;73.2519511999999;75.22689530000207;None;9;0;1.0309491000007256;75.22689530000207;None;;;;;;;;6;;;;;;76.77680919999693;None;None;None;[];76.77680919999693;None;['9'];[1.0247834999972838];76.77680919999693;None;;;S11930;2022_Dec_14_1800;VideoMask;2021.1.2;120.04528108242658;
0.0;f;040_y_f_h_a.jpg;happy;9.0;sad_138.1.wmv;sad;7.0;incongruent;120.0;160.0;133.99071306426532;h_s;;;;;0;3;3;3;;;;;;;79.78546739999729;None;81.12659780000104;81.45165679999627;82.57671380000102;82.59336349999649;84.57657800000015;None;7;0;1.201176899994607;84.57657800000015;None;;;;;;;;3;;;;;;86.126522999999;None;None;None;[];86.126522999999;None;"['7', '7']";"[1.0112498000016785, 1.5152288000026601]";86.126522999999;None;;;S11930;2022_Dec_14_1800;VideoMask;2021.1.2;120.04528108242658;
8.0;f;028_y_f_s_a.jpg;sad;7.0;sad_64.2ns.avi;sad;7.0;congruent;130.0;160.0;229.88540597086478;s_s;;;;;0;4;4;4;;;;;;;89.13493580000068;None;91.34299309999915;91.66795280000224;92.8096355000016;92.8263478000008;103.79256650000025;None;7;0;0.9772198000064236;103.79256650000025;None;;;;;;;;3;;;;;;105.34247589999723;None;None;None;[];105.34247589999723;None;"['7', '7']";"[0.7231963999947766, 1.115246900000784]";105.34247589999723;None;;;S11930;2022_Dec_14_1800;VideoMask;2021.1.2;120.04528108242658;
7.0;m;027_o_m_s_a.jpg;sad;7.0;sad_10.4ns.avi;sad;7.0;congruent;130.0;160.0;185.20129417468752;s_s;;;;;0;5;5;5;;;;;;;108.35078249999788;None;110.13405110000167;110.45902509999723;111.62570029999915;111.64366739999969;114.75058580000041;None;7;0;0.5633029999953578;114.75058580000041;None;;;;;;;;1;;;;;;116.30048649999662;None;None;None;[];116.30048649999662;None;"['7', '7', '7', '7', '7']";"[0.45319589999417076, 1.0691167999975733, 1.4615100999944843, 1.749144499997783, 2.0774961999995867]";116.30048649999662;None;;;S11930;2022_Dec_14_1800;VideoMask;2021.1.2;120.04528108242658;
2.0;f;012_o_f_s_a.jpg;sad;7.0;sad_7.5ns.avi;sad;7.0;congruent;130.0;160.0;220.27842655424388;s_s;;;;;0;6;6;6;;;;;;;119.30916720000096;None;121.35861419999856;121.68365489999996;122.8514142999993;122.8753160999986;125.600222699999;None;7;0;0.6494934000002104;125.600222699999;None;;;;;;;;3;;;;;;127.15018630000122;None;None;None;[];127.15018630000122;None;"['7', '7']";"[0.027605600000242703, 0.5715990000026068]";127.15018630000122;None;;;S11930;2022_Dec_14_1800;VideoMask;2021.1.2;120.04528108242658;
2.0;f;012_o_f_h_a.jpg;happy;9.0;happy_27.1ns.avi;happy;9.0;congruent;120.0;150.0;146.44967055810616;h_h;;;;;0;7;7;7;;;;;;;130.15880520000064;None;131.59992899999634;131.91666819999955;133.0829511999982;133.09996919999685;135.54158610000013;None;9;0;0.5079637000017101;135.54158610000013;None;;;;;;;;6;;;;;;137.0914935999972;None;None;None;[];137.0914935999972;None;['9'];[0.4542289999953937];137.0914935999972;None;;;S11930;2022_Dec_14_1800;VideoMask;2021.1.2;120.04528108242658;
8.0;f;028_y_f_h_a.jpg;happy;9.0;sad_119.1.wmv;sad;7.0;incongruent;120.0;160.0;148.71526953572538;h_s;;;;;0;8;8;8;;;;;;;140.10789690000092;None;141.57464420000179;141.8908561999997;143.03300170000148;143.04967159999796;145.09128639999835;None;7;0;0.6704435999999987;145.09128639999835;None;;;;;;;;3;;;;;;146.64117049999913;None;None;None;[];146.64117049999913;None;"['7', '7']";"[0.7205388000002131, 1.7365551999973832]";146.64117049999913;None;;;S11930;2022_Dec_14_1800;VideoMask;2021.1.2;120.04528108242658;
6.0;m;016_y_m_s_a.jpg;sad;7.0;happy_60.4ns.avi;happy;9.0;incongruent;130.0;150.0;126.02367393611817;s_h;;;;;0;9;9;9;;;;;;;149.64967320000142;None;150.94935129999794;151.2823802999992;152.44092439999804;152.45764049999707;158.2074728000007;None;9;0;1.1621750999984215;158.2074728000007;None;;;;;;;;7;;;;;;159.75739579999936;None;None;None;[];159.75739579999936;None;"['9', '9']";"[0.5641904000003706, 1.1564414000022225]";159.75739579999936;None;;;S11930;2022_Dec_14_1800;VideoMask;2021.1.2;120.04528108242658;
9.0;f;019_m_f_s_a.jpg;sad;7.0;sad_8.4ns.avi;sad;7.0;congruent;130.0;160.0;171.6633093155257;s_s;;;;;0;10;10;10;;;;;;;162.76595870000165;None;164.44897299999866;164.77396279999812;165.9655014000018;165.98208280000108;174.04940530000022;None;7;0;0.7842335000023013;174.04940530000022;None;;;;;;;;3;;;;;;175.74855659999594;None;None;None;[];175.74855659999594;None;"['7', '7']";"[0.57304799999838, 1.9812694999927771]";175.74855659999594;None;;;S11930;2022_Dec_14_1800;VideoMask;2021.1.2;120.04528108242658;
4.0;m;004_o_m_h_a.jpg;happy;9.0;happy_1.1ns.avi;happy;9.0;congruent;120.0;150.0;203.50057144619865;h_h;;;;;0;11;11;11;;;;;;;178.7566122999997;None;180.75660120000248;181.07346149999648;182.27327179999702;182.28997649999656;196.6895413999955;None;9;0;1.2961539000025368;196.6895413999955;None;;;;;;;;5;;;;;;198.23945999999705;None;None;None;[];198.23945999999705;None;"['7', '9']";"[1.0981938000040827, 1.7701566000032471]";198.23945999999705;None;;;S11930;2022_Dec_14_1800;VideoMask;2021.1.2;120.04528108242658;
7.0;m;027_o_m_h_a.jpg;happy;9.0;happy_20.1ns.avi;happy;9.0;congruent;120.0;150.0;152.91127178874285;h_h;;;;;0;12;12;12;;;;;;;201.24814239999978;None;202.7559476000024;203.0722195999988;204.24768590000167;204.26433189999807;207.22254460000113;None;9;0;0.6991181999983382;207.22254460000113;None;;;;;;;;7;;;;;;208.7807984999963;None;None;None;[];208.7807984999963;None;"['9', '9']";"[0.3568282999985968, 0.7807363000029]";208.7807984999963;None;;;S11930;2022_Dec_14_1800;VideoMask;2021.1.2;120.04528108242658;
0.0;f;040_y_f_s_a.jpg;sad;7.0;sad_94.3ns.avi;sad;7.0;congruent;130.0;160.0;155.27414203894395;s_s;;;;;0;13;13;13;;;;;;;211.79055069999595;None;213.30555430000095;213.63065490000008;214.78063380000094;214.79716299999563;217.38928399999713;None;None;0;;217.38928399999713;None;;;;;;;;4;;;;;;218.94702990000224;None;None;None;[];218.94702990000224;None;['7'];[0.9346918000010191];218.94702990000224;None;;;S11930;2022_Dec_14_1800;VideoMask;2021.1.2;120.04528108242658;
0.0;f;030_o_f_s_a.jpg;sad;7.0;sad_68.1ns.avi;sad;7.0;congruent;130.0;160.0;158.9411396037211;s_s;;;;;0;14;14;14;;;;;;;221.9558076999965;None;223.51360130000103;223.83862399999634;225.030248199997;225.04695759999595;232.3884281999999;None;7;0;0.5972521000003326;232.3884281999999;None;;;;;;;;3;;;;;;233.9382853999996;None;None;None;[];233.9382853999996;None;"['7', '7']";"[0.5752590999982203, 1.367560599996068]";233.9382853999996;None;;;S11930;2022_Dec_14_1800;VideoMask;2021.1.2;120.04528108242658;
0.0;f;030_o_f_h_a.jpg;happy;9.0;sad_127.1.wmv;sad;7.0;incongruent;120.0;160.0;180.59976631384873;h_s;;;;;0;15;15;15;;;;;;;236.94685410000238;None;238.6630707000004;238.9881630000018;240.1128813999967;240.13811290000012;242.1130376000001;None;7;0;1.400680699996883;242.1130376000001;None;;;;;;;;3;;;;;;243.66296809999767;None;None;None;[];243.66296809999767;None;"['7', '7']";"[0.4746595999968122, 0.8665094999960274]";243.66296809999767;None;;;S11930;2022_Dec_14_1800;VideoMask;2021.1.2;120.04528108242658;
8.0;m;008_y_m_s_a.jpg;sad;7.0;happy_133.3.wmv;happy;9.0;incongruent;130.0;150.0;152.577966552593;s_h;;;;;0;16;16;16;;;;;;;246.67162069999904;None;248.1627279999957;248.48783579999872;249.61285289999796;249.62942459999613;251.61273049999727;None;9;0;0.7968471000058344;251.61273049999727;None;;;;;;;;7;;;;;;253.46249730000272;None;None;None;[];253.46249730000272;None;"['9', '9']";"[0.10701950000657234, 0.8511372000066331]";253.46249730000272;None;;;S11930;2022_Dec_14_1800;VideoMask;2021.1.2;120.04528108242658;
3.0;m;033_o_m_h_a.jpg;happy;9.0;sad_128.1.wmv;sad;7.0;incongruent;120.0;160.0;171.0492454518585;h_s;;;;;0;17;17;17;;;;;;;256.4629933999968;None;258.13758889999735;258.4625362000006;259.59576620000007;259.6124428999974;261.58742509999865;None;7;0;1.1260624999995343;261.58742509999865;None;;;;;;;;4;;;;;;263.137370299999;None;None;None;[];263.137370299999;None;['7'];[0.6563461999976425];263.137370299999;None;;;S11930;2022_Dec_14_1800;VideoMask;2021.1.2;120.04528108242658;
1.0;f;021_o_f_h_a.jpg;happy;9.0;sad_116.1.wmv;sad;7.0;incongruent;120.0;160.0;184.06847610053055;h_s;;;;;0;18;18;18;;;;;;;266.13765609999973;None;267.9037768999988;268.2205361000015;269.3554565000013;269.37880949999817;271.3537615999958;None;7;0;1.0318348000000697;271.3537615999958;None;;;;;;;;4;;;;;;272.95357530000183;None;None;None;[];272.95357530000183;None;['7'];[0.4161292999997386];272.95357530000183;None;;;S11930;2022_Dec_14_1800;VideoMask;2021.1.2;120.04528108242658;
4.0;m;004_o_m_s_a.jpg;sad;7.0;happy_28.1ns.avi;happy;9.0;incongruent;130.0;150.0;157.40741103039684;s_h;;;;;0;19;19;19;;;;;;;275.9537055999972;None;277.49521139999706;277.82019169999694;278.9784232999955;278.99514479999925;283.33664809999755;None;9;0;0.576897300001292;283.33664809999755;None;;;;;;;;7;;;;;;284.88660649999656;None;None;None;[];284.88660649999656;None;"['9', '9']";"[0.35495580000133486, 0.8433652999956394]";284.88660649999656;None;;;S11930;2022_Dec_14_1800;VideoMask;2021.1.2;120.04528108242658;
8.0;f;028_y_f_s_a.jpg;sad;7.0;happy_122.3.wmv;happy;9.0;incongruent;130.0;150.0;171.8670540936116;s_h;;;;;0;20;20;20;;;;;;;287.8866574999993;None;289.55308910000167;289.87811109999893;291.0114067999966;291.0280993999986;293.0030073000016;None;9;0;0.5105901999995694;293.0030073000016;None;;;;;;;;8;;;;;;294.5529499999975;None;None;None;[];294.5529499999975;None;"['9', '9', '9', '9', '9']";"[0.35256479999952717, 0.7206128000034369, 1.0884796999962418, 1.440394600002037, 1.8166376000008313]";294.5529499999975;None;;;S11930;2022_Dec_14_1800;VideoMask;2021.1.2;120.04528108242658;
8.0;m;008_y_m_s_a.jpg;sad;7.0;sad_6.5ns.avi;sad;7.0;congruent;130.0;160.0;170.39333839271438;s_s;;;;;0;21;21;21;;;;;;;297.553164500001;None;299.1861199999985;299.5111553999959;300.6443627999979;300.6610014999969;305.63591769999766;None;7;0;0.397581999997783;305.63591769999766;None;;;;;;;;4;;;;;;307.2109965999989;None;None;None;[];307.2109965999989;None;['7'];[0.4864625000045635];307.2109965999989;None;;;S11930;2022_Dec_14_1800;VideoMask;2021.1.2;120.04528108242658;
8.0;f;028_y_f_h_a.jpg;happy;9.0;happy_23.1ns.avi;happy;9.0;congruent;120.0;150.0;225.70986890587952;h_h;;;;;0;22;22;22;;;;;;;310.21078470000066;None;312.31067469999834;312.62740060000215;313.8105805000014;313.82735230000253;318.3439423000018;None;9;0;0.3935212000069441;318.3439423000018;None;;;;;;;;6;;;;;;319.8938651999997;None;None;None;[];319.8938651999997;None;"['9', '9']";"[0.4356465000018943, 1.0677408999981708]";319.8938651999997;None;;;S11930;2022_Dec_14_1800;VideoMask;2021.1.2;120.04528108242658;
8.0;m;008_y_m_h_a.jpg;happy;9.0;sad_111.1.wmv;sad;7.0;incongruent;120.0;160.0;152.63076835312847;h_s;;;;;0;23;23;23;;;;;;;322.90244679999887;None;324.39364529999875;324.7186815000023;325.8520492000025;325.8686168999993;327.8435415999993;None;7;0;0.7500891999952728;327.8435415999993;None;;;;;;;;3;;;;;;329.393473899996;None;None;None;[];329.393473899996;None;"['7', '7']";"[0.4960713999971631, 0.9040613000033773]";329.393473899996;None;;;S11930;2022_Dec_14_1800;VideoMask;2021.1.2;120.04528108242658;
0.0;f;040_y_f_s_a.jpg;sad;7.0;sad_67.2ns.avi;sad;7.0;congruent;130.0;160.0;220.9892697323079;s_s;;;;;0;24;24;24;;;;;;;332.4021444000027;None;334.48494930000015;334.8100348000007;335.96808359999704;335.98498319999635;345.1597619999957;None;None;0;;345.1597619999957;None;;;;;;;;3;;;;;;346.7095797000002;None;None;None;[];346.7095797000002;None;"['7', '7']";"[0.8759328000014648, 2.4362847000011243]";346.7095797000002;None;;;S11930;2022_Dec_14_1800;VideoMask;2021.1.2;120.04528108242658;
8.0;m;008_y_m_s_a.jpg;sad;7.0;happy_29.1ns.avi;happy;9.0;incongruent;130.0;150.0;120.0316142834122;s_h;;;;;0;25;25;25;;;;;;;349.7270034999965;None;350.9510433999967;351.27599689999624;352.41881609999837;352.44262249999883;355.0926315999968;None;8;0;1.3247054999956163;355.0926315999968;None;;;;;;;;5;;;;;;356.6508799000003;None;None;None;[];356.6508799000003;None;None;;356.6508799000003;None;;;S11930;2022_Dec_14_1800;VideoMask;2021.1.2;120.04528108242658;
6.0;m;016_y_m_s_a.jpg;sad;7.0;sad_8.3ns.avi;sad;7.0;congruent;130.0;160.0;152.85371098242734;s_s;;;;;0;26;26;26;;;;;;;359.67585210000107;None;361.21750439999596;361.54246050000074;362.72573729999567;362.7424816999992;370.42551000000094;None;7;0;0.8400056000027689;370.42551000000094;None;;;;;;;;4;;;;;;371.9754229999962;None;None;None;[];371.9754229999962;None;['7'];[0.4740395999979228];371.9754229999962;None;;;S11930;2022_Dec_14_1800;VideoMask;2021.1.2;120.04528108242658;
6.0;m;016_y_m_h_a.jpg;happy;9.0;sad_114.1.wmv;sad;7.0;incongruent;120.0;160.0;136.20550699298644;h_s;;;;;0;27;27;27;;;;;;;374.97565179999947;None;376.3418453999984;376.6669938999985;377.79196509999747;377.8084890999962;379.7919161999962;None;7;0;0.5379035999940243;379.7919161999962;None;;;;;;;;3;;;;;;381.34176319999824;None;None;None;[];381.34176319999824;None;"['7', '7']";"[0.45172509999974864, 0.795580300000438]";381.34176319999824;None;;;S11930;2022_Dec_14_1800;VideoMask;2021.1.2;120.04528108242658;
7.0;m;027_o_m_s_a.jpg;sad;7.0;happy_117.3.wmv;happy;9.0;incongruent;130.0;150.0;215.61964028550614;s_h;;;;;0;28;28;28;;;;;;;384.3501271999994;None;386.3498735999965;386.67491169999994;387.800029500002;387.8165904999987;389.79982539999764;None;9;0;1.2817782999991323;389.79982539999764;None;;;;;;;;5;;;;;;391.3497664000024;None;None;None;[];391.3497664000024;None;"['9', '7']";"[0.9157077000054414, 2.5319648000004236]";391.3497664000024;None;;;S11930;2022_Dec_14_1800;VideoMask;2021.1.2;120.04528108242658;
6.0;m;016_y_m_h_a.jpg;happy;9.0;happy_9.2ns.avi;happy;9.0;congruent;120.0;150.0;130.52042428082717;h_h;;;;;0;29;29;29;;;;;;;394.3584499999997;None;395.68298499999946;396.00794440000027;397.1496619000027;397.1662856999974;403.0661132000023;None;9;0;0.6075124999988475;403.0661132000023;None;;;;;;;;9;;;;;;404.61607489999733;None;None;None;[];404.61607489999733;None;"['9', '9', '9', '9']";"[0.3213951000070665, 0.6731654000031995, 1.0013523000015994, 1.3132825000066077]";404.61607489999733;None;;;S11930;2022_Dec_14_1800;VideoMask;2021.1.2;120.04528108242658;
0.0;f;040_y_f_s_a.jpg;sad;7.0;happy_127.3.wmv;happy;9.0;incongruent;130.0;150.0;131.7195455720239;s_h;;;;;0;30;30;30;;;;;;;407.61627159999625;None;408.9324443000005;409.25752759999887;410.38247689999844;410.39917559999594;412.4491249999992;None;9;0;0.8484310999992886;412.4491249999992;None;;;;;;;;7;;;;;;413.9990140000009;None;None;None;[];413.9990140000009;None;"['9', '9']";"[0.3223770000040531, 1.306393200000457]";413.9990140000009;None;;;S11930;2022_Dec_14_1800;VideoMask;2021.1.2;120.04528108242658;
0.0;f;030_o_f_s_a.jpg;sad;7.0;happy_125.3.wmv;happy;9.0;incongruent;130.0;150.0;220.51454909128134;s_h;;;;;0;31;31;31;;;;;;;417.0075368999969;None;419.0654632000005;419.3905154000022;420.5249685000017;420.5486882999976;422.5153668999992;None;9;0;0.5502994999988005;422.5153668999992;None;;;;;;;;6;;;;;;424.06538159999764;None;None;None;[];424.06538159999764;None;['9'];[0.3920741000038106];424.06538159999764;None;;;S11930;2022_Dec_14_1800;VideoMask;2021.1.2;120.04528108242658;
0.0;f;030_o_f_s_a.jpg;sad;7.0;sad_64.3ns.avi;sad;7.0;congruent;130.0;160.0;165.78667874766072;s_s;;;;;0;32;32;32;;;;;;;427.06570819999615;None;428.6818007999973;429.00685710000107;430.1402747999964;430.15684899999906;435.13169679999555;None;7;0;0.7016498999946634;435.13169679999555;None;;;;;;;;2;;;;;;436.68162019999727;None;None;None;[];436.68162019999727;None;"['7', '7', '7']";"[0.5598755999963032, 0.8236988999997266, 1.095850599995174]";436.68162019999727;None;;;S11930;2022_Dec_14_1800;VideoMask;2021.1.2;120.04528108242658;
3.0;m;013_y_m_s_a.jpg;sad;7.0;sad_7.7ns.avi;sad;7.0;congruent;130.0;160.0;196.24182255763262;s_s;;;;;0;33;33;33;;;;;;;439.6902160999962;None;441.55646479999996;441.8730007999984;443.05635249999614;443.07299480000074;449.016083399998;None;7;0;0.3854635000025155;449.016083399998;None;;;;;;;;2;;;;;;450.7061685000008;None;None;None;[];450.7061685000008;None;"['7', '7', '7']";"[0.41530559999955585, 0.7111479000013787, 2.087415600006352]";450.7061685000008;None;;;S11930;2022_Dec_14_1800;VideoMask;2021.1.2;120.04528108242658;
3.0;m;013_y_m_h_a.jpg;happy;9.0;happy_9.1ns.avi;happy;9.0;congruent;120.0;150.0;165.1890303600433;h_h;;;;;0;34;34;34;;;;;;;453.7145500999977;None;455.3226047999997;455.6476627000011;456.8476451000024;456.8643763;459.9975695999965;None;9;0;0.41966329999559093;459.9975695999965;None;;;;;;;;7;;;;;;461.5558100999988;None;None;None;[];461.5558100999988;None;"['9', '9', '9', '7']";"[0.02162970000063069, 0.5816417000023648, 0.7335834999976214, 1.165507500001695]";461.5558100999988;None;;;S11930;2022_Dec_14_1800;VideoMask;2021.1.2;120.04528108242658;
4.0;m;004_o_m_h_a.jpg;happy;9.0;sad_95.1ns.avi;sad;7.0;incongruent;120.0;160.0;152.68270002069931;h_s;;;;;0;35;35;35;;;;;;;464.56410579999647;None;466.0890051999959;466.41417509999883;467.5723136000015;467.58898339999723;476.3303487000012;None;8;0;0.5670269000038388;476.3303487000012;None;;;;;;;;2;;;;;;477.88027929999953;None;None;None;[];477.88027929999953;None;"['7', '7', '7']";"[0.4492097999973339, 0.704953000000387, 0.9529968999995617]";477.88027929999953;None;;;S11930;2022_Dec_14_1800;VideoMask;2021.1.2;120.04528108242658;
3.0;m;013_y_m_h_a.jpg;happy;9.0;sad_113.2.wmv;sad;7.0;incongruent;120.0;160.0;217.4973891947951;h_s;;;;;0;36;36;36;;;;;;;480.88883799999894;None;482.9218294999955;483.2467833999981;484.37180129999615;484.3884106999976;486.3716721000019;None;None;0;;486.3716721000019;None;;;;;;;;5;;;;;;487.9216727999956;None;None;None;[];487.9216727999956;None;None;;487.9216727999956;None;;;S11930;2022_Dec_14_1800;VideoMask;2021.1.2;120.04528108242658;
4.0;m;004_o_m_h_a.jpg;happy;9.0;happy_25.1ns.avi;happy;9.0;congruent;120.0;150.0;216.63044503818386;h_h;;;;;0;37;37;37;;;;;;;490.9548788999964;None;492.98816649999935;493.3130986999968;494.46298989999923;494.47979479999776;498.1296091999975;None;9;0;0.41597010000259615;498.1296091999975;None;;;;;;;;6;;;;;;499.6795400999981;None;None;None;[];499.6795400999981;None;['9'];[1.617846000001009];499.6795400999981;None;;;S11930;2022_Dec_14_1800;VideoMask;2021.1.2;120.04528108242658;
4.0;m;004_o_m_s_a.jpg;sad;7.0;happy_131.2.wmv;happy;9.0;incongruent;130.0;150.0;181.38407540847405;s_h;;;;;0;38;38;38;;;;;;;502.679547300002;None;504.3960053999981;504.72107710000273;505.86272409999947;505.87939599999663;507.8459812000001;None;9;0;0.4513449999940349;507.8459812000001;None;;;;;;;;5;;;;;;509.3958855000019;None;None;None;[];509.3958855000019;None;None;;509.3958855000019;None;;;S11930;2022_Dec_14_1800;VideoMask;2021.1.2;120.04528108242658;
0.0;f;040_y_f_h_a.jpg;happy;9.0;happy_24.3ns.avi;happy;9.0;congruent;120.0;150.0;213.25460698950434;h_h;;;;;0;39;39;39;;;;;;;512.4207912999991;None;514.4123451999985;514.7378704000002;515.9217572999987;515.9373039999991;517.7872858999981;None;9;0;0.510113199998159;517.7872858999981;None;;;;;;;;6;;;;;;519.3372369999997;None;None;None;[];519.3372369999997;None;['9'];[1.1041879999975208];519.3372369999997;None;;;S11930;2022_Dec_14_1800;VideoMask;2021.1.2;120.04528108242658;
2.0;f;012_o_f_s_a.jpg;sad;7.0;happy_139.1.wmv;happy;9.0;incongruent;130.0;150.0;162.31500468041804;s_h;;;;;0;40;40;40;;;;;;;522.3372362000009;None;523.9119991999978;524.2371058999997;525.3704480000015;525.3870401000022;527.3619917999968;None;9;0;0.6713180000006105;527.3619917999968;None;;;;;;;;6;;;;;;529.0202382999996;None;None;None;[];529.0202382999996;None;['9'];[0.43745929999568034];529.0202382999996;None;;;S11930;2022_Dec_14_1800;VideoMask;2021.1.2;120.04528108242658;
0.0;f;030_o_f_h_a.jpg;happy;9.0;happy_24.1ns.avi;happy;9.0;congruent;120.0;150.0;168.36256624020774;h_h;;;;;0;41;41;41;;;;;;;532.0289153999984;None;533.6533976999999;533.978443699998;535.1367453999992;535.1532229000004;538.4282954000009;None;9;0;0.6850083000026643;538.4282954000009;None;;;;;;;;6;;;;;;539.9782711000007;None;None;None;[];539.9782711000007;None;['9'];[0.4710747999997693];539.9782711000007;None;;;S11930;2022_Dec_14_1800;VideoMask;2021.1.2;120.04528108242658;
2.0;f;012_o_f_h_a.jpg;happy;9.0;sad_113.1.wmv;sad;7.0;incongruent;120.0;160.0;177.44551734737394;h_s;;;;;0;42;42;42;;;;;;;542.9868136000005;None;544.6779972000004;545.0029734999989;546.1363554999989;546.1530496999985;548.1280809000018;None;None;0;;548.1280809000018;None;;;;;;;;4;;;;;;549.6779181999955;None;None;None;[];549.6779181999955;None;['7'];[0.7394673000017065];549.6779181999955;None;;;S11930;2022_Dec_14_1800;VideoMask;2021.1.2;120.04528108242658;
3.0;m;033_o_m_s_a.jpg;sad;7.0;sad_64.5ns.avi;sad;7.0;congruent;130.0;160.0;130.55717223801247;s_s;;;;;0;43;43;43;;;;;;;552.6782204999981;None;554.0361188999959;554.3611197999999;555.502708699998;555.5194179999962;562.0692049999998;None;7;0;0.6119564999971772;562.0692049999998;None;;;;;;;;2;;;;;;563.6191204999996;None;None;None;[];563.6191204999996;None;"['7', '7', '7']";"[0.4222192000015639, 0.7180727000013576, 1.4302539999989676]";563.6191204999996;None;;;S11930;2022_Dec_14_1800;VideoMask;2021.1.2;120.04528108242658;
7.0;m;027_o_m_h_a.jpg;happy;9.0;sad_117.1.wmv;sad;7.0;incongruent;120.0;160.0;181.28665202824095;h_s;;;;;0;44;44;44;;;;;;;566.6194566999984;None;568.3605253999995;568.6856379000019;569.8186747;569.8355669000011;571.810527900001;None;7;0;0.7106816000014078;571.810527900001;None;;;;;;;;3;;;;;;573.3604513999962;None;None;None;[];573.3604513999962;None;"['7', '7']";"[0.38478099999338156, 1.4569421999985934]";573.3604513999962;None;;;S11930;2022_Dec_14_1800;VideoMask;2021.1.2;120.04528108242658;
3.0;m;033_o_m_s_a.jpg;sad;7.0;happy_126.3.wmv;happy;9.0;incongruent;130.0;150.0;198.85252030535366;s_h;;;;;0;45;45;45;;;;;;;576.3607523999963;None;578.2268694000013;578.5519590999975;579.6851758999983;579.7019682000027;581.6768774000011;None;9;0;0.9002872999990359;581.6768774000011;None;;;;;;;;6;;;;;;583.4933319999982;None;None;None;[];583.4933319999982;None;['9'];[0.6602345000064815];583.4933319999982;None;;;S11930;2022_Dec_14_1800;VideoMask;2021.1.2;120.04528108242658;
3.0;m;033_o_m_h_a.jpg;happy;9.0;sad_136.1.wmv;sad;7.0;incongruent;120.0;160.0;176.97002883463455;h_s;;;;;0;46;46;46;;;;;;;586.5018636999957;None;588.2015576999984;588.5266542999962;589.6516301000011;589.6682785000012;591.661005599999;None;None;0;;591.661005599999;None;;;;;;;;5;;;;;;593.3931601000004;None;None;None;[];593.3931601000004;None;"['9', '7']";"[1.0402042999994592, 1.5684198000017204]";593.3931601000004;None;;;S11930;2022_Dec_14_1800;VideoMask;2021.1.2;120.04528108242658;
9.0;f;019_m_f_h_a.jpg;happy;9.0;happy_10.1ns.avi;happy;9.0;congruent;120.0;150.0;157.2463435658512;h_h;;;;;0;47;47;47;;;;;;;596.3931879000011;None;597.9763453999985;598.2928487999961;599.4513078000018;599.4677690000026;606.8760421999978;None;9;0;0.4372905999989598;606.8760421999978;None;;;;;;;;6;;;;;;608.4259977999973;None;None;None;[];608.4259977999973;None;['9'];[0.6793688999969163];608.4259977999973;None;;;S11930;2022_Dec_14_1800;VideoMask;2021.1.2;120.04528108242658;
2.0;f;012_o_f_h_a.jpg;happy;9.0;happy_2.2ns.avi;happy;9.0;congruent;120.0;150.0;206.34800317295262;h_h;;;;;0;48;48;48;;;;;;;611.4259628;None;613.4174767000004;613.7424696000016;614.9507812000011;614.9674489999961;627.0752978000019;None;9;0;0.4941166999997222;627.0752978000019;None;;;;;;;;6;;;;;;628.6752849999975;None;None;None;[];628.6752849999975;None;['9'];[0.7259974999979022];628.6752849999975;None;;;S11930;2022_Dec_14_1800;VideoMask;2021.1.2;120.04528108242658;
3.0;m;033_o_m_h_a.jpg;happy;9.0;happy_24.2ns.avi;happy;9.0;congruent;120.0;150.0;167.9423847659953;h_h;;;;;0;49;49;49;;;;;;;631.6672966999977;None;633.308423399998;633.6250493999978;634.8249474999975;634.8417647000024;638.4833328999957;None;9;0;0.5421117000005324;638.4833328999957;None;;;;;;;;6;;;;;;640.2249258000011;None;None;None;[];640.2249258000011;None;['9'];[1.0483400999946753];640.2249258000011;None;;;S11930;2022_Dec_14_1800;VideoMask;2021.1.2;120.04528108242658;
1.0;f;021_o_f_s_a.jpg;sad;7.0;happy_61.2ns.avi;happy;9.0;incongruent;130.0;150.0;210.94664004826666;s_h;;;;;0;50;50;50;;;;;;;643.2336751999974;None;645.2164344999983;645.5329738;646.6746283999964;646.6913572999983;651.1912690000026;None;None;0;;651.1912690000026;None;;;;;;;;6;;;;;;652.7412119;None;None;None;[];652.7412119;None;['9'];[0.6999961999972584];652.7412119;None;;;S11930;2022_Dec_14_1800;VideoMask;2021.1.2;120.04528108242658;
4.0;m;004_o_m_s_a.jpg;sad;7.0;sad_2.4ns.avi;sad;7.0;congruent;130.0;160.0;153.02079367163634;s_s;;;;;0;51;51;51;;;;;;;655.7496039999969;None;657.2492549000017;657.5743581999996;658.7349862999981;658.7749564999976;666.6657163999989;None;7;0;0.5035283000033814;666.6657163999989;None;;;;;;;;4;;;;;;668.2156474000003;None;None;None;[];668.2156474000003;None;['7'];[0.38549329999659676];668.2156474000003;None;;;S11930;2022_Dec_14_1800;VideoMask;2021.1.2;120.04528108242658;
8.0;m;008_y_m_h_a.jpg;happy;9.0;happy_1.2ns.avi;happy;9.0;congruent;120.0;150.0;210.98946429383824;h_h;;;;;0;52;52;52;;;;;;;671.215986999996;None;673.2488623000027;673.5651319999961;674.6988392999992;674.7154967999959;687.4900371999975;None;9;0;0.4872038000030443;687.4900371999975;None;;;;;;;;7;;;;;;689.0399657000016;None;None;None;[];689.0399657000016;None;"['9', '9']";"[0.48121070000343025, 0.953203900004155]";689.0399657000016;None;;;S11930;2022_Dec_14_1800;VideoMask;2021.1.2;120.04528108242658;
2.0;f;012_o_f_s_a.jpg;sad;7.0;happy_52.2ns.avi;happy;9.0;incongruent;130.0;150.0;172.57202848318138;s_h;;;;;0;53;53;53;;;;;;;692.0484956;None;693.7064119999995;694.0230737999955;695.173111600001;695.1898147999964;698.7229885999986;None;9;0;1.0782608000008622;698.7229885999986;None;;;;;;;;6;;;;;;700.2728702000022;None;None;None;[];700.2728702000022;None;['9'];[1.4642489999969257];700.2728702000022;None;;;S11930;2022_Dec_14_1800;VideoMask;2021.1.2;120.04528108242658;
9.0;f;019_m_f_s_a.jpg;sad;7.0;happy_61.1ns.avi;happy;9.0;incongruent;130.0;150.0;181.3003220572762;s_h;;;;;0;54;54;54;;;;;;;703.2816164999967;None;705.072768500002;705.3893499999976;706.5311345000009;706.5477374999973;713.9141630000013;None;9;0;1.1590920000016922;713.9141630000013;None;;;;;;;;7;;;;;;715.4640311999974;None;None;None;[];715.4640311999974;None;"['9', '9']";"[0.46525560000009136, 0.8571690999960992]";715.4640311999974;None;;;S11930;2022_Dec_14_1800;VideoMask;2021.1.2;120.04528108242658;
0.0;f;030_o_f_h_a.jpg;happy;9.0;sad_133.1.wmv;sad;7.0;incongruent;120.0;160.0;198.86251500867985;h_s;;;;;0;55;55;55;;;;;;;718.464040400002;None;720.3472416000004;720.672176;721.7972750999979;721.8138321000006;723.7971999000001;None;7;0;0.5479897999975947;723.7971999000001;None;;;;;;;;4;;;;;;725.3471044999969;None;None;None;[];725.3471044999969;None;"['7', '7']";"[0.4780989999999292, 1.1980292000007466]";725.3471044999969;None;;;S11930;2022_Dec_14_1800;VideoMask;2021.1.2;120.04528108242658;
0.0;f;040_y_f_h_a.jpg;happy;9.0;sad_128.2.wmv;sad;7.0;incongruent;120.0;160.0;206.10005857915363;h_s;;;;;0;56;56;56;;;;;;;728.3474235999965;None;730.2885467000015;730.6136210999975;731.7467904000005;731.7718873999984;733.7384961999996;None;7;0;0.7507521000006818;733.7384961999996;None;;;;;;;;4;;;;;;735.2884372999979;None;None;None;[];735.2884372999979;None;['7'];[0.3046546000041417];735.2884372999979;None;;;S11930;2022_Dec_14_1800;VideoMask;2021.1.2;120.04528108242658;
1.0;f;021_o_f_s_a.jpg;sad;7.0;sad_9.5ns.avi;sad;7.0;congruent;130.0;160.0;206.16642757875042;s_s;;;;;0;57;57;57;;;;;;;738.2971289999987;None;740.2382167999967;740.5549299999984;741.7140815999956;741.7294963999957;747.4130609999993;None;7;0;0.6681036000009044;747.4130609999993;None;;;;;;;;4;;;;;;748.962983999998;None;None;None;[];748.962983999998;None;['7'];[0.3181423999994877];748.962983999998;None;;;S11930;2022_Dec_14_1800;VideoMask;2021.1.2;120.04528108242658;
1.0;f;021_o_f_h_a.jpg;happy;9.0;happy_12.1ns.avi;happy;9.0;congruent;120.0;150.0;132.59080005900228;h_h;;;;;0;58;58;58;;;;;;;751.9716303000023;None;753.3295122999989;753.6461784999992;754.7961355000007;754.8127896000005;762.3958698999995;None;8;0;0.7412134000041988;762.3958698999995;None;;;;;;;;5;;;;;;763.9458098999967;None;None;None;[];763.9458098999967;None;"['7', '9']";"[0.9992845999950077, 1.6155358999967575]";763.9458098999967;None;;;S11930;2022_Dec_14_1800;VideoMask;2021.1.2;120.04528108242658;
3.0;m;013_y_m_s_a.jpg;sad;7.0;happy_56.2ns.avi;happy;9.0;incongruent;130.0;150.0;163.39234110935848;s_h;;;;;0;59;59;59;;;;;;;766.9460027000023;None;768.545603300001;768.8706863999978;770.0122754999975;770.0290105999957;775.0204857999997;None;9;0;0.8445699000003515;775.0204857999997;None;;;;;;;;5;;;;;;776.5704523000022;None;None;None;[];776.5704523000022;None;"['9', '7']";"[0.8627389999965089, 1.8228272999986075]";776.5704523000022;None;;;S11930;2022_Dec_14_1800;VideoMask;2021.1.2;120.04528108242658;
;;;;;;;;;;;;;;;;;;;;;;;;;;;;;;;;;;;;;;;;;;;;;;;;;;;;;;;;;;;;;;;;779.5704388000013;None;;;;;;
