primePerson;primeGender;prime;primeEmotion;corrAnsPrime;target;targetEmotion;corrAnsTar;Cond;ID_Primer;ID_Target;JitterTime;Condition;example.thisRepN;example.thisTrialN;example.thisN;example.thisIndex;study.thisRepN;study.thisTrialN;study.thisN;study.thisIndex;MR_trigger_time;MR_trigger_number;text_intro.started;text_intro.stopped;text_probe.started;text_probe.stopped;polygon_ISI.started;polygon_ISI.stopped;polygon.started;polygon.stopped;primerImage.started;primerImage.stopped;response.started;response.stopped;key_resp.keys;key_resp.corr;key_resp.rt;key_resp.started;key_resp.stopped;slider_Text.started;slider_Text.stopped;slider_ex.response;slider_ex.rt;slider_ex.history;slider_ex.started;slider_ex.stopped;Rating;slider_resp_response.keys;slider_resp_response.rt;slider_resp_response.started;slider_resp_response.stopped;text_start.started;text_start.stopped;text_slider.started;text_slider.stopped;slider_stud.response;slider_stud.rt;slider_stud.history;slider_stud.started;slider_stud.stopped;slider_resp_study.keys;slider_resp_study.rt;slider_resp_study.started;slider_resp_study.stopped;text_ende.started;text_ende.stopped;participant;date;expName;psychopyVersion;frameRate;
1111;m;1111_m_m_h_a.jpg;happy;9;example_30.4ns.avi;neutral;7;incongruent;120.0;170.0;189.5874364012288;;0;0;0;0;;;;;53.07068980000622;1;53.14840930000355;55.14843450000626;55.14843450000626;None;57.16555740000331;None;59.10670940000273;59.42323390000092;60.58986590000859;60.60655959999713;64.89810679999937;None;8;0;1.217865400001756;64.89810679999937;None;66.46460079999815;None;None;None;[];66.46460079999815;None;7;"['9', '9', '9']";"[1.2190869000041857, 2.083106400008546, 2.34700760000851]";66.46460079999815;None;;;;;;;;;;;;;;;;S11585;2022_Jul_14_1751;VideoMask;2021.1.2;120.01531395889619;
1113;f;1113_y_f_s_a.jpg;sad;7;example_30.3ns.avi;neutral;7;incongruent;130.0;170.0;229.02432995836998;;0;1;1;1;;;;;;;;;;;69.44797890000336;None;71.57274410000537;71.8894372000068;73.03953799999726;73.05612790001032;75.03103600000031;None;8;0;1.308744800000568;75.03103600000031;None;76.58110250000027;None;None;None;[];76.58110250000027;None;8;"['9', '9', '9']";"[0.8466932000010274, 1.2147406000003684, 1.470596500003012]";76.58110250000027;None;;;;;;;;;;;;;;;;S11585;2022_Jul_14_1751;VideoMask;2021.1.2;120.01531395889619;
9.0;f;019_m_f_h_a.jpg;happy;9.0;sad_115.1.wmv;sad;7.0;incongruent;120.0;160.0;128.09063432376465;h_s;;;;;0;0;0;0;;;;;;;80.62257839999802;None;81.91407080000499;82.23076710000169;83.37231449999672;83.38915040000575;85.3808013000089;None;None;0;;85.3808013000089;None;;;;;;;;3;;;;;79.58943190000718;None;86.93885620000947;None;None;None;[];86.93885620000947;None;"['7', '7']";"[0.43286369999987073, 1.3929414000012912]";86.93885620000947;None;;;S11585;2022_Jul_14_1751;VideoMask;2021.1.2;120.01531395889619;
3.0;m;033_o_m_s_a.jpg;sad;7.0;sad_94.2ns.avi;sad;7.0;congruent;130.0;160.0;182.29120173647655;s_s;;;;;0;1;1;1;;;;;;;89.94748630000686;None;91.680429;91.99722590000601;93.13048659999913;93.14719010000408;95.82218050000665;None;7;0;0.9575840000034077;95.82218050000665;None;;;;;;;;4;;;;;;;97.37204000000202;None;None;None;[];97.37204000000202;None;['7'];[2.0637573999993037];97.37204000000202;None;;;S11585;2022_Jul_14_1751;VideoMask;2021.1.2;120.01531395889619;
8.0;m;008_y_m_h_a.jpg;happy;9.0;happy_26.1ns.avi;happy;9.0;congruent;120.0;150.0;155.9437854594882;h_h;;;;;0;2;2;2;;;;;;;100.37207440000202;None;101.87186470000597;102.1885476000025;103.35526389999723;103.37186680000741;105.3135551000014;None;9;0;0.5623610000038752;105.3135551000014;None;;;;;;;;5;;;;;;;106.86344349999854;None;None;None;[];106.86344349999854;None;None;;106.86344349999854;None;;;S11585;2022_Jul_14_1751;VideoMask;2021.1.2;120.01531395889619;
0.0;f;040_y_f_h_a.jpg;happy;9.0;sad_138.1.wmv;sad;7.0;incongruent;120.0;160.0;133.99071306426532;h_s;;;;;0;3;3;3;;;;;;;109.88824169999862;None;111.22982220000995;111.5465358000074;112.67172470000514;112.68816940000397;114.68878740000946;None;7;0;0.6749564000056125;114.68878740000946;None;;;;;;;;3;;;;;;;116.24645859999873;None;None;None;[];116.24645859999873;None;"['7', '7', '7']";"[0.48524549999274313, 0.7571701999986544, 1.3013167000026442]";116.24645859999873;None;;;S11585;2022_Jul_14_1751;VideoMask;2021.1.2;120.01531395889619;
8.0;f;028_y_f_s_a.jpg;sad;7.0;sad_64.2ns.avi;sad;7.0;congruent;130.0;160.0;229.88540597086478;s_s;;;;;0;4;4;4;;;;;;;119.24652139999671;None;121.46291190000193;121.7796124000015;122.93795750000572;122.95458200000576;133.91260530000727;None;7;0;0.6111797999910777;133.91260530000727;None;;;;;;;;3;;;;;;;135.46244180000213;None;None;None;[];135.46244180000213;None;"['7', '7']";"[0.5973199000000022, 0.901236700010486]";135.46244180000213;None;;;S11585;2022_Jul_14_1751;VideoMask;2021.1.2;120.01531395889619;
7.0;m;027_o_m_s_a.jpg;sad;7.0;sad_10.4ns.avi;sad;7.0;congruent;130.0;160.0;185.20129417468752;s_s;;;;;0;5;5;5;;;;;;;138.47088160000567;None;140.23740630000248;140.5539620000054;141.74606030000723;141.76292380000814;144.85393500000646;None;7;0;0.7898605999944266;144.85393500000646;None;;;;;;;;1;;;;;;;146.40369440001086;None;None;None;[];146.40369440001086;None;"['7', '7', '7', '7']";"[0.39996020001126453, 0.6479017000092426, 0.8641060000081779, 1.1200931000057608]";146.40369440001086;None;;;S11585;2022_Jul_14_1751;VideoMask;2021.1.2;120.01531395889619;
2.0;f;012_o_f_s_a.jpg;sad;7.0;sad_7.5ns.avi;sad;7.0;congruent;130.0;160.0;220.27842655424388;s_s;;;;;0;6;6;6;;;;;;;149.41221400001086;None;151.46192110000993;151.77861470000062;152.92926430000807;152.96180469999672;155.703760400007;None;7;0;0.6680436000024201;155.703760400007;None;;;;;;;;3;;;;;;;157.27017000000342;None;None;None;[];157.27017000000342;None;"['7', '7']";"[0.5576122000056785, 1.1336359000124503]";157.27017000000342;None;;;S11585;2022_Jul_14_1751;VideoMask;2021.1.2;120.01531395889619;
2.0;f;012_o_f_h_a.jpg;happy;9.0;happy_27.1ns.avi;happy;9.0;congruent;120.0;150.0;146.44967055810616;h_h;;;;;0;7;7;7;;;;;;;160.27003780000086;None;161.7116415000055;162.02834010000515;163.2287110000034;163.25329160000547;165.65331960000913;None;9;0;0.8064732999919215;165.65331960000913;None;;;;;;;;6;;;;;;;167.20321240001067;None;None;None;[];167.20321240001067;None;['9'];[0.3926783000060823];167.20321240001067;None;;;S11585;2022_Jul_14_1751;VideoMask;2021.1.2;120.01531395889619;
8.0;f;028_y_f_h_a.jpg;happy;9.0;sad_119.1.wmv;sad;7.0;incongruent;120.0;160.0;148.71526953572538;h_s;;;;;0;8;8;8;;;;;;;170.21150079999643;None;171.6779499999975;171.99465530000452;173.13639050000347;173.15293710000697;175.19457580000744;None;7;0;0.5132827000052202;175.19457580000744;None;;;;;;;;3;;;;;;;176.74455920000037;None;None;None;[];176.74455920000037;None;"['7', '7']";"[1.9872412999975495, 2.6912157999904593]";176.74455920000037;None;;;S11585;2022_Jul_14_1751;VideoMask;2021.1.2;120.01531395889619;
6.0;m;016_y_m_s_a.jpg;sad;7.0;happy_60.4ns.avi;happy;9.0;incongruent;130.0;150.0;126.02367393611817;s_h;;;;;0;9;9;9;;;;;;;179.74452370000654;None;181.03613269999914;181.35266899999988;182.53602590000082;182.55272760000662;188.27754429999914;None;8;0;0.4381713999900967;188.27754429999914;None;;;;;;;;5;;;;;;;189.82750450000458;None;None;None;[];189.82750450000458;None;None;;189.82750450000458;None;;;S11585;2022_Jul_14_1751;VideoMask;2021.1.2;120.01531395889619;
9.0;f;019_m_f_s_a.jpg;sad;7.0;sad_8.4ns.avi;sad;7.0;congruent;130.0;160.0;171.6633093155257;s_s;;;;;0;10;10;10;;;;;;;192.86075059999712;None;194.56042930000694;194.87726330000442;196.02769010000338;196.05220520000148;204.1438460000063;None;7;0;0.49989730000379495;204.1438460000063;None;;;;;;;;4;;;;;;;205.6936565000069;None;None;None;[];205.6936565000069;None;"['7', '7']";"[0.5181803000014042, 1.2541148000018438]";205.6936565000069;None;;;S11585;2022_Jul_14_1751;VideoMask;2021.1.2;120.01531395889619;
4.0;m;004_o_m_h_a.jpg;happy;9.0;happy_1.1ns.avi;happy;9.0;congruent;120.0;150.0;203.50057144619865;h_h;;;;;0;11;11;11;;;;;;;208.69360310000775;None;210.69352539999818;211.01017680000223;212.1685407000041;212.1849099000101;226.62629820000438;None;9;0;0.5134930000058375;226.62629820000438;None;;;;;;;;6;;;;;;;228.16795119999733;None;None;None;[];228.16795119999733;None;"['9', '9', '9']";"[0.4357470000104513, 1.4199627000052715, 2.12378660000104]";228.16795119999733;None;;;S11585;2022_Jul_14_1751;VideoMask;2021.1.2;120.01531395889619;
7.0;m;027_o_m_h_a.jpg;happy;9.0;happy_20.1ns.avi;happy;9.0;congruent;120.0;150.0;152.91127178874285;h_h;;;;;0;12;12;12;;;;;;;231.17623979999917;None;232.67605090000143;232.9927330000064;234.14280870000948;234.1594127999997;237.14276010000322;None;8;0;1.9251461999956518;237.14276010000322;None;;;;;;;;6;;;;;;;239.26759889999812;None;None;None;[];239.26759889999812;None;['9'];[0.6643631999904756];239.26759889999812;None;;;S11585;2022_Jul_14_1751;VideoMask;2021.1.2;120.01531395889619;
0.0;f;040_y_f_s_a.jpg;sad;7.0;sad_94.3ns.avi;sad;7.0;congruent;130.0;160.0;155.27414203894395;s_s;;;;;0;13;13;13;;;;;;;242.27587710000807;None;243.79233860000386;244.10909090000496;245.30055630000425;245.31738370000676;247.86741930000426;None;None;0;;247.86741930000426;None;;;;;;;;4;;;;;;;249.41730050000479;None;None;None;[];249.41730050000479;None;['7'];[1.3145692000107374];249.41730050000479;None;;;S11585;2022_Jul_14_1751;VideoMask;2021.1.2;120.01531395889619;
0.0;f;030_o_f_s_a.jpg;sad;7.0;sad_68.1ns.avi;sad;7.0;congruent;130.0;160.0;158.9411396037211;s_s;;;;;0;14;14;14;;;;;;;252.42561340000248;None;253.98385899999994;254.3003505000088;255.45090830000117;255.47546010000224;262.85852840000007;None;7;0;0.7932939000020269;262.85852840000007;None;;;;;;;;4;;;;;;;264.4001106000069;None;None;None;[];264.4001106000069;None;['7'];[1.131870600002003];264.4001106000069;None;;;S11585;2022_Jul_14_1751;VideoMask;2021.1.2;120.01531395889619;
0.0;f;030_o_f_h_a.jpg;happy;9.0;sad_127.1.wmv;sad;7.0;incongruent;120.0;160.0;180.59976631384873;h_s;;;;;0;15;15;15;;;;;;;267.4001142000052;None;269.1165405000065;269.43330469999637;270.5583287000045;270.57496480000555;272.56668850001006;None;None;0;;272.56668850001006;None;;;;;;;;5;;;;;;;274.11654570000246;None;None;None;[];274.11654570000246;None;None;;274.11654570000246;None;;;S11585;2022_Jul_14_1751;VideoMask;2021.1.2;120.01531395889619;
8.0;m;008_y_m_s_a.jpg;sad;7.0;happy_133.3.wmv;happy;9.0;incongruent;130.0;150.0;152.577966552593;s_h;;;;;0;16;16;16;;;;;;;277.1329078999988;None;278.6412355000066;278.9579432000028;280.0831496000028;280.099521600001;282.0913014000107;None;9;0;0.512477399999625;282.0913014000107;None;;;;;;;;7;;;;;;;283.6412107000069;None;None;None;[];283.6412107000069;None;"['9', '9']";"[0.3866047999908915, 0.8104983999946853]";283.6412107000069;None;;;S11585;2022_Jul_14_1751;VideoMask;2021.1.2;120.01531395889619;
3.0;m;033_o_m_h_a.jpg;happy;9.0;sad_128.1.wmv;sad;7.0;incongruent;120.0;160.0;171.0492454518585;h_s;;;;;0;17;17;17;;;;;;;286.6412182000058;None;288.30762750000576;288.62431680000736;289.75751290000335;289.77416830000584;291.7576029000047;None;7;0;0.9021923000109382;291.7576029000047;None;;;;;;;;3;;;;;;;293.29921060000197;None;None;None;[];293.29921060000197;None;"['7', '7', '7']";"[0.7845940999977756, 1.3847468999883858, 2.6086332999984734]";293.29921060000197;None;;;S11585;2022_Jul_14_1751;VideoMask;2021.1.2;120.01531395889619;
1.0;f;021_o_f_h_a.jpg;happy;9.0;sad_116.1.wmv;sad;7.0;incongruent;120.0;160.0;184.06847610053055;h_s;;;;;0;18;18;18;;;;;;;296.3074976000062;None;298.0572596999991;298.37405600000056;299.5080023000046;299.5324164000049;301.5073384999996;None;7;0;0.4804891999956453;301.5073384999996;None;;;;;;;;4;;;;;;;303.05720180000935;None;None;None;[];303.05720180000935;None;['7'];[0.5628064999909839];303.05720180000935;None;;;S11585;2022_Jul_14_1751;VideoMask;2021.1.2;120.01531395889619;
4.0;m;004_o_m_s_a.jpg;sad;7.0;happy_28.1ns.avi;happy;9.0;incongruent;130.0;150.0;157.40741103039684;s_h;;;;;0;19;19;19;;;;;;;306.05727150000166;None;307.5988103999989;307.9153897000069;309.0568593000062;309.0737816000037;313.4402973999968;None;9;0;0.355404300004011;313.4402973999968;None;;;;;;;;8;;;;;;;315.0152344000089;None;None;None;[];315.0152344000089;None;"['9', '9', '9']";"[0.4046109000046272, 0.7405364000005648, 1.092702800000552]";315.0152344000089;None;;;S11585;2022_Jul_14_1751;VideoMask;2021.1.2;120.01531395889619;
8.0;f;028_y_f_s_a.jpg;sad;7.0;happy_122.3.wmv;happy;9.0;incongruent;130.0;150.0;171.8670540936116;s_h;;;;;0;20;20;20;;;;;;;318.015224200004;None;319.67322160000913;319.9900523000106;321.12373820001085;321.14022139999724;323.12335720000556;None;9;0;0.4483485000091605;323.12335720000556;None;;;;;;;;6;;;;;;;324.69823170000745;None;None;None;[];324.69823170000745;None;"['9', '9']";"[0.37745539999741595, 0.969653299995116]";324.69823170000745;None;;;S11585;2022_Jul_14_1751;VideoMask;2021.1.2;120.01531395889619;
8.0;m;008_y_m_s_a.jpg;sad;7.0;sad_6.5ns.avi;sad;7.0;congruent;130.0;160.0;170.39333839271438;s_s;;;;;0;21;21;21;;;;;;;327.7066502000089;None;329.34787840000354;329.6647626000049;330.85670990000654;330.8732622000098;335.79790070001036;None;7;0;0.3497693000099389;335.79790070001036;None;;;;;;;;3;;;;;;;337.3728264000092;None;None;None;[];337.3728264000092;None;"['7', '7']";"[0.5029047999996692, 0.7907907000044361]";337.3728264000092;None;;;S11585;2022_Jul_14_1751;VideoMask;2021.1.2;120.01531395889619;
8.0;f;028_y_f_h_a.jpg;happy;9.0;happy_23.1ns.avi;happy;9.0;congruent;120.0;150.0;225.70986890587952;h_h;;;;;0;22;22;22;;;;;;;340.3811615000013;None;342.48089289999916;342.7975480000023;343.95627799999784;343.98095920000924;348.5141633000021;None;9;0;0.36958729999605566;348.5141633000021;None;;;;;;;;7;;;;;;;350.06411720000324;None;None;None;[];350.06411720000324;None;"['9', '9']";"[0.4677315000008093, 0.9555629000096815]";350.06411720000324;None;;;S11585;2022_Jul_14_1751;VideoMask;2021.1.2;120.01531395889619;
8.0;m;008_y_m_h_a.jpg;happy;9.0;sad_111.1.wmv;sad;7.0;incongruent;120.0;160.0;152.63076835312847;h_s;;;;;0;23;23;23;;;;;;;353.07253410000703;None;354.5555139000062;354.8721829999995;356.0145496000041;356.04707240000425;358.00554199999897;None;7;0;1.1343461999931606;358.00554199999897;None;;;;;;;;5;;;;;;;359.547155799999;None;None;None;[];359.547155799999;None;"['7', '9']";"[0.8568787999975029, 1.5445144999976037]";359.547155799999;None;;;S11585;2022_Jul_14_1751;VideoMask;2021.1.2;120.01531395889619;
0.0;f;040_y_f_s_a.jpg;sad;7.0;sad_67.2ns.avi;sad;7.0;congruent;130.0;160.0;220.9892697323079;s_s;;;;;0;24;24;24;;;;;;;362.5471721000067;None;364.6469528000016;364.96359250000387;366.09692209999776;366.11362550000194;375.32175860001007;None;7;0;0.5699637000070652;375.32175860001007;None;;;;;;;;2;;;;;;;376.89660860000004;None;None;None;[];376.89660860000004;None;"['7', '7', '7', '7']";"[0.33910589999868535, 0.5870980999898165, 0.8350155999942217, 1.2592287999868859]";376.89660860000004;None;;;S11585;2022_Jul_14_1751;VideoMask;2021.1.2;120.01531395889619;
8.0;m;008_y_m_s_a.jpg;sad;7.0;happy_29.1ns.avi;happy;9.0;incongruent;130.0;150.0;120.0316142834122;s_h;;;;;0;25;25;25;;;;;;;379.89668099999835;None;381.121484400006;381.4381766000006;382.57955390001007;382.5962517000007;385.2631840999966;None;8;0;0.7726611000107368;385.2631840999966;None;;;;;;;;7;;;;;;;386.8129848000099;None;None;None;[];386.8129848000099;None;"['9', '9', '9']";"[0.29474240000126883, 0.8468586999952095, 1.3910863000055542]";386.8129848000099;None;;;S11585;2022_Jul_14_1751;VideoMask;2021.1.2;120.01531395889619;
6.0;m;016_y_m_s_a.jpg;sad;7.0;sad_8.3ns.avi;sad;7.0;congruent;130.0;160.0;152.85371098242734;s_s;;;;;0;26;26;26;;;;;;;389.8212968000007;None;391.35435609999695;391.6711117000086;392.9293497000035;392.94589370000176;400.56267150001077;None;None;0;;400.56267150001077;None;;;;;;;;5;;;;;;;402.1129649000068;None;None;None;[];402.1129649000068;None;None;;402.1129649000068;None;;;S11585;2022_Jul_14_1751;VideoMask;2021.1.2;120.01531395889619;
6.0;m;016_y_m_h_a.jpg;happy;9.0;sad_114.1.wmv;sad;7.0;incongruent;120.0;160.0;136.20550699298644;h_s;;;;;0;27;27;27;;;;;;;405.14576510000916;None;406.4955531000014;406.8123915000033;407.9373992000037;407.95398760000535;409.94559040000604;None;7;0;0.4181286000093678;409.94559040000604;None;;;;;;;;3;;;;;;;411.49554210000497;None;None;None;[];411.49554210000497;None;"['7', '7', '7']";"[0.7802772999857552, 1.6681329999992158, 2.06850849998591]";411.49554210000497;None;;;S11585;2022_Jul_14_1751;VideoMask;2021.1.2;120.01531395889619;
7.0;m;027_o_m_s_a.jpg;sad;7.0;happy_117.3.wmv;happy;9.0;incongruent;130.0;150.0;215.61964028550614;s_h;;;;;0;28;28;28;;;;;;;414.50384119999944;None;416.5035552000045;416.82027870000456;417.9453610000055;417.9619329999987;419.9535556000046;None;None;0;;419.9535556000046;None;;;;;;;;3;;;;;;;421.5033640000038;None;None;None;[];421.5033640000038;None;"['7', '7', '7']";"[1.4284540999942692, 1.7962984000041615, 2.180397499992978]";421.5033640000038;None;;;S11585;2022_Jul_14_1751;VideoMask;2021.1.2;120.01531395889619;
6.0;m;016_y_m_h_a.jpg;happy;9.0;happy_9.2ns.avi;happy;9.0;congruent;120.0;150.0;130.52042428082717;h_h;;;;;0;29;29;29;;;;;;;424.50350679999974;None;425.836690600001;426.1533085999981;427.37039840000216;427.3867848000082;433.21987600000284;None;9;0;0.40003590000560507;433.21987600000284;None;;;;;;;;7;;;;;;;434.8031224000006;None;None;None;[];434.8031224000006;None;"['9', '9']";"[0.8167790000006789, 1.2404813000030117]";434.8031224000006;None;;;S11585;2022_Jul_14_1751;VideoMask;2021.1.2;120.01531395889619;
0.0;f;040_y_f_s_a.jpg;sad;7.0;happy_127.3.wmv;happy;9.0;incongruent;130.0;150.0;131.7195455720239;s_h;;;;;0;30;30;30;;;;;;;437.811458199998;None;439.12785740000254;439.4446505000087;440.5696284000005;440.5869301000057;442.64452830000664;None;None;0;;442.64452830000664;None;;;;;;;;7;;;;;;;444.19435630000953;None;None;None;[];444.19435630000953;None;"['9', '9']";"[1.2174558999977307, 1.6015387999941595]";444.19435630000953;None;;;S11585;2022_Jul_14_1751;VideoMask;2021.1.2;120.01531395889619;
0.0;f;030_o_f_s_a.jpg;sad;7.0;happy_125.3.wmv;happy;9.0;incongruent;130.0;150.0;220.51454909128134;s_h;;;;;0;31;31;31;;;;;;;447.2028163000068;None;449.26920550000796;449.58592340000905;450.7280266000016;450.7529278000002;452.7191859000013;None;None;0;;452.7191859000013;None;;;;;;;;5;;;;;;;454.268994500002;None;None;None;[];454.268994500002;None;None;;454.268994500002;None;;;S11585;2022_Jul_14_1751;VideoMask;2021.1.2;120.01531395889619;
0.0;f;030_o_f_s_a.jpg;sad;7.0;sad_64.3ns.avi;sad;7.0;congruent;130.0;160.0;165.78667874766072;s_s;;;;;0;32;32;32;;;;;;;457.2856596000056;None;458.9022323000099;459.2189886999986;460.41899289999856;460.4355920000089;465.3523400999984;None;None;0;;465.3523400999984;None;;;;;;;;3;;;;;;;466.90208050000365;None;None;None;[];466.90208050000365;None;"['7', '7']";"[0.7976898000051733, 1.1417273999977624]";466.90208050000365;None;;;S11585;2022_Jul_14_1751;VideoMask;2021.1.2;120.01531395889619;
3.0;m;013_y_m_s_a.jpg;sad;7.0;sad_7.7ns.avi;sad;7.0;congruent;130.0;160.0;196.24182255763262;s_s;;;;;0;33;33;33;;;;;;;469.91045049999957;None;471.7684794000088;472.08517970000685;473.2350562000065;473.2519661999977;479.21850030000496;None;8;0;1.1371861000079662;479.21850030000496;None;;;;;;;;4;;;;;;;480.7683520999999;None;None;None;[];480.7683520999999;None;['7'];[1.3954074999928707];480.7683520999999;None;;;S11585;2022_Jul_14_1751;VideoMask;2021.1.2;120.01531395889619;
3.0;m;013_y_m_h_a.jpg;happy;9.0;happy_9.1ns.avi;happy;9.0;congruent;120.0;150.0;165.1890303600433;h_h;;;;;0;34;34;34;;;;;;;483.7684055999998;None;485.38490970000566;485.7014504000108;486.84314409999934;486.85981570000877;490.0596537000092;None;9;0;1.568404699995881;490.0596537000092;None;;;;;;;;6;;;;;;;492.10965020000003;None;None;None;[];492.10965020000003;None;['9'];[1.118387199996505];492.10965020000003;None;;;S11585;2022_Jul_14_1751;VideoMask;2021.1.2;120.01531395889619;
4.0;m;004_o_m_h_a.jpg;happy;9.0;sad_95.1ns.avi;sad;7.0;incongruent;120.0;160.0;152.68270002069931;h_s;;;;;0;35;35;35;;;;;;;495.11796800000593;None;496.6595312999998;496.97613110000384;498.15948390000267;498.1760760000034;506.9010716000048;None;7;0;0.7026241999992635;506.9010716000048;None;;;;;;;;1;;;;;;;508.4591494000051;None;None;None;[];508.4591494000051;None;"['7', '7', '7', '7']";"[0.41665699999430217, 0.6565577000001213, 0.8725014999945415, 1.2885380999941844]";508.4591494000051;None;;;S11585;2022_Jul_14_1751;VideoMask;2021.1.2;120.01531395889619;
3.0;m;013_y_m_h_a.jpg;happy;9.0;sad_113.2.wmv;sad;7.0;incongruent;120.0;160.0;217.4973891947951;h_s;;;;;0;36;36;36;;;;;;;511.4590864000056;None;513.5004241999995;513.817272500004;514.9423821000091;514.958838999999;516.9505334999994;None;8;0;1.1012852000130806;516.9505334999994;None;;;;;;;;5;;;;;;;518.50049820001;None;None;None;[];518.50049820001;None;None;;518.50049820001;None;;;S11585;2022_Jul_14_1751;VideoMask;2021.1.2;120.01531395889619;
4.0;m;004_o_m_h_a.jpg;happy;9.0;happy_25.1ns.avi;happy;9.0;congruent;120.0;150.0;216.63044503818386;h_h;;;;;0;37;37;37;;;;;;;521.5169831000094;None;523.5501502999978;523.8669460000092;525.0001902000076;525.0172614000039;528.6921951999975;None;9;0;0.39946149999741465;528.6921951999975;None;;;;;;;;5;;;;;;;530.2667864000105;None;None;None;[];530.2667864000105;None;None;;530.2667864000105;None;;;S11585;2022_Jul_14_1751;VideoMask;2021.1.2;120.01531395889619;
4.0;m;004_o_m_s_a.jpg;sad;7.0;happy_131.2.wmv;happy;9.0;incongruent;130.0;150.0;181.38407540847405;s_h;;;;;0;38;38;38;;;;;;;533.3000574000034;None;535.0248634000018;535.3415721000056;536.4748521000001;536.491640799999;538.4749828000058;None;9;0;0.46483009999792557;538.4749828000058;None;;;;;;;;6;;;;;;;540.0247398000065;None;None;None;[];540.0247398000065;None;['9'];[1.507003499995335];540.0247398000065;None;;;S11585;2022_Jul_14_1751;VideoMask;2021.1.2;120.01531395889619;
0.0;f;040_y_f_h_a.jpg;happy;9.0;happy_24.3ns.avi;happy;9.0;congruent;120.0;150.0;213.25460698950434;h_h;;;;;0;39;39;39;;;;;;;543.0248120000033;None;545.0162367000012;545.3329264000058;546.5496484000032;546.5663939000078;548.3912440999993;None;9;0;0.4606288999930257;548.3912440999993;None;;;;;;;;5;;;;;;;549.9661722000019;None;None;None;[];549.9661722000019;None;None;;549.9661722000019;None;;;S11585;2022_Jul_14_1751;VideoMask;2021.1.2;120.01531395889619;
2.0;f;012_o_f_s_a.jpg;sad;7.0;happy_139.1.wmv;happy;9.0;incongruent;130.0;150.0;162.31500468041804;s_h;;;;;0;40;40;40;;;;;;;552.9910030000028;None;554.5742230000033;554.890922400009;556.0325518000027;556.0490779999964;558.0242411000072;None;9;0;0.4116764000063995;558.0242411000072;None;;;;;;;;8;;;;;;;559.5992022999999;None;None;None;[];559.5992022999999;None;"['9', '9', '9']";"[0.3565651999961119, 0.6204864000028465, 0.9246235000027809]";559.5992022999999;None;;;S11585;2022_Jul_14_1751;VideoMask;2021.1.2;120.01531395889619;
0.0;f;030_o_f_h_a.jpg;happy;9.0;happy_24.1ns.avi;happy;9.0;congruent;120.0;150.0;168.36256624020774;h_h;;;;;0;41;41;41;;;;;;;562.5991577000095;None;564.2239361000102;564.5406552000059;565.6994127000071;565.7240757000109;568.9989245000033;None;9;0;0.3408336000138661;568.9989245000033;None;;;;;;;;6;;;;;;;570.5738816000085;None;None;None;[];570.5738816000085;None;['9'];[0.4058590000058757];570.5738816000085;None;;;S11585;2022_Jul_14_1751;VideoMask;2021.1.2;120.01531395889619;
2.0;f;012_o_f_h_a.jpg;happy;9.0;sad_113.1.wmv;sad;7.0;incongruent;120.0;160.0;177.44551734737394;h_s;;;;;0;42;42;42;;;;;;;573.5822274000093;None;575.2818692000001;575.6071590000065;576.7400845000084;576.7567922000017;578.7318919000099;None;None;0;;578.7318919000099;None;;;;;;;;5;;;;;;;580.2816819;None;None;None;[];580.2816819;None;None;;580.2816819;None;;;S11585;2022_Jul_14_1751;VideoMask;2021.1.2;120.01531395889619;
3.0;m;033_o_m_s_a.jpg;sad;7.0;sad_64.5ns.avi;sad;7.0;congruent;130.0;160.0;130.55717223801247;s_s;;;;;0;43;43;43;;;;;;;583.3151117000089;None;584.6650912000041;584.9816414000088;586.1150437000033;586.1318773000094;592.7148258000088;None;7;0;0.4568918000004487;592.7148258000088;None;;;;;;;;1;;;;;;;594.289764000001;None;None;None;[];594.289764000001;None;"['7', '7', '7', '7', '7']";"[0.32214920000114944, 0.5778912999958266, 0.8098813999968115, 1.0658204999926966, 1.3378978999971878]";594.289764000001;None;;;S11585;2022_Jul_14_1751;VideoMask;2021.1.2;120.01531395889619;
7.0;m;027_o_m_h_a.jpg;happy;9.0;sad_117.1.wmv;sad;7.0;incongruent;120.0;160.0;181.28665202824095;h_s;;;;;0;44;44;44;;;;;;;597.2898524000047;None;599.0311455000046;599.3479043999978;600.489413000003;600.5062153000035;602.4812201000022;None;7;0;1.1465105999959633;602.4812201000022;None;;;;;;;;2;;;;;;;604.0311686000059;None;None;None;[];604.0311686000059;None;"['7', '7', '7']";"[0.31634479999775067, 0.5725220000022091, 0.8124496000091312]";604.0311686000059;None;;;S11585;2022_Jul_14_1751;VideoMask;2021.1.2;120.01531395889619;
3.0;m;033_o_m_s_a.jpg;sad;7.0;happy_126.3.wmv;happy;9.0;incongruent;130.0;150.0;198.85252030535366;s_h;;;;;0;45;45;45;;;;;;;607.0395195000019;None;608.9142047000059;609.2309036000079;610.3809680999984;610.3976402999979;612.3643269000022;None;8;0;0.7833886999869719;612.3643269000022;None;;;;;;;;5;;;;;;;613.9141666000069;None;None;None;[];613.9141666000069;None;None;;613.9141666000069;None;;;S11585;2022_Jul_14_1751;VideoMask;2021.1.2;120.01531395889619;
3.0;m;033_o_m_h_a.jpg;happy;9.0;sad_136.1.wmv;sad;7.0;incongruent;120.0;160.0;176.97002883463455;h_s;;;;;0;46;46;46;;;;;;;616.9305669000023;None;618.6305932999967;618.9473081000033;620.0723823000008;620.0888937999989;622.0805142000027;None;8;0;1.4755303999991156;622.0805142000027;None;;;;;;;;5;;;;;;;623.63048230001;None;None;None;[];623.63048230001;None;None;;623.63048230001;None;;;S11585;2022_Jul_14_1751;VideoMask;2021.1.2;120.01531395889619;
9.0;f;019_m_f_h_a.jpg;happy;9.0;happy_10.1ns.avi;happy;9.0;congruent;120.0;150.0;157.2463435658512;h_h;;;;;0;47;47;47;;;;;;;626.6552722000051;None;628.2302962999966;628.5468799000082;629.7053807000048;629.7219099000067;637.1384551000083;None;9;0;0.3851347000017995;637.1384551000083;None;;;;;;;;8;;;;;;;638.688373500001;None;None;None;[];638.688373500001;None;"['9', '9', '9']";"[0.06746200000634417, 0.7873239000036847, 2.9154194000002462]";638.688373500001;None;;;S11585;2022_Jul_14_1751;VideoMask;2021.1.2;120.01531395889619;
2.0;f;012_o_f_h_a.jpg;happy;9.0;happy_2.2ns.avi;happy;9.0;congruent;120.0;150.0;206.34800317295262;h_h;;;;;0;48;48;48;;;;;;;641.6882590000023;None;643.6716185999976;643.9967986999982;645.1465842000034;645.1632248000096;657.3213362000097;None;9;0;0.36237820000678767;657.3213362000097;None;;;;;;;;5;;;;;;;658.9044166000094;None;None;None;[];658.9044166000094;None;None;;658.9044166000094;None;;;S11585;2022_Jul_14_1751;VideoMask;2021.1.2;120.01531395889619;
3.0;m;033_o_m_h_a.jpg;happy;9.0;happy_24.2ns.avi;happy;9.0;congruent;120.0;150.0;167.9423847659953;h_h;;;;;0;49;49;49;;;;;;;661.9208648000058;None;663.5542777000082;663.8708318999998;665.0374284999998;665.0545067000057;668.7291739000066;None;9;0;0.44239650000235997;668.7291739000066;None;;;;;;;;5;;;;;;;670.3040168000007;None;None;None;[];670.3040168000007;None;None;;670.3040168000007;None;;;S11585;2022_Jul_14_1751;VideoMask;2021.1.2;120.01531395889619;
1.0;f;021_o_f_s_a.jpg;sad;7.0;happy_61.2ns.avi;happy;9.0;incongruent;130.0;150.0;210.94664004826666;s_h;;;;;0;50;50;50;;;;;;;673.3373443000019;None;675.3370978000021;675.6537652999978;676.8455915000086;676.8621035999968;681.3119114000001;None;9;0;0.9077282999933232;681.3119114000001;None;;;;;;;;8;;;;;;;682.8619725000026;None;None;None;[];682.8619725000026;None;"['9', '9', '9']";"[0.37388499999360647, 0.7419713999988744, 1.0777786999969976]";682.8619725000026;None;;;S11585;2022_Jul_14_1751;VideoMask;2021.1.2;120.01531395889619;
4.0;m;004_o_m_s_a.jpg;sad;7.0;sad_2.4ns.avi;sad;7.0;congruent;130.0;160.0;153.02079367163634;s_s;;;;;0;51;51;51;;;;;;;685.8619261999993;None;687.3784757999965;687.6950029;688.8783948000055;688.8951133000082;696.795134800006;None;7;0;0.8485983999999007;696.795134800006;None;;;;;;;;3;;;;;;;698.3698202000087;None;None;None;[];698.3698202000087;None;"['7', '7']";"[0.37788860000728164, 0.7138999000017066]";698.3698202000087;None;;;S11585;2022_Jul_14_1751;VideoMask;2021.1.2;120.01531395889619;
8.0;m;008_y_m_h_a.jpg;happy;9.0;happy_1.2ns.avi;happy;9.0;congruent;120.0;150.0;210.98946429383824;h_h;;;;;0;52;52;52;;;;;;;701.3697248000099;None;703.4111405000003;703.7278997000103;704.9280188999983;704.9446410000091;717.6525743000093;None;9;0;0.3992736999935005;717.6525743000093;None;;;;;;;;7;;;;;;;719.2025195000024;None;None;None;[];719.2025195000024;None;"['9', '9']";"[0.7054432000004454, 1.049665599988657]";719.2025195000024;None;;;S11585;2022_Jul_14_1751;VideoMask;2021.1.2;120.01531395889619;
2.0;f;012_o_f_s_a.jpg;sad;7.0;happy_52.2ns.avi;happy;9.0;incongruent;130.0;150.0;172.57202848318138;s_h;;;;;0;53;53;53;;;;;;;722.2108539000037;None;723.8688825999998;724.1856722000084;725.3279770000081;725.3522674999986;728.8695196000044;None;9;0;0.40663270000368357;728.8695196000044;None;;;;;;;;5;;;;;;;730.6271594999998;None;None;None;[];730.6271594999998;None;None;;730.6271594999998;None;;;S11585;2022_Jul_14_1751;VideoMask;2021.1.2;120.01531395889619;
9.0;f;019_m_f_s_a.jpg;sad;7.0;happy_61.1ns.avi;happy;9.0;incongruent;130.0;150.0;181.3003220572762;s_h;;;;;0;54;54;54;;;;;;;733.6603603999974;None;735.4520072000014;735.7686403999978;736.9353348000004;736.9519671000016;744.2934652999975;None;8;0;0.29429659999732394;744.2934652999975;None;;;;;;;;5;;;;;;;745.9099728000001;None;None;None;[];745.9099728000001;None;None;;745.9099728000001;None;;;S11585;2022_Jul_14_1751;VideoMask;2021.1.2;120.01531395889619;
0.0;f;030_o_f_h_a.jpg;happy;9.0;sad_133.1.wmv;sad;7.0;incongruent;120.0;160.0;198.86251500867985;h_s;;;;;0;55;55;55;;;;;;;748.926501599999;None;750.8097224000085;751.1264438000071;752.2596992000035;752.2764629000012;754.2597727999964;None;7;0;0.43203000001085456;754.2597727999964;None;;;;;;;;4;;;;;;;755.8096709000092;None;None;None;[];755.8096709000092;None;"['7', '7']";"[0.6100637000054121, 1.1220702999999048]";755.8096709000092;None;;;S11585;2022_Jul_14_1751;VideoMask;2021.1.2;120.01531395889619;
0.0;f;040_y_f_h_a.jpg;happy;9.0;sad_128.2.wmv;sad;7.0;incongruent;120.0;160.0;206.10005857915363;h_s;;;;;0;56;56;56;;;;;;;758.8186102000036;None;760.7427022000047;761.0594570000103;762.1926870000025;762.2095439999975;764.1927670000005;None;7;0;0.4189150000020163;764.1927670000005;None;;;;;;;;4;;;;;;;765.7343974999967;None;None;None;[];765.7343974999967;None;['7'];[0.005361500006983988];765.7343974999967;None;;;S11585;2022_Jul_14_1751;VideoMask;2021.1.2;120.01531395889619;
1.0;f;021_o_f_s_a.jpg;sad;7.0;sad_9.5ns.avi;sad;7.0;congruent;130.0;160.0;206.16642757875042;s_s;;;;;0;57;57;57;;;;;;;768.7344044000056;None;770.6841053000098;771.0008498000097;772.2009066000028;772.2175757000077;777.8590041999996;None;7;0;0.6966910999908578;777.8590041999996;None;;;;;;;;3;;;;;;;779.408963599999;None;None;None;[];779.408963599999;None;"['7', '7', '7']";"[0.2587000000057742, 0.5386722999974154, 0.8108463999960804]";779.408963599999;None;;;S11585;2022_Jul_14_1751;VideoMask;2021.1.2;120.01531395889619;
1.0;f;021_o_f_h_a.jpg;happy;9.0;happy_12.1ns.avi;happy;9.0;congruent;120.0;150.0;132.59080005900228;h_h;;;;;0;58;58;58;;;;;;;782.4090149999975;None;783.7588620000024;784.0754523000069;785.2002693999966;785.2170895000017;792.8253731000004;None;8;0;0.6991703999956371;792.8253731000004;None;;;;;;;;5;;;;;;;794.7251383999974;None;None;None;[];794.7251383999974;None;None;;794.7251383999974;None;;;S11585;2022_Jul_14_1751;VideoMask;2021.1.2;120.01531395889619;
3.0;m;013_y_m_s_a.jpg;sad;7.0;happy_56.2ns.avi;happy;9.0;incongruent;130.0;150.0;163.39234110935848;s_h;;;;;0;59;59;59;;;;;;;797.7501075000037;None;799.333245700007;799.6498399999982;800.8163918000064;800.8333908000059;805.8082415000099;None;9;0;1.019526100004441;805.8082415000099;None;;;;;;;;6;;;;;;;807.3580529000028;None;None;None;[];807.3580529000028;None;"['9', '9']";"[1.3018412999954307, 1.8696306999918306]";807.3580529000028;None;;;S11585;2022_Jul_14_1751;VideoMask;2021.1.2;120.01531395889619;
;;;;;;;;;;;;;;;;;;;;;;;;;;;;;;;;;;;;;;;;;;;;;;;;;;;;;;;;;;;;;;;;;810.3663797000045;None;;;;;;
