primePerson;primeGender;prime;primeEmotion;corrAnsPrime;target;targetEmotion;corrAnsTar;Cond;ID_Primer;ID_Target;JitterTime;Condition;example.thisRepN;example.thisTrialN;example.thisN;example.thisIndex;study.thisRepN;study.thisTrialN;study.thisN;study.thisIndex;MR_trigger_time;MR_trigger_number;text_intro.started;text_intro.stopped;text_probe.started;text_probe.stopped;polygon_ISI.started;polygon_ISI.stopped;polygon.started;polygon.stopped;primerImage.started;primerImage.stopped;response.started;response.stopped;key_resp.keys;key_resp.corr;key_resp.started;key_resp.stopped;slider_Text.started;slider_Text.stopped;slider_ex.response;slider_ex.rt;slider_ex.history;slider_ex.started;slider_ex.stopped;Rating;slider_resp_response.keys;slider_resp_response.started;slider_resp_response.stopped;text_start.started;text_start.stopped;key_resp.rt;text_slider.started;text_slider.stopped;slider_stud.response;slider_stud.rt;slider_stud.history;slider_stud.started;slider_stud.stopped;slider_resp_study.keys;slider_resp_study.rt;slider_resp_study.started;slider_resp_study.stopped;text_ende.started;text_ende.stopped;participant;date;expName;psychopyVersion;frameRate;
1111;m;1111_m_m_h_a.jpg;happy;9;example_30.4ns.avi;neutral;7;incongruent;120.0;170.0;189.5874364012288;;0;0;0;0;;;;;27.74347760004457;1;27.820746900048107;29.821088100085035;29.821088100085035;None;31.837297000107355;None;34.1707224000711;34.487361400038935;35.65389020007569;35.67055640008766;39.9621525000548;None;None;0;39.9621525000548;None;41.51197370002046;None;None;None;[];41.51197370002046;None;5;None;41.51197370002046;None;;;;;;;;;;;;;;;;;S11979;2023_Jan_23_1755;VideoMask;2021.1.2;119.6074959487978;
1113;f;1113_y_f_s_a.jpg;sad;7;example_30.3ns.avi;neutral;7;incongruent;130.0;170.0;229.02432995836998;;0;1;1;1;;;;;;;;;;;44.545377300004475;None;46.65347370004747;46.979006400099024;48.14512000000104;48.16174450004473;50.103521000011824;None;None;0;50.103521000011824;None;51.65342720004264;None;None;None;[];51.65342720004264;None;5;None;51.65342720004264;None;;;;;;;;;;;;;;;;;S11979;2023_Jan_23_1755;VideoMask;2021.1.2;119.6074959487978;
9.0;f;019_m_f_h_a.jpg;happy;9.0;sad_115.1.wmv;sad;7.0;incongruent;120.0;160.0;128.09063432376465;h_s;;;;;0;0;0;0;;;;;;;55.6865598000586;None;56.986553200054914;57.303085800027475;58.436492300010286;58.46149120002519;60.436365500092506;None;7;0;60.436365500092506;None;;;;;;;;3;;;;54.6786578000756;None;1.0008407999994233;61.98638730007224;None;None;None;[];61.98638730007224;None;"['7', '7']";"[0.8749329999554902, 1.9468028999399394]";61.98638730007224;None;;;S11979;2023_Jan_23_1755;VideoMask;2021.1.2;119.6074959487978;
3.0;m;033_o_m_s_a.jpg;sad;7.0;sad_94.2ns.avi;sad;7.0;congruent;130.0;160.0;182.29120173647655;s_s;;;;;0;1;1;1;;;;;;;64.99516490008682;None;66.71120800008066;67.0275324000977;68.16125640005339;68.17788229999132;70.85291120002512;None;None;0;70.85291120002512;None;;;;;;;;3;;;;;;;72.40268050006125;None;None;None;[];72.40268050006125;None;"['7', '7']";"[0.10646279994398355, 0.666606199927628]";72.40268050006125;None;;;S11979;2023_Jan_23_1755;VideoMask;2021.1.2;119.6074959487978;
8.0;m;008_y_m_h_a.jpg;happy;9.0;happy_26.1ns.avi;happy;9.0;congruent;120.0;150.0;155.9437854594882;h_h;;;;;0;2;2;2;;;;;;;75.41098630009219;None;76.90253459999803;77.2188473000424;78.47757390001789;78.49592100002337;80.34411669999827;None;9;0;80.34411669999827;None;;;;;;;;8;;;;;;1.013102800003253;81.8857237000484;None;None;None;[];81.8857237000484;None;"['9', '9', '9', '9']";"[0.4234475999837741, 0.9113930000457913, 1.3194964999565855, 2.0956102999625728]";81.8857237000484;None;;;S11979;2023_Jan_23_1755;VideoMask;2021.1.2;119.6074959487978;
0.0;f;040_y_f_h_a.jpg;happy;9.0;sad_138.1.wmv;sad;7.0;incongruent;120.0;160.0;133.99071306426532;h_s;;;;;0;3;3;3;;;;;;;84.8939723999938;None;86.21899160009343;86.53545480000321;87.66065850004088;87.67723280005157;89.67730219999794;None;None;0;89.67730219999794;None;;;;;;;;4;;;;;;;91.23537610005587;None;None;None;[];91.23537610005587;None;['7'];[0.7458049999549985];91.23537610005587;None;;;S11979;2023_Jan_23_1755;VideoMask;2021.1.2;119.6074959487978;
8.0;f;028_y_f_s_a.jpg;sad;7.0;sad_64.2ns.avi;sad;7.0;congruent;130.0;160.0;229.88540597086478;s_s;;;;;0;4;4;4;;;;;;;94.23544340010267;None;96.39355860010255;96.7100765000796;97.89341400004923;97.9102031000657;108.8431578000309;None;7;0;108.8431578000309;None;;;;;;;;2;;;;;;0.8899541000137106;110.39311649999581;None;None;None;[];110.39311649999581;None;"['7', '7', '7']";"[0.452107600052841, 0.8600096000591293, 2.0683570000110194]";110.39311649999581;None;;;S11979;2023_Jan_23_1755;VideoMask;2021.1.2;119.6074959487978;
7.0;m;027_o_m_s_a.jpg;sad;7.0;sad_10.4ns.avi;sad;7.0;congruent;130.0;160.0;185.20129417468752;s_s;;;;;0;5;5;5;;;;;;;113.39320300007239;None;115.13456440006848;115.45086240000091;116.63457410002593;116.65128590003587;119.75122090009972;None;None;0;119.75122090009972;None;;;;;;;;3;;;;;;;121.30098749999888;None;None;None;[];121.30098749999888;None;"['7', '7']";"[0.5602482999674976, 1.3683323999866843]";121.30098749999888;None;;;S11979;2023_Jan_23_1755;VideoMask;2021.1.2;119.6074959487978;
2.0;f;012_o_f_s_a.jpg;sad;7.0;sad_7.5ns.avi;sad;7.0;congruent;130.0;160.0;220.27842655424388;s_s;;;;;0;6;6;6;;;;;;;124.30971260007937;None;126.34254890005104;126.65876010002103;127.87581740005407;127.89261710003484;130.5848513999954;None;7;0;130.5848513999954;None;;;;;;;;3;;;;;;0.6603094999445602;132.47578830004204;None;None;None;[];132.47578830004204;None;"['7', '7']";"[0.5533624000381678, 0.9937496000202373]";132.47578830004204;None;;;S11979;2023_Jan_23_1755;VideoMask;2021.1.2;119.6074959487978;
2.0;f;012_o_f_h_a.jpg;happy;9.0;happy_27.1ns.avi;happy;9.0;congruent;120.0;150.0;146.44967055810616;h_h;;;;;0;7;7;7;;;;;;;135.4756125001004;None;136.89222780009732;137.20876050007064;138.48495830001775;138.50875070004258;140.83380190003663;None;9;0;140.83380190003663;None;;;;;;;;8;;;;;;0.8754551999736577;142.38371170009486;None;None;None;[];142.38371170009486;None;"['9', '9', '9']";"[0.45340669993311167, 0.8614075999939814, 1.397281999932602]";142.38371170009486;None;;;S11979;2023_Jan_23_1755;VideoMask;2021.1.2;119.6074959487978;
8.0;f;028_y_f_h_a.jpg;happy;9.0;sad_119.1.wmv;sad;7.0;incongruent;120.0;160.0;148.71526953572538;h_s;;;;;0;8;8;8;;;;;;;145.38363920000847;None;146.83348760008812;147.14983420004137;148.31834660004824;148.35031770006754;150.3501752000302;None;7;0;150.3501752000302;None;;;;;;;;3;;;;;;1.0229304999811575;151.90004740003496;None;None;None;[];151.90004740003496;None;"['7', '7', '7']";"[0.5291694999905303, 0.9772284000646323, 1.4412983000511304]";151.90004740003496;None;;;S11979;2023_Jan_23_1755;VideoMask;2021.1.2;119.6074959487978;
6.0;m;016_y_m_s_a.jpg;sad;7.0;happy_60.4ns.avi;happy;9.0;incongruent;130.0;150.0;126.02367393611817;s_h;;;;;0;9;9;9;;;;;;;154.90012450003996;None;156.1581387000624;156.47454590001144;157.61647530004848;157.63316120009404;163.3997236000141;None;8;0;163.3997236000141;None;;;;;;;;6;;;;;;0.5334967999951914;164.94953330000862;None;None;None;[];164.94953330000862;None;['9'];[0.5759497000835836];164.94953330000862;None;;;S11979;2023_Jan_23_1755;VideoMask;2021.1.2;119.6074959487978;
9.0;f;019_m_f_s_a.jpg;sad;7.0;sad_8.4ns.avi;sad;7.0;congruent;130.0;160.0;171.6633093155257;s_s;;;;;0;10;10;10;;;;;;;167.94998660008423;None;169.60771880007815;169.92419040005188;171.06608920008875;171.08273280004505;179.19917150004767;None;7;0;179.19917150004767;None;;;;;;;;3;;;;;;0.7979167000157759;180.74909360008314;None;None;None;[];180.74909360008314;None;"['7', '7']";"[0.4161395999835804, 0.8320080999983475]";180.74909360008314;None;;;S11979;2023_Jan_23_1755;VideoMask;2021.1.2;119.6074959487978;
4.0;m;004_o_m_h_a.jpg;happy;9.0;happy_1.1ns.avi;happy;9.0;congruent;120.0;150.0;203.50057144619865;h_h;;;;;0;11;11;11;;;;;;;183.74951730004977;None;185.74054880009498;186.05710279999766;187.2322863000445;187.24889330007136;201.68176810001023;None;9;0;201.68176810001023;None;;;;;;;;7;;;;;;1.2513487000251189;203.23166849999689;None;None;None;[];203.23166849999689;None;"['9', '9']";"[0.5172113000880927, 0.9894992000190541]";203.23166849999689;None;;;S11979;2023_Jan_23_1755;VideoMask;2021.1.2;119.6074959487978;
7.0;m;027_o_m_h_a.jpg;happy;9.0;happy_20.1ns.avi;happy;9.0;congruent;120.0;150.0;152.91127178874285;h_h;;;;;0;12;12;12;;;;;;;206.24015800002962;None;207.7397754000267;208.0560655000154;209.23154290008824;209.24815690005198;212.215018200106;None;None;0;212.215018200106;None;;;;;;;;6;;;;;;;213.77302090008743;None;None;None;[];213.77302090008743;None;['9'];[0.04787950008176267];213.77302090008743;None;;;S11979;2023_Jan_23_1755;VideoMask;2021.1.2;119.6074959487978;
0.0;f;040_y_f_s_a.jpg;sad;7.0;sad_94.3ns.avi;sad;7.0;congruent;130.0;160.0;155.27414203894395;s_s;;;;;0;13;13;13;;;;;;;216.7733348000329;None;218.26446550001856;218.58078390010633;219.76447360008024;219.7811737000011;222.3397488000337;None;8;0;222.3397488000337;None;;;;;;;;4;;;;;;1.3772240999387577;223.89766670006793;None;None;None;[];223.89766670006793;None;['7'];[1.0754754999652505];223.89766670006793;None;;;S11979;2023_Jan_23_1755;VideoMask;2021.1.2;119.6074959487978;
0.0;f;030_o_f_s_a.jpg;sad;7.0;sad_68.1ns.avi;sad;7.0;congruent;130.0;160.0;158.9411396037211;s_s;;;;;0;14;14;14;;;;;;;226.90613920008764;None;228.45587920001708;228.77215640002396;229.97236240003258;229.98913750005886;237.33052970003337;None;None;0;237.33052970003337;None;;;;;;;;3;;;;;;;238.89717230002861;None;None;None;[];238.89717230002861;None;"['7', '7']";"[14.947281299973838, 0.7718035998987034]";238.89717230002861;None;;;S11979;2023_Jan_23_1755;VideoMask;2021.1.2;119.6074959487978;
0.0;f;030_o_f_h_a.jpg;happy;9.0;sad_127.1.wmv;sad;7.0;incongruent;120.0;160.0;180.59976631384873;h_s;;;;;0;15;15;15;;;;;;;241.88916170003358;None;243.60540080000646;243.92185780010186;245.04704330000095;245.06354180001654;247.05522189999465;None;None;0;247.05522189999465;None;;;;;;;;3;;;;;;;248.60526390001178;None;None;None;[];248.60526390001178;None;"['7', '7', '7']";"[0.07971950003411621, 0.6960124999750406, 1.1676240999950096]";248.60526390001178;None;;;S11979;2023_Jan_23_1755;VideoMask;2021.1.2;119.6074959487978;
8.0;m;008_y_m_s_a.jpg;sad;7.0;happy_133.3.wmv;happy;9.0;incongruent;130.0;150.0;152.577966552593;s_h;;;;;0;16;16;16;;;;;;;251.60524710000027;None;253.10498450009618;253.42159080004785;254.54663730005268;254.56332760001533;256.5550189000787;None;9;0;256.5550189000787;None;;;;;;;;7;;;;;;0.849931100034155;258.1048817000119;None;None;None;[];258.1048817000119;None;"['9', '9']";"[0.49227070005144924, 0.9003064000280574]";258.1048817000119;None;;;S11979;2023_Jan_23_1755;VideoMask;2021.1.2;119.6074959487978;
3.0;m;033_o_m_h_a.jpg;happy;9.0;sad_128.1.wmv;sad;7.0;incongruent;120.0;160.0;171.0492454518585;h_s;;;;;0;17;17;17;;;;;;;261.1135416000616;None;262.75467250007205;263.07130690000486;264.2127955000615;264.2295576001052;266.20459290000144;None;8;0;266.20459290000144;None;;;;;;;;4;;;;;;0.6484042000956833;267.7545000000391;None;None;None;[];267.7545000000391;None;"['7', '7']";"[0.41835799999535084, 1.2184908000053838]";267.7545000000391;None;;;S11979;2023_Jan_23_1755;VideoMask;2021.1.2;119.6074959487978;
1.0;f;021_o_f_h_a.jpg;happy;9.0;sad_116.1.wmv;sad;7.0;incongruent;120.0;160.0;184.06847610053055;h_s;;;;;0;18;18;18;;;;;;;270.7627707000356;None;272.5209530000575;272.84602670010645;273.9960011000512;274.0125705000246;275.970945600071;None;7;0;275.970945600071;None;;;;;;;;3;;;;;;0.7060319000156596;277.5208515000995;None;None;None;[];277.5208515000995;None;"['7', '7']";"[0.4680578999686986, 1.1003510999726132]";277.5208515000995;None;;;S11979;2023_Jan_23_1755;VideoMask;2021.1.2;119.6074959487978;
4.0;m;004_o_m_s_a.jpg;sad;7.0;happy_28.1ns.avi;happy;9.0;incongruent;130.0;150.0;157.40741103039684;s_h;;;;;0;19;19;19;;;;;;;280.5211550000822;None;282.03733880002983;282.35368630010635;283.5706952000037;283.5873672000598;287.87885520001873;None;9;0;287.87885520001873;None;;;;;;;;8;;;;;;0.9740989999845624;289.4288163000019;None;None;None;[];289.4288163000019;None;"['9', '9', '9']";"[0.42401230009272695, 0.8720160000957549, 1.3201425999868661]";289.4288163000019;None;;;S11979;2023_Jan_23_1755;VideoMask;2021.1.2;119.6074959487978;
8.0;f;028_y_f_s_a.jpg;sad;7.0;happy_122.3.wmv;happy;9.0;incongruent;130.0;150.0;171.8670540936116;s_h;;;;;0;20;20;20;;;;;;;292.42875720001757;None;294.0869762999937;294.4032614000607;295.5472890000092;295.587027200032;297.53694000001997;None;9;0;297.53694000001997;None;;;;;;;;8;;;;;;0.7239770999876782;299.08683050004765;None;None;None;[];299.08683050004765;None;"['9', '9', '9', '9']";"[0.43007400003261864, 0.8699682999867946, 1.6860571999568492, 2.1741832999978215]";299.08683050004765;None;;;S11979;2023_Jan_23_1755;VideoMask;2021.1.2;119.6074959487978;
8.0;m;008_y_m_s_a.jpg;sad;7.0;sad_6.5ns.avi;sad;7.0;congruent;130.0;160.0;170.39333839271438;s_s;;;;;0;21;21;21;;;;;;;302.095189100015;None;303.72831270005554;304.04500939999707;305.20322680007666;305.21998510009144;310.1781184000429;None;7;0;310.1781184000429;None;;;;;;;;4;;;;;;0.7388518999796361;311.7280554000754;None;None;None;[];311.7280554000754;None;"['7', '7']";"[0.4608561999630183, 1.7249650999438018]";311.7280554000754;None;;;S11979;2023_Jan_23_1755;VideoMask;2021.1.2;119.6074959487978;
8.0;f;028_y_f_h_a.jpg;happy;9.0;happy_23.1ns.avi;happy;9.0;congruent;120.0;150.0;225.70986890587952;h_h;;;;;0;22;22;22;;;;;;;314.7368075000122;None;316.8194766000379;317.13588350010104;318.28724480001256;318.3111039000796;322.8614382999949;None;9;0;322.8614382999949;None;;;;;;;;7;;;;;;1.4554757999721915;324.4193120000418;None;None;None;[];324.4193120000418;None;"['9', '9', '9']";"[0.5377211000304669, 0.9775317000458017, 1.8577461000531912]";324.4193120000418;None;;;S11979;2023_Jan_23_1755;VideoMask;2021.1.2;119.6074959487978;
8.0;m;008_y_m_h_a.jpg;happy;9.0;sad_111.1.wmv;sad;7.0;incongruent;120.0;160.0;152.63076835312847;h_s;;;;;0;23;23;23;;;;;;;327.4277310000034;None;328.9024001000216;329.22749330010265;330.3620055000065;330.3857895000838;332.3524025999941;None;8;0;332.3524025999941;None;;;;;;;;4;;;;;;1.4523677999386564;333.9023137000622;None;None;None;[];333.9023137000622;None;['7'];[1.1425697000231594];333.9023137000622;None;;;S11979;2023_Jan_23_1755;VideoMask;2021.1.2;119.6074959487978;
0.0;f;040_y_f_s_a.jpg;sad;7.0;sad_67.2ns.avi;sad;7.0;congruent;130.0;160.0;220.9892697323079;s_s;;;;;0;24;24;24;;;;;;;336.90259509999305;None;338.96038580010645;339.28554630000144;340.51051070005633;340.52709470002446;349.64503470005;None;7;0;349.64503470005;None;;;;;;;;3;;;;;;0.8398223000112921;351.2100615000818;None;None;None;[];351.2100615000818;None;"['7', '7']";"[0.5946654999861494, 1.2592535999137908]";351.2100615000818;None;;;S11979;2023_Jan_23_1755;VideoMask;2021.1.2;119.6074959487978;
8.0;m;008_y_m_s_a.jpg;sad;7.0;happy_29.1ns.avi;happy;9.0;incongruent;130.0;150.0;120.0316142834122;s_h;;;;;0;25;25;25;;;;;;;354.2271735999966;None;355.43488800001796;355.76000070001464;356.89306730008684;356.90978750004433;359.57650840003043;None;9;0;359.57650840003043;None;;;;;;;;6;;;;;;1.284352199989371;361.1347364000976;None;None;None;[];361.1347364000976;None;['9'];[0.4860826999647543];361.1347364000976;None;;;S11979;2023_Jan_23_1755;VideoMask;2021.1.2;119.6074959487978;
6.0;m;016_y_m_s_a.jpg;sad;7.0;sad_8.3ns.avi;sad;7.0;congruent;130.0;160.0;152.85371098242734;s_s;;;;;0;26;26;26;;;;;;;364.14300290006213;None;365.62626220006496;365.9428924000822;367.10112020000815;367.1178910000017;374.83431540010497;None;7;0;374.83431540010497;None;;;;;;;;3;;;;;;1.3707845999160782;376.38421930000186;None;None;None;[];376.38421930000186;None;"['7', '7']";"[0.5326315000420436, 0.9886436000233516]";376.38421930000186;None;;;S11979;2023_Jan_23_1755;VideoMask;2021.1.2;119.6074959487978;
6.0;m;016_y_m_h_a.jpg;happy;9.0;sad_114.1.wmv;sad;7.0;incongruent;120.0;160.0;136.20550699298644;h_s;;;;;0;27;27;27;;;;;;;379.3928398001008;None;380.74235170008615;381.05904540000483;382.1841043001041;382.20073760009836;384.20075920003;None;7;0;384.20075920003;None;;;;;;;;3;;;;;;1.2040022000437602;385.7589119001059;None;None;None;[];385.7589119001059;None;"['7', '7']";"[0.4699346999404952, 0.9099463999737054]";385.7589119001059;None;;;S11979;2023_Jan_23_1755;VideoMask;2021.1.2;119.6074959487978;
7.0;m;027_o_m_s_a.jpg;sad;7.0;happy_117.3.wmv;happy;9.0;incongruent;130.0;150.0;215.61964028550614;s_h;;;;;0;28;28;28;;;;;;;388.7592828000197;None;390.7753378000343;391.10063070000615;392.242094400106;392.25870580004994;394.22532000008505;None;9;0;394.22532000008505;None;;;;;;;;7;;;;;;1.0274325999198481;395.78360349999275;None;None;None;[];395.78360349999275;None;"['9', '9', '9']";"[0.4533077001105994, 0.9332533000269905, 2.029077000101097]";395.78360349999275;None;;;S11979;2023_Jan_23_1755;VideoMask;2021.1.2;119.6074959487978;
6.0;m;016_y_m_h_a.jpg;happy;9.0;happy_9.2ns.avi;happy;9.0;congruent;120.0;150.0;130.52042428082717;h_h;;;;;0;29;29;29;;;;;;;398.7922819000669;None;400.11678720009513;400.441796900006;401.56673600000795;401.58340060000774;407.4998779000016;None;8;0;407.4998779000016;None;;;;;;;;6;;;;;;0.6087487998884171;409.06639940000605;None;None;None;[];409.06639940000605;None;['9'];[0.4344811000628397];409.06639940000605;None;;;S11979;2023_Jan_23_1755;VideoMask;2021.1.2;119.6074959487978;
0.0;f;040_y_f_s_a.jpg;sad;7.0;happy_127.3.wmv;happy;9.0;incongruent;130.0;150.0;131.7195455720239;s_h;;;;;0;30;30;30;;;;;;;412.07487240002956;None;413.39125410001725;413.70760700001847;414.84137170005124;414.8579290000489;416.9163504000753;None;8;0;416.9163504000753;None;;;;;;;;6;;;;;;0.61629269993864;419.10767140006647;None;None;None;[];419.10767140006647;None;['9'];[0.5051133999368176];419.10767140006647;None;;;S11979;2023_Jan_23_1755;VideoMask;2021.1.2;119.6074959487978;
0.0;f;030_o_f_s_a.jpg;sad;7.0;happy_125.3.wmv;happy;9.0;incongruent;130.0;150.0;220.51454909128134;s_h;;;;;0;31;31;31;;;;;;;422.1165793000255;None;424.1659934000345;424.48218170006294;425.6241726001026;425.6409994000569;427.61585870001;None;None;0;427.61585870001;None;;;;;;;;8;;;;;;;429.1824732000241;None;None;None;[];429.1824732000241;None;"['9', '9', '9']";"[10.000986099941656, 0.5901541999774054, 1.1581951999105513]";429.1824732000241;None;;;S11979;2023_Jan_23_1755;VideoMask;2021.1.2;119.6074959487978;
0.0;f;030_o_f_s_a.jpg;sad;7.0;sad_64.3ns.avi;sad;7.0;congruent;130.0;160.0;165.78667874766072;s_s;;;;;0;32;32;32;;;;;;;432.1662296000868;None;433.75723280000966;434.0735976001015;435.30731270008255;435.32396090007387;440.20706270006485;None;7;0;440.20706270006485;None;;;;;;;;3;;;;;;1.3338033000472933;441.76537320006173;None;None;None;[];441.76537320006173;None;"['7', '7']";"[0.43930909992195666, 0.8954452999169007]";441.76537320006173;None;;;S11979;2023_Jan_23_1755;VideoMask;2021.1.2;119.6074959487978;
3.0;m;013_y_m_s_a.jpg;sad;7.0;sad_7.7ns.avi;sad;7.0;congruent;130.0;160.0;196.24182255763262;s_s;;;;;0;33;33;33;;;;;;;444.7653022001032;None;446.6401339001022;446.9652295000851;448.1401280000573;448.15684940002393;454.09006410010625;None;7;0;454.09006410010625;None;;;;;;;;2;;;;;;1.2746155998902395;455.6399813001044;None;None;None;[];455.6399813001044;None;"['7', '7', '7']";"[0.48508429992944, 0.9007962999166921, 1.701081599923782]";455.6399813001044;None;;;S11979;2023_Jan_23_1755;VideoMask;2021.1.2;119.6074959487978;
3.0;m;013_y_m_h_a.jpg;happy;9.0;happy_9.1ns.avi;happy;9.0;congruent;120.0;150.0;165.1890303600433;h_h;;;;;0;34;34;34;;;;;;;458.6398135999916;None;460.23961670009885;460.5564360000426;461.68975260003936;461.7063480000943;464.91466650005896;None;9;0;464.91466650005896;None;;;;;;;;7;;;;;;0.8900268999859691;466.46455260005314;None;None;None;[];466.46455260005314;None;"['9', '9']";"[0.42027040000539273, 0.8602333000162616]";466.46455260005314;None;;;S11979;2023_Jan_23_1755;VideoMask;2021.1.2;119.6074959487978;
4.0;m;004_o_m_h_a.jpg;happy;9.0;sad_95.1ns.avi;sad;7.0;incongruent;120.0;160.0;152.68270002069931;h_s;;;;;0;35;35;35;;;;;;;469.46497760002967;None;470.9810018000426;471.2976105000125;472.53107270004693;472.54770310001913;481.22259770007804;None;None;0;481.22259770007804;None;;;;;;;;4;;;;;;;482.77236880001146;None;None;None;[];482.77236880001146;None;['7'];[1.3044843999668956];482.77236880001146;None;;;S11979;2023_Jan_23_1755;VideoMask;2021.1.2;119.6074959487978;
3.0;m;013_y_m_h_a.jpg;happy;9.0;sad_113.2.wmv;sad;7.0;incongruent;120.0;160.0;217.4973891947951;h_s;;;;;0;36;36;36;;;;;;;485.77222959999926;None;487.830429200083;488.1469105000142;489.28056790004484;489.2971594000701;491.28043620008975;None;7;0;491.28043620008975;None;;;;;;;;4;;;;;;1.2441598000004888;492.830183400074;None;None;None;[];492.830183400074;None;['7'];[0.45456899993587285];492.830183400074;None;;;S11979;2023_Jan_23_1755;VideoMask;2021.1.2;119.6074959487978;
4.0;m;004_o_m_h_a.jpg;happy;9.0;happy_25.1ns.avi;happy;9.0;congruent;120.0;150.0;216.63044503818386;h_h;;;;;0;37;37;37;;;;;;;495.8306655000197;None;497.83852130000014;498.1635391000891;499.3550610000966;499.3717801000457;502.9800833000336;None;9;0;502.9800833000336;None;;;;;;;;8;;;;;;0.8166646000463516;504.5299435000634;None;None;None;[];504.5299435000634;None;"['9', '9', '9']";"[0.45070649997796863, 0.858843500027433, 1.2506437000120059]";504.5299435000634;None;;;S11979;2023_Jan_23_1755;VideoMask;2021.1.2;119.6074959487978;
4.0;m;004_o_m_s_a.jpg;sad;7.0;happy_131.2.wmv;happy;9.0;incongruent;130.0;150.0;181.38407540847405;s_h;;;;;0;38;38;38;;;;;;;507.5303737000795;None;509.2464164000703;509.5628165000817;510.7046983001055;510.7214243001072;512.6963660001056;None;9;0;512.6963660001056;None;;;;;;;;7;;;;;;1.0361173999262974;514.2461995000485;None;None;None;[];514.2461995000485;None;"['9', '9']";"[0.43051720003131777, 0.8223281999817118]";514.2461995000485;None;;;S11979;2023_Jan_23_1755;VideoMask;2021.1.2;119.6074959487978;
0.0;f;040_y_f_h_a.jpg;happy;9.0;happy_24.3ns.avi;happy;9.0;congruent;120.0;150.0;213.25460698950434;h_h;;;;;0;39;39;39;;;;;;;517.2545470000478;None;519.2293815000448;519.5544643000467;520.7127503000665;520.7294036000967;522.6044314000756;None;9;0;522.6044314000756;None;;;;;;;;7;;;;;;1.4641955000115559;524.1626361000817;None;None;None;[];524.1626361000817;None;"['9', '9']";"[0.5060470999451354, 0.9058966999873519]";524.1626361000817;None;;;S11979;2023_Jan_23_1755;VideoMask;2021.1.2;119.6074959487978;
2.0;f;012_o_f_s_a.jpg;sad;7.0;happy_139.1.wmv;happy;9.0;incongruent;130.0;150.0;162.31500468041804;s_h;;;;;0;40;40;40;;;;;;;527.1628716000123;None;528.7374921001028;529.0537435000297;530.1975168000208;530.229016700061;532.1957837000955;None;9;0;532.1957837000955;None;;;;;;;;7;;;;;;0.9051826999057084;533.7456614000257;None;None;None;[];533.7456614000257;None;"['9', '9']";"[0.4429004000267014, 0.8589938000077382]";533.7456614000257;None;;;S11979;2023_Jan_23_1755;VideoMask;2021.1.2;119.6074959487978;
0.0;f;030_o_f_h_a.jpg;happy;9.0;happy_24.1ns.avi;happy;9.0;congruent;120.0;150.0;168.36256624020774;h_h;;;;;0;41;41;41;;;;;;;536.7456496000523;None;538.3620091000339;538.687200400047;539.9038401000435;539.9204347000923;543.1370276000816;None;None;0;543.1370276000816;None;;;;;;;;7;;;;;;;544.6869437000714;None;None;None;[];544.6869437000714;None;"['9', '9']";"[0.5019654999487102, 0.8936448999447748]";544.6869437000714;None;;;S11979;2023_Jan_23_1755;VideoMask;2021.1.2;119.6074959487978;
2.0;f;012_o_f_h_a.jpg;happy;9.0;sad_113.1.wmv;sad;7.0;incongruent;120.0;160.0;177.44551734737394;h_s;;;;;0;42;42;42;;;;;;;547.6873390000546;None;549.3951334001031;549.7116815000772;550.8700482000131;550.8867324000457;552.8450177001068;None;7;0;552.8450177001068;None;;;;;;;;4;;;;;;0.8954709001118317;554.394866000046;None;None;None;[];554.394866000046;None;['7'];[0.4900515000335872];554.394866000046;None;;;S11979;2023_Jan_23_1755;VideoMask;2021.1.2;119.6074959487978;
3.0;m;033_o_m_s_a.jpg;sad;7.0;sad_64.5ns.avi;sad;7.0;congruent;130.0;160.0;130.55717223801247;s_s;;;;;0;43;43;43;;;;;;;557.40367410006;None;558.7030973000219;559.0197124000406;560.1946821000893;560.2114454000257;566.7361161001027;None;7;0;566.7361161001027;None;;;;;;;;2;;;;;;0.8844134999671951;568.2944834000664;None;None;None;[];568.2944834000664;None;"['7', '7', '7', '7']";"[0.28602769994176924, 0.6620304000098258, 1.0620973999612033, 1.5660638000117615]";568.2944834000664;None;;;S11979;2023_Jan_23_1755;VideoMask;2021.1.2;119.6074959487978;
7.0;m;027_o_m_h_a.jpg;happy;9.0;sad_117.1.wmv;sad;7.0;incongruent;120.0;160.0;181.28665202824095;h_s;;;;;0;44;44;44;;;;;;;571.3031949000433;None;573.0275666000089;573.3439427000703;574.4943289000075;574.5109921999974;576.4775930000469;None;7;0;576.4775930000469;None;;;;;;;;3;;;;;;1.2388620000565425;578.0275257000467;None;None;None;[];578.0275257000467;None;"['7', '7']";"[0.43296969996299595, 0.8891051000682637]";578.0275257000467;None;;;S11979;2023_Jan_23_1755;VideoMask;2021.1.2;119.6074959487978;
3.0;m;033_o_m_s_a.jpg;sad;7.0;happy_126.3.wmv;happy;9.0;incongruent;130.0;150.0;198.85252030535366;s_h;;;;;0;45;45;45;;;;;;;581.035986400093;None;582.9106152000604;583.2358743000077;584.3688212000998;584.3858274000231;586.3605671999976;None;8;0;586.3605671999976;None;;;;;;;;6;;;;;;0.6759425000054762;587.9104998999974;None;None;None;[];587.9104998999974;None;['9'];[0.6700188000686467];587.9104998999974;None;;;S11979;2023_Jan_23_1755;VideoMask;2021.1.2;119.6074959487978;
3.0;m;033_o_m_h_a.jpg;happy;9.0;sad_136.1.wmv;sad;7.0;incongruent;120.0;160.0;176.97002883463455;h_s;;;;;0;46;46;46;;;;;;;590.918836900033;None;592.5935455000727;592.9099520000163;594.0438088000519;594.0603347000433;596.0435910000233;None;7;0;596.0435910000233;None;;;;;;;;2;;;;;;1.0569150000810623;597.5935104000382;None;None;None;[];597.5935104000382;None;"['7', '7', '7']";"[0.36295780004002154, 0.7550975000485778, 1.8752328000264242]";597.5935104000382;None;;;S11979;2023_Jan_23_1755;VideoMask;2021.1.2;119.6074959487978;
9.0;f;019_m_f_h_a.jpg;happy;9.0;happy_10.1ns.avi;happy;9.0;congruent;120.0;150.0;157.2463435658512;h_h;;;;;0;47;47;47;;;;;;;600.6099038000684;None;602.143355700071;602.47011200001;603.6348915999988;603.6516676000319;611.0431548000779;None;8;0;611.0431548000779;None;;;;;;;;6;;;;;;0.5933703000191599;612.5929980000947;None;None;None;[];612.5929980000947;None;"['9', '9']";"[0.4035657999338582, 1.4674988999031484]";612.5929980000947;None;;;S11979;2023_Jan_23_1755;VideoMask;2021.1.2;119.6074959487978;
2.0;f;012_o_f_h_a.jpg;happy;9.0;happy_2.2ns.avi;happy;9.0;congruent;120.0;150.0;206.34800317295262;h_h;;;;;0;48;48;48;;;;;;;615.6017571000848;None;617.559400600032;617.8757790999953;619.0345149000641;619.0511391001055;631.2179447000381;None;9;0;631.2179447000381;None;;;;;;;;6;;;;;;0.818399399984628;632.9090583000798;None;None;None;[];632.9090583000798;None;['9'];[0.4635081000160426];632.9090583000798;None;;;S11979;2023_Jan_23_1755;VideoMask;2021.1.2;119.6074959487978;
3.0;m;033_o_m_h_a.jpg;happy;9.0;happy_24.2ns.avi;happy;9.0;congruent;120.0;150.0;167.9423847659953;h_h;;;;;0;49;49;49;;;;;;;635.9091556000058;None;637.500416600029;637.8167863000417;639.0755357000744;639.092011300032;642.6836938000051;None;9;0;642.6836938000051;None;;;;;;;;8;;;;;;0.9287549000000581;644.233621600084;None;None;None;[];644.233621600084;None;"['9', '9', '9', '9']";"[0.36275699990801513, 0.8267969000153244, 1.2750544999726117, 1.8508855999680236]";644.233621600084;None;;;S11979;2023_Jan_23_1755;VideoMask;2021.1.2;119.6074959487978;
1.0;f;021_o_f_s_a.jpg;sad;7.0;happy_61.2ns.avi;happy;9.0;incongruent;130.0;150.0;210.94664004826666;s_h;;;;;0;50;50;50;;;;;;;647.2422265000641;None;649.2000436000526;649.5251153000863;650.776788600022;650.8084500000114;655.1749745000852;None;8;0;655.1749745000852;None;;;;;;;;6;;;;;;0.5014387000119314;656.7248542000307;None;None;None;[];656.7248542000307;None;"['9', '9', '9', '9']";"[0.5276141000213102, 1.1115511000389233, 1.7116631999379024, 2.463527000043541]";656.7248542000307;None;;;S11979;2023_Jan_23_1755;VideoMask;2021.1.2;119.6074959487978;
4.0;m;004_o_m_s_a.jpg;sad;7.0;sad_2.4ns.avi;sad;7.0;congruent;130.0;160.0;153.02079367163634;s_s;;;;;0;51;51;51;;;;;;;659.7247341000475;None;661.2246750000631;661.5497421000618;662.6831229000818;662.699695300078;670.6418030000059;None;7;0;670.6418030000059;None;;;;;;;;2;;;;;;0.5945413000881672;672.4160299000796;None;None;None;[];672.4160299000796;None;"['7', '7', '7']";"[0.4843674999428913, 1.1646722999867052, 1.8684077999787405]";672.4160299000796;None;;;S11979;2023_Jan_23_1755;VideoMask;2021.1.2;119.6074959487978;
8.0;m;008_y_m_h_a.jpg;happy;9.0;happy_1.2ns.avi;happy;9.0;congruent;120.0;150.0;210.98946429383824;h_h;;;;;0;52;52;52;;;;;;;675.4162645000033;None;677.4074091000948;677.7241452001035;678.9242321000202;678.9408566000639;691.6486749000615;None;9;0;691.6486749000615;None;;;;;;;;7;;;;;;0.8277585000032559;693.1986486000242;None;None;None;[];693.1986486000242;None;"['9', '9']";"[0.44614320003893226, 1.3975965999998152]";693.1986486000242;None;;;S11979;2023_Jan_23_1755;VideoMask;2021.1.2;119.6074959487978;
2.0;f;012_o_f_s_a.jpg;sad;7.0;happy_52.2ns.avi;happy;9.0;incongruent;130.0;150.0;172.57202848318138;s_h;;;;;0;53;53;53;;;;;;;696.1989481000928;None;697.8984009000706;698.214813800063;699.4316036000382;699.4484676000429;702.9066763001028;None;9;0;702.9066763001028;None;;;;;;;;7;;;;;;0.8256752999732271;704.4566365000792;None;None;None;[];704.4566365000792;None;"['9', '9', '9']";"[0.43583339999895543, 1.4436237999470904, 2.691778299980797]";704.4566365000792;None;;;S11979;2023_Jan_23_1755;VideoMask;2021.1.2;119.6074959487978;
9.0;f;019_m_f_s_a.jpg;sad;7.0;happy_61.1ns.avi;happy;9.0;incongruent;130.0;150.0;181.3003220572762;s_h;;;;;0;54;54;54;;;;;;;707.4565547000384;None;709.1898376001045;709.5063311000122;710.648102200008;710.6646647000453;718.031310099992;None;8;0;718.031310099992;None;;;;;;;;5;;;;;;0.6769265000475571;719.5977688001003;None;None;None;[];719.5977688001003;None;None;;719.5977688001003;None;;;S11979;2023_Jan_23_1755;VideoMask;2021.1.2;119.6074959487978;
0.0;f;030_o_f_h_a.jpg;happy;9.0;sad_133.1.wmv;sad;7.0;incongruent;120.0;160.0;198.86251500867985;h_s;;;;;0;55;55;55;;;;;;;722.6310367000988;None;724.5143064000877;724.8308594000991;725.9559857000131;725.9725217000814;727.9641882000724;None;7;0;727.9641882000724;None;;;;;;;;4;;;;;;1.0802928999764845;729.5141221000813;None;None;None;[];729.5141221000813;None;['7'];[0.46621380001306534];729.5141221000813;None;;;S11979;2023_Jan_23_1755;VideoMask;2021.1.2;119.6074959487978;
0.0;f;040_y_f_h_a.jpg;happy;9.0;sad_128.2.wmv;sad;7.0;incongruent;120.0;160.0;206.10005857915363;h_s;;;;;0;56;56;56;;;;;;;732.5143946000608;None;734.4555320000509;734.7722332000267;735.9053355000215;735.9221965000033;737.905508600059;None;8;0;737.905508600059;None;;;;;;;;4;;;;;;1.2828182999510318;739.4555054000812;None;None;None;[];739.4555054000812;None;['7'];[0.6449063000036404];739.4555054000812;None;;;S11979;2023_Jan_23_1755;VideoMask;2021.1.2;119.6074959487978;
1.0;f;021_o_f_s_a.jpg;sad;7.0;sad_9.5ns.avi;sad;7.0;congruent;130.0;160.0;206.16642757875042;s_s;;;;;0;57;57;57;;;;;;;742.4557781000622;None;744.3885181000223;744.7053176000481;745.9469260000624;745.9635941000888;751.5633919000393;None;7;0;751.5633919000393;None;;;;;;;;4;;;;;;0.6489134000148624;753.1134287000168;None;None;None;[];753.1134287000168;None;['7'];[0.49078380002174526];753.1134287000168;None;;;S11979;2023_Jan_23_1755;VideoMask;2021.1.2;119.6074959487978;
1.0;f;021_o_f_h_a.jpg;happy;9.0;happy_12.1ns.avi;happy;9.0;congruent;120.0;150.0;132.59080005900228;h_h;;;;;0;58;58;58;;;;;;;756.1215749999974;None;757.454887000029;757.7711344000418;758.9380949001061;758.9547433000989;766.5214168000966;None;9;0;766.5214168000966;None;;;;;;;;6;;;;;;0.7790982000296935;768.1043975000503;None;None;None;[];768.1043975000503;None;"['9', '9']";"[0.4759880999336019, 1.3959812000393867]";768.1043975000503;None;;;S11979;2023_Jan_23_1755;VideoMask;2021.1.2;119.6074959487978;
3.0;m;013_y_m_s_a.jpg;sad;7.0;happy_56.2ns.avi;happy;9.0;incongruent;130.0;150.0;163.39234110935848;s_h;;;;;0;59;59;59;;;;;;;771.1043865000829;None;772.6709224000806;772.9876064000418;774.1208646000596;774.1376444000052;779.1456791000674;None;None;0;779.1456791000674;None;;;;;;;;6;;;;;;;780.712322800071;None;None;None;[];780.712322800071;None;['9'];[12.563982399995439];780.712322800071;None;;;S11979;2023_Jan_23_1755;VideoMask;2021.1.2;119.6074959487978;
;;;;;;;;;;;;;;;;;;;;;;;;;;;;;;;;;;;;;;;;;;;;;;;;;;;;;;;;;;;;;;;;783.7043028000044;None;;;;;;
