primePerson;primeGender;prime;primeEmotion;corrAnsPrime;target;targetEmotion;corrAnsTar;Cond;ID_Primer;ID_Target;JitterTime;example.thisRepN;example.thisTrialN;example.thisN;example.thisIndex;study.thisRepN;study.thisTrialN;study.thisN;study.thisIndex;MR_trigger_time;MR_trigger_number;text_intro.started;text_intro.stopped;text_probe.started;text_probe.stopped;polygon_ISI.started;polygon_ISI.stopped;polygon.started;polygon.stopped;primerImage.started;primerImage.stopped;response.started;response.stopped;key_resp.keys;key_resp.corr;key_resp.rt;key_resp.started;key_resp.stopped;slider_Text.started;slider_Text.stopped;slider_ex.response;slider_ex.rt;slider_ex.history;slider_ex.started;slider_ex.stopped;Rating;slider_resp_response.keys;slider_resp_response.rt;slider_resp_response.started;slider_resp_response.stopped;text_start.started;text_start.stopped;text_slider.started;text_slider.stopped;slider_stud.response;slider_stud.rt;slider_stud.history;slider_stud.started;slider_stud.stopped;slider_resp_study.keys;slider_resp_study.rt;slider_resp_study.started;slider_resp_study.stopped;text_ende.started;text_ende.stopped;participant;date;expName;psychopyVersion;frameRate;
1111;m;1111_m_m_h_a.jpg;happy;9;example_30.4ns.avi;neutral;7;incongruent;120.0;170.0;189.5874364012288;0;0;0;0;;;;;46.40266009999323;1;46.47996860000421;48.48013399998308;48.48013399998308;None;50.50510169999325;None;52.729956900002435;53.046566300006816;54.23813879999216;54.25491210000473;58.521434299997054;None;9;0;0.8064239000086673;58.521434299997054;None;60.08018950000405;None;None;None;[];60.08018950000405;None;7;"['9', '9']";"[0.4794491999782622, 1.727642099984223]";60.08018950000405;None;;;;;;;;;;;;;;;;S10759;2021_Jul_16_1617;VideoMask;2021.1.2;120.06978455899718;
1113;f;1113_y_f_s_a.jpg;sad;7;example_30.3ns.avi;neutral;7;incongruent;130.0;170.0;229.02432995836998;0;1;1;1;;;;;;;;;;;63.0713535999821;None;65.1877956999815;65.50448149998556;66.67121479997877;66.68777689998387;68.63799419999123;None;9;0;1.425880099995993;68.63799419999123;None;70.1877589999931;None;None;None;[];70.1877589999931;None;7;"['9', '9']";"[0.41198080001049675, 0.7401993999956176]";70.1877589999931;None;;;;;;;;;;;;;;;;S10759;2021_Jul_16_1617;VideoMask;2021.1.2;120.06978455899718;
3.0;m;033_o_m_s_a.jpg;sad;7.0;sad_94.2ns.avi;sad;7.0;congruent;130.0;160.0;228.63582583242618;;;;;0;0;0;0;;;;;;;74.22096360000432;None;76.3207618999877;76.63743879998219;77.78736509999726;77.8039860999852;80.46241189999273;None;7;0;0.6574853000056464;80.46241189999273;None;;;;;;;;3;;;;;73.18754679997801;None;82.02093279999099;None;None;None;[];82.02093279999099;None;"['7', '7']";"[0.4987366999848746, 1.6193842999928165]";82.02093279999099;None;;;S10759;2021_Jul_16_1617;VideoMask;2021.1.2;120.06978455899718;
0.0;f;030_o_f_s_a.jpg;sad;7.0;sad_68.1ns.avi;sad;7.0;congruent;130.0;160.0;163.14738846961149;;;;;0;1;1;1;;;;;;;85.02069969999138;None;86.61216859999695;86.9287539999932;88.12883589998819;88.1455314999912;95.48695039999438;None;7;0;0.33694170002127066;95.48695039999438;None;;;;;;;;2;;;;;;;97.17029749997891;None;None;None;[];97.17029749997891;None;"['7', '7', '7']";"[0.41361039999173954, 0.8055829999793787, 2.7896921999927144]";97.17029749997891;None;;;S10759;2021_Jul_16_1617;VideoMask;2021.1.2;120.06978455899718;
8.0;m;008_y_m_h_a.jpg;happy;9.0;happy_26.1ns.avi;happy;9.0;congruent;140.0;150.0;184.58211837191982;;;;;0;2;2;2;;;;;;;100.17021569999633;None;101.90390529998695;102.22008790000109;103.39492500000051;103.41174650000175;105.34505839998019;None;9;0;0.6308195999881718;105.34505839998019;None;;;;;;;;8;;;;;;;106.89498319997801;None;None;None;[];106.89498319997801;None;"['9', '9', '9', '9']";"[0.24908189999405295, 0.5689149999816436, 0.9369022999890149, 2.4010236999893095]";106.89498319997801;None;;;S10759;2021_Jul_16_1617;VideoMask;2021.1.2;120.06978455899718;
0.0;f;030_o_f_s_a.jpg;sad;7.0;happy_125.3.wmv;happy;9.0;incongruent;130.0;150.0;189.50417957278896;;;;;0;3;3;3;;;;;;;109.90332829998806;None;111.70302439999068;112.01987230000668;113.16191329999128;113.17847210000036;115.15304939998896;None;9;0;0.6068338999757543;115.15304939998896;None;;;;;;;;8;;;;;;;116.70294279998052;None;None;None;[];116.70294279998052;None;"['9', '9', '9']";"[0.2812162000045646, 0.6249719000188634, 1.7047151000006124]";116.70294279998052;None;;;S10759;2021_Jul_16_1617;VideoMask;2021.1.2;120.06978455899718;
1.0;f;021_o_f_s_a.jpg;sad;7.0;sad_9.5ns.avi;sad;7.0;congruent;130.0;160.0;156.55128602613038;;;;;0;4;4;4;;;;;;;119.70301870000549;None;121.22850120000658;121.54451199999312;122.68596509998315;122.70287340000505;128.40276149997953;None;7;0;0.42106919997604564;128.40276149997953;None;;;;;;;;1;;;;;;;129.97755049998523;None;None;None;[];129.97755049998523;None;"['7', '7', '7', '7', '7']";"[0.2223606000188738, 0.46222539999871515, 0.678050800022902, 1.0863167000061367, 1.6062795000034384]";129.97755049998523;None;;;S10759;2021_Jul_16_1617;VideoMask;2021.1.2;120.06978455899718;
4.0;m;004_o_m_s_a.jpg;sad;7.0;happy_28.1ns.avi;happy;9.0;incongruent;130.0;150.0;219.83540383939274;;;;;0;5;5;5;;;;;;;132.9774960000068;None;135.01064799999585;135.32730219999212;136.46077979999245;136.47744909999892;140.85233819999848;None;9;0;0.3715220000012778;140.85233819999848;None;;;;;;;;8;;;;;;;142.4272585999861;None;None;None;[];142.4272585999861;None;"['9', '9', '9', '9']";"[0.2443386999948416, 0.5086932000122033, 1.132580700010294, 1.9965694000129588]";142.4272585999861;None;;;S10759;2021_Jul_16_1617;VideoMask;2021.1.2;120.06978455899718;
2.0;f;012_o_f_s_a.jpg;sad;7.0;sad_7.5ns.avi;sad;7.0;congruent;130.0;160.0;147.95125229894379;;;;;0;6;6;6;;;;;;;145.4271146999963;None;146.8519907000009;147.1687239999883;148.32686050000484;148.34351489998517;151.0937090999796;None;7;0;0.5700385000091046;151.0937090999796;None;;;;;;;;2;;;;;;;152.64360300000408;None;None;None;[];152.64360300000408;None;"['7', '7', '7']";"[0.29222579998895526, 0.6842969999997877, 1.1559123999904841]";152.64360300000408;None;;;S10759;2021_Jul_16_1617;VideoMask;2021.1.2;120.06978455899718;
2.0;f;012_o_f_s_a.jpg;sad;7.0;happy_52.2ns.avi;happy;9.0;incongruent;130.0;150.0;144.3898903070799;;;;;0;7;7;7;;;;;;;155.65186829998856;None;157.05165539999143;157.36847739998484;158.5017538999964;158.51842759997817;162.05197639999096;None;9;0;0.4356700000062119;162.05197639999096;None;;;;;;;;7;;;;;;;163.6015808999946;None;None;None;[];163.6015808999946;None;"['9', '9']";"[0.23002400001860224, 0.646224500000244]";163.6015808999946;None;;;S10759;2021_Jul_16_1617;VideoMask;2021.1.2;120.06978455899718;
0.0;f;040_y_f_s_a.jpg;sad;7.0;sad_67.2ns.avi;sad;7.0;congruent;130.0;160.0;192.80086779892653;;;;;0;8;8;8;;;;;;;166.60986080000293;None;168.44295269998838;168.75969350000378;169.89303669999936;169.9097673999786;179.11787539999932;None;7;0;0.39389639999717474;179.11787539999932;None;;;;;;;;1;;;;;;;180.69285749999108;None;None;None;[];180.69285749999108;None;"['7', '7', '7', '7', '7']";"[17.045997600012925, 0.33093599998392165, 0.6267567999893799, 1.1789467000053264, 1.7467827000073157]";180.69285749999108;None;;;S10759;2021_Jul_16_1617;VideoMask;2021.1.2;120.06978455899718;
3.0;m;013_y_m_s_a.jpg;sad;7.0;happy_56.2ns.avi;happy;9.0;incongruent;130.0;150.0;134.62621969351147;;;;;0;9;9;9;;;;;;;183.66753700000118;None;185.00082240000484;185.31750629999442;186.450912100001;186.46749549999367;191.47564859999693;None;9;0;0.35614560000249185;191.47564859999693;None;;;;;;;;8;;;;;;;193.0256684999913;None;None;None;[];193.0256684999913;None;"['9', '9', '9', '9']";"[0.23820019999402575, 0.6223551000002772, 1.0701163999910932, 1.5499278999923263]";193.0256684999913;None;;;S10759;2021_Jul_16_1617;VideoMask;2021.1.2;120.06978455899718;
0.0;f;030_o_f_h_a.jpg;happy;9.0;sad_133.1.wmv;sad;7.0;incongruent;120.0;160.0;238.4103736452693;;;;;0;10;10;10;;;;;;;196.02564769997844;None;198.23373599999468;198.5504650999792;199.68387619999703;199.70050559999072;201.70055159999174;None;None;0;;201.70055159999174;None;;;;;;;;4;;;;;;;203.25858799999696;None;None;None;[];203.25858799999696;None;"['7', '7']";"[2.245214800001122, 2.9090088000230026]";203.25858799999696;None;;;S10759;2021_Jul_16_1617;VideoMask;2021.1.2;120.06978455899718;
2.0;f;012_o_f_h_a.jpg;happy;9.0;happy_2.2ns.avi;happy;9.0;congruent;140.0;150.0;120.08648649110712;;;;;0;11;11;11;;;;;;;206.2586323999858;None;207.49995579998358;207.81700489998912;208.96684720000485;208.98356279998552;221.15840280000702;None;8;0;1.4574582999921404;221.15840280000702;None;;;;;;;;6;;;;;;;222.7163986999949;None;None;None;[];222.7163986999949;None;"['9', '7']";"[1.9713856999878772, 2.8275130999973044]";222.7163986999949;None;;;S10759;2021_Jul_16_1617;VideoMask;2021.1.2;120.06978455899718;
9.0;f;019_m_f_s_a.jpg;sad;7.0;sad_8.4ns.avi;sad;7.0;congruent;130.0;160.0;169.3395974323834;;;;;0;12;12;12;;;;;;;225.71636160000344;None;227.35779179999372;227.67453269998077;228.82498219999252;228.84959939998225;236.94935799998348;None;None;0;;236.94935799998348;None;;;;;;;;3;;;;;;;238.49919219998992;None;None;None;[];238.49919219998992;None;"['7', '7']";"[0.08434719999786466, 2.4764685000118334]";238.49919219998992;None;;;S10759;2021_Jul_16_1617;VideoMask;2021.1.2;120.06978455899718;
8.0;m;008_y_m_s_a.jpg;sad;7.0;sad_6.5ns.avi;sad;7.0;congruent;130.0;160.0;124.24628091899196;;;;;0;13;13;13;;;;;;;241.49922369999695;None;242.75731879999512;243.07408439999563;244.22414310000022;244.24079829998664;249.20743889998994;None;7;0;0.9442389000032563;249.20743889998994;None;;;;;;;;2;;;;;;;250.75714869998046;None;None;None;[];250.75714869998046;None;"['7', '7', '7']";"[0.626470099989092, 1.1303923999948893, 2.674535400001332]";250.75714869998046;None;;;S10759;2021_Jul_16_1617;VideoMask;2021.1.2;120.06978455899718;
1.0;f;021_o_f_h_a.jpg;happy;9.0;happy_12.1ns.avi;happy;9.0;congruent;140.0;150.0;236.6487020138435;;;;;0;14;14;14;;;;;;;253.7654704999877;None;255.96570189998602;256.282143599994;257.4404259999865;257.45708339998964;265.03189819998806;None;9;0;0.40775319997919723;265.03189819998806;None;;;;;;;;7;;;;;;;266.58177520000027;None;None;None;[];266.58177520000027;None;"['9', '9', '9', '9']";"[0.24190409999573603, 0.5937693000014406, 1.1778801000036765, 1.713860099989688]";266.58177520000027;None;;;S10759;2021_Jul_16_1617;VideoMask;2021.1.2;120.06978455899718;
8.0;f;028_y_f_s_a.jpg;sad;7.0;sad_64.2ns.avi;sad;7.0;congruent;130.0;160.0;238.8507440172915;;;;;0;15;15;15;;;;;;;269.5901801;None;271.8231664999912;272.13992580000195;273.272993999999;273.2899150000012;284.27292409999063;None;7;0;0.6545737000124063;284.27292409999063;None;;;;;;;;3;;;;;;;285.8228632999817;None;None;None;[];285.8228632999817;None;"['7', '7']";"[0.2010135999880731, 0.8167310999997426]";285.8228632999817;None;;;S10759;2021_Jul_16_1617;VideoMask;2021.1.2;120.06978455899718;
2.0;f;012_o_f_s_a.jpg;sad;7.0;happy_139.1.wmv;happy;9.0;incongruent;130.0;150.0;185.59030554143408;;;;;0;16;16;16;;;;;;;288.8228359000059;None;290.57268949999707;290.88935429998673;292.0224662999972;292.03917049997835;294.0226702999789;None;9;0;1.2810145000112243;294.0226702999789;None;;;;;;;;6;;;;;;;295.5725809999858;None;None;None;[];295.5725809999858;None;"['9', '9', '7']";"[0.5790979000157677, 1.7550397000159137, 2.571492900024168]";295.5725809999858;None;;;S10759;2021_Jul_16_1617;VideoMask;2021.1.2;120.06978455899718;
3.0;m;033_o_m_s_a.jpg;sad;7.0;sad_64.5ns.avi;sad;7.0;congruent;130.0;160.0;159.52646627166388;;;;;0;17;17;17;;;;;;;298.5724862999923;None;300.114078899991;300.43069489998743;301.5553658999852;301.5723858999845;308.1471687000012;None;7;0;0.5883675999939442;308.1471687000012;None;;;;;;;;2;;;;;;;309.69708749998244;None;None;None;[];309.69708749998244;None;"['7', '7', '7']";"[0.21459009998943657, 0.5505623999924865, 1.3188120999839157]";309.69708749998244;None;;;S10759;2021_Jul_16_1617;VideoMask;2021.1.2;120.06978455899718;
0.0;f;040_y_f_s_a.jpg;sad;7.0;happy_127.3.wmv;happy;9.0;incongruent;130.0;150.0;131.0431594605889;;;;;0;18;18;18;;;;;;;312.6970713000046;None;313.99686640000436;314.3136958999967;315.4386807999981;315.4552726999973;317.5219094000058;None;9;0;1.4216388000058942;317.5219094000058;None;;;;;;;;6;;;;;;;319.0718583999842;None;None;None;[];319.0718583999842;None;['9'];[1.3757058000192046];319.0718583999842;None;;;S10759;2021_Jul_16_1617;VideoMask;2021.1.2;120.06978455899718;
3.0;m;033_o_m_h_a.jpg;happy;9.0;sad_128.1.wmv;sad;7.0;incongruent;120.0;160.0;168.97426303437265;;;;;0;19;19;19;;;;;;;322.07177829998545;None;323.68823719999637;324.0049472999817;325.1383438000048;325.15502869998454;327.14661589998286;None;7;0;0.6368832999723963;327.14661589998286;None;;;;;;;;4;;;;;;;328.6965820000041;None;None;None;[];328.6965820000041;None;"['7', '7']";"[0.14299339998979121, 0.7509803999855649]";328.6965820000041;None;;;S10759;2021_Jul_16_1617;VideoMask;2021.1.2;120.06978455899718;
9.0;f;019_m_f_h_a.jpg;happy;9.0;sad_115.1.wmv;sad;7.0;incongruent;120.0;160.0;202.13700247699333;;;;;0;20;20;20;;;;;;;331.69647919997806;None;333.5879554999992;333.9046879999805;335.0297750000027;335.0464182999858;337.03812419998576;None;7;0;1.23349149999558;337.03812419998576;None;;;;;;;;3;;;;;;;338.58793959999457;None;None;None;[];338.58793959999457;None;"['7', '7']";"[0.49954520000028424, 0.8915568999946117]";338.58793959999457;None;;;S10759;2021_Jul_16_1617;VideoMask;2021.1.2;120.06978455899718;
8.0;m;008_y_m_h_a.jpg;happy;9.0;happy_1.2ns.avi;happy;9.0;congruent;140.0;150.0;155.22310421045015;;;;;0;21;21;21;;;;;;;341.59632579999743;None;343.12942250000197;343.4461594999884;344.6211293999804;344.6377400000056;357.37081259998376;None;9;0;0.41281359997810796;357.37081259998376;None;;;;;;;;8;;;;;;;358.9372308999882;None;None;None;[];358.9372308999882;None;"['9', '9', '9']";"[0.23026549999485724, 0.5500422000186518, 1.1503979999979492]";358.9372308999882;None;;;S10759;2021_Jul_16_1617;VideoMask;2021.1.2;120.06978455899718;
0.0;f;040_y_f_s_a.jpg;sad;7.0;sad_94.3ns.avi;sad;7.0;congruent;130.0;160.0;157.18644691248227;;;;;0;22;22;22;;;;;;;361.9373149999883;None;363.4453702000028;363.76214209999307;364.91220239998074;364.92881799998577;367.5203952000011;None;7;0;0.9029234000190627;367.5203952000011;None;;;;;;;;4;;;;;;;369.070333199983;None;None;None;[];369.070333199983;None;['7'];[0.9532217000087257];369.070333199983;None;;;S10759;2021_Jul_16_1617;VideoMask;2021.1.2;120.06978455899718;
6.0;m;016_y_m_s_a.jpg;sad;7.0;happy_60.4ns.avi;happy;9.0;incongruent;130.0;150.0;135.96622391936876;;;;;0;23;23;23;;;;;;;372.0704089999781;None;373.41175070000463;373.72851260000607;374.89514609999605;374.9118397999846;380.6700354999921;None;9;0;0.7775540000002366;380.6700354999921;None;;;;;;;;7;;;;;;;382.2282794000057;None;None;None;[];382.2282794000057;None;"['9', '9', '9']";"[0.3073738999955822, 1.0353133999742568, 1.5232790999871213]";382.2282794000057;None;;;S10759;2021_Jul_16_1617;VideoMask;2021.1.2;120.06978455899718;
0.0;f;030_o_f_h_a.jpg;happy;9.0;happy_24.1ns.avi;happy;9.0;congruent;140.0;150.0;187.2363405679046;;;;;0;24;24;24;;;;;;;385.22822570000426;None;387.0030049000052;387.3196420999884;388.46961090000696;388.48650309999357;391.77796949999174;None;9;0;0.7332422999897972;391.77796949999174;None;;;;;;;;9;;;;;;;393.3363436999789;None;None;None;[];393.3363436999789;None;"['9', '9', '9', '9', '9']";"[0.15095200002542697, 0.43089090002467856, 0.7109756999998353, 1.0310407000069972, 1.4230515000235755]";393.3363436999789;None;;;S10759;2021_Jul_16_1617;VideoMask;2021.1.2;120.06978455899718;
8.0;m;008_y_m_s_a.jpg;sad;7.0;happy_133.3.wmv;happy;9.0;incongruent;130.0;150.0;151.65964880545846;;;;;0;25;25;25;;;;;;;396.3362852999999;None;397.81100309998146;398.1276954000059;399.25282910000533;399.26947269999073;401.261038800003;None;None;0;;401.261038800003;None;;;;;;;;7;;;;;;;402.81090019998373;None;None;None;[];402.81090019998373;None;"['9', '9']";"[0.020504400017671287, 0.8046002000046428]";402.81090019998373;None;;;S10759;2021_Jul_16_1617;VideoMask;2021.1.2;120.06978455899718;
1.0;f;021_o_f_s_a.jpg;sad;7.0;happy_61.2ns.avi;happy;9.0;incongruent;130.0;150.0;146.79956415721207;;;;;0;26;26;26;;;;;;;405.8109482;None;407.2357097000058;407.55250319998595;408.7025392999931;408.71912729999167;413.2107568999927;None;9;0;0.684757900016848;413.2107568999927;None;;;;;;;;6;;;;;;;414.80234329999075;None;None;None;[];414.80234329999075;None;['9'];[0.21314469998469576];414.80234329999075;None;;;S10759;2021_Jul_16_1617;VideoMask;2021.1.2;120.06978455899718;
1.0;f;021_o_f_h_a.jpg;happy;9.0;sad_116.1.wmv;sad;7.0;incongruent;120.0;160.0;205.93899364307754;;;;;0;27;27;27;;;;;;;417.8022624999867;None;419.7269873000041;420.0437772999867;421.177191499999;421.1937549999857;423.1771262999973;None;7;0;0.6943749999918509;423.1771262999973;None;;;;;;;;2;;;;;;;424.7519794999971;None;None;None;[];424.7519794999971;None;"['7', '7', '7', '7']";"[0.24757020000834018, 0.5193656999908853, 0.9995930000150111, 1.9276580000005197]";424.7519794999971;None;;;S10759;2021_Jul_16_1617;VideoMask;2021.1.2;120.06978455899718;
7.0;m;027_o_m_h_a.jpg;happy;9.0;happy_20.1ns.avi;happy;9.0;congruent;140.0;150.0;145.4488529976734;;;;;0;28;28;28;;;;;;;427.7520738999883;None;429.16839679999975;429.48505299998214;430.6184939999948;430.6350532999786;433.63510569999926;None;9;0;0.5804210999922361;433.63510569999926;None;;;;;;;;8;;;;;;;435.1849649999931;None;None;None;[];435.1849649999931;None;"['9', '9', '9']";"[0.06268820000695996, 0.4142725999990944, 1.0626197000092361]";435.1849649999931;None;;;S10759;2021_Jul_16_1617;VideoMask;2021.1.2;120.06978455899718;
3.0;m;033_o_m_s_a.jpg;sad;7.0;happy_126.3.wmv;happy;9.0;incongruent;130.0;150.0;220.47504181707743;;;;;0;29;29;29;;;;;;;438.1849488999869;None;440.2346893999784;440.5514864999859;441.68472560000373;441.70205269998405;443.6847865000018;None;9;0;1.3628095000167377;443.6847865000018;None;;;;;;;;7;;;;;;;445.23468199998024;None;None;None;[];445.23468199998024;None;"['9', '9']";"[0.41279709999798797, 0.8045770000026096]";445.23468199998024;None;;;S10759;2021_Jul_16_1617;VideoMask;2021.1.2;120.06978455899718;
4.0;m;004_o_m_s_a.jpg;sad;7.0;sad_2.4ns.avi;sad;7.0;congruent;130.0;160.0;153.9424691910033;;;;;0;30;30;30;;;;;;;448.23462629999267;None;449.73432309998316;450.0595817999856;451.2178337999794;451.234466599999;459.1429387999815;None;7;0;0.44850070000393316;459.1429387999815;None;;;;;;;;3;;;;;;;460.70923049998237;None;None;None;[];460.70923049998237;None;"['7', '7']";"[0.2902151000162121, 0.5621881000115536]";460.70923049998237;None;;;S10759;2021_Jul_16_1617;VideoMask;2021.1.2;120.06978455899718;
8.0;m;008_y_m_h_a.jpg;happy;9.0;sad_111.1.wmv;sad;7.0;incongruent;120.0;160.0;182.0123397825363;;;;;0;31;31;31;;;;;;;463.70921489998;None;465.44233210000675;465.75903809999;466.8840087999997;466.90056179999374;468.90062830000534;None;7;0;1.0426696999929845;468.90062830000534;None;;;;;;;;3;;;;;;;470.4505894999893;None;None;None;[];470.4505894999893;None;"['7', '7', '7']";"[0.3327205000096001, 0.6449173000000883, 1.3168348000035621]";470.4505894999893;None;;;S10759;2021_Jul_16_1617;VideoMask;2021.1.2;120.06978455899718;
4.0;m;004_o_m_h_a.jpg;happy;9.0;happy_1.1ns.avi;happy;9.0;congruent;140.0;150.0;145.41905773865074;;;;;0;32;32;32;;;;;;;473.45064269998693;None;474.9169309999852;475.2336996999802;476.3670826999878;476.3837330999959;490.85009150000405;None;9;0;0.4692933000042103;490.85009150000405;None;;;;;;;;8;;;;;;;492.39991469998495;None;None;None;[];492.39991469998495;None;"['9', '9', '9']";"[0.11139850001200102, 0.4556125999952201, 1.1035859000112396]";492.39991469998495;None;;;S10759;2021_Jul_16_1617;VideoMask;2021.1.2;120.06978455899718;
4.0;m;004_o_m_s_a.jpg;sad;7.0;happy_131.2.wmv;happy;9.0;incongruent;130.0;150.0;163.9874412082805;;;;;0;33;33;33;;;;;;;495.40833049998037;None;497.00798699998995;497.32466309997835;498.4579400999937;498.4747135999787;500.4579590999929;None;9;0;0.7332341999863274;500.4579590999929;None;;;;;;;;7;;;;;;;502.0079764999973;None;None;None;[];502.0079764999973;None;"['9', '9']";"[0.2714812000049278, 2.6554363000032026]";502.0079764999973;None;;;S10759;2021_Jul_16_1617;VideoMask;2021.1.2;120.06978455899718;
2.0;f;012_o_f_h_a.jpg;happy;9.0;happy_27.1ns.avi;happy;9.0;congruent;140.0;150.0;207.9053492649655;;;;;0;34;34;34;;;;;;;505.00786079998943;None;506.9326780999836;507.2494963000063;508.38269209998543;508.39981459997944;510.87440659999265;None;9;0;0.36497210001107305;510.87440659999265;None;;;;;;;;9;;;;;;;512.4241119999788;None;None;None;[];512.4241119999788;None;"['9', '9', '9', '9', '9', '9']";"[0.19122549999156035, 0.49508749999222346, 0.9191316999786068, 1.311237899994012, 1.7912896999914665, 2.479298899997957]";512.4241119999788;None;;;S10759;2021_Jul_16_1617;VideoMask;2021.1.2;120.06978455899718;
7.0;m;027_o_m_s_a.jpg;sad;7.0;happy_117.3.wmv;happy;9.0;incongruent;130.0;150.0;218.0520785974414;;;;;0;35;35;35;;;;;;;515.4242418999784;None;517.457381699991;517.7740584999847;518.8990167999873;518.9156916999782;520.90739019998;None;None;0;;520.90739019998;None;;;;;;;;7;;;;;;;522.473819100007;None;None;None;[];522.473819100007;None;"['9', '9']";"[9.982928599987645, 0.6216996000148356]";522.473819100007;None;;;S10759;2021_Jul_16_1617;VideoMask;2021.1.2;120.06978455899718;
2.0;f;012_o_f_h_a.jpg;happy;9.0;sad_113.1.wmv;sad;7.0;incongruent;120.0;160.0;192.53137802384992;;;;;0;36;36;36;;;;;;;525.4572801000031;None;527.2740478999913;527.5905145999859;528.7155276999983;528.7320814999985;530.7239987999783;None;None;0;;530.7239987999783;None;;;;;;;;4;;;;;;;532.2739225999976;None;None;None;[];532.2739225999976;None;['7'];[0.5573588999977801];532.2739225999976;None;;;S10759;2021_Jul_16_1617;VideoMask;2021.1.2;120.06978455899718;
8.0;f;028_y_f_h_a.jpg;happy;9.0;happy_23.1ns.avi;happy;9.0;congruent;140.0;150.0;159.76384515822056;;;;;0;37;37;37;;;;;;;535.2821466999885;None;536.8150804000034;537.1318849999807;538.2736180000065;538.2901697999914;542.8400526999903;None;9;0;0.743208500003675;542.8400526999903;None;;;;;;;;7;;;;;;;544.3900203999947;None;None;None;[];544.3900203999947;None;"['9', '9']";"[0.01712720000068657, 0.7054081999813206]";544.3900203999947;None;;;S10759;2021_Jul_16_1617;VideoMask;2021.1.2;120.06978455899718;
0.0;f;030_o_f_s_a.jpg;sad;7.0;sad_64.3ns.avi;sad;7.0;congruent;130.0;160.0;172.91738127163183;;;;;0;38;38;38;;;;;;;547.3899007999862;None;549.0480813999893;549.3647567000007;550.4980238999997;550.5147842000006;555.4980212999799;None;None;0;;555.4980212999799;None;;;;;;;;4;;;;;;;557.0486583999882;None;None;None;[];557.0486583999882;None;"['7', '7']";"[0.006614799989620224, 2.1106776999949943]";557.0486583999882;None;;;S10759;2021_Jul_16_1617;VideoMask;2021.1.2;120.06978455899718;
6.0;m;016_y_m_h_a.jpg;happy;9.0;sad_114.1.wmv;sad;7.0;incongruent;120.0;160.0;196.03539454983184;;;;;0;39;39;39;;;;;;;560.0480359999929;None;561.8976930000063;562.2143748999806;563.3560768000025;563.372583599994;565.3478956999897;None;7;0;0.7075132000027224;565.3478956999897;None;;;;;;;;3;;;;;;;566.8976087000046;None;None;None;[];566.8976087000046;None;"['7', '7', '7', '7']";"[0.25371170000289567, 0.677787199994782, 1.373714299988933, 2.4535803999751806]";566.8976087000046;None;;;S10759;2021_Jul_16_1617;VideoMask;2021.1.2;120.06978455899718;
6.0;m;016_y_m_s_a.jpg;sad;7.0;sad_8.3ns.avi;sad;7.0;congruent;130.0;160.0;139.87174075953956;;;;;0;40;40;40;;;;;;;569.9060554000025;None;571.2892181999923;571.605768599984;572.7807300999993;572.7974538999842;580.4974086000002;None;7;0;0.5337959000025876;580.4974086000002;None;;;;;;;;3;;;;;;;582.0469703999988;None;None;None;[];582.0469703999988;None;"['7', '7']";"[0.43187219998799264, 1.6482493999938015]";582.0469703999988;None;;;S10759;2021_Jul_16_1617;VideoMask;2021.1.2;120.06978455899718;
7.0;m;027_o_m_s_a.jpg;sad;7.0;sad_10.4ns.avi;sad;7.0;congruent;130.0;160.0;163.89298117292617;;;;;0;41;41;41;;;;;;;585.0470572999911;None;586.5968899999862;586.9136540000036;588.038705199986;588.0553024999972;591.2135919999855;None;7;0;1.361660300026415;591.2135919999855;None;;;;;;;;4;;;;;;;592.7635271000036;None;None;None;[];592.7635271000036;None;"['7', '7']";"[1.0436773000110406, 1.8680189000151586]";592.7635271000036;None;;;S10759;2021_Jul_16_1617;VideoMask;2021.1.2;120.06978455899718;
3.0;m;013_y_m_h_a.jpg;happy;9.0;happy_9.1ns.avi;happy;9.0;congruent;140.0;150.0;128.37211756912527;;;;;0;42;42;42;;;;;;;595.7634445999865;None;597.0383117999882;597.3549660999852;598.4883512999804;598.5049575000012;601.7216825999785;None;9;0;0.46157829998992383;601.7216825999785;None;;;;;;;;8;;;;;;;603.2964435000031;None;None;None;[];603.2964435000031;None;"['9', '9', '9']";"[0.2227351000183262, 0.9187640000018291, 1.814772100013215]";603.2964435000031;None;;;S10759;2021_Jul_16_1617;VideoMask;2021.1.2;120.06978455899718;
7.0;m;027_o_m_h_a.jpg;happy;9.0;sad_117.1.wmv;sad;7.0;incongruent;120.0;160.0;163.19466748508617;;;;;0;43;43;43;;;;;;;606.3047568000038;None;607.879598200001;608.1964562000067;609.3297543999797;609.3463356999855;611.3296757999924;None;None;0;;611.3296757999924;None;;;;;;;;4;;;;;;;612.8796228999854;None;None;None;[];612.8796228999854;None;['7'];[0.37577390001388267];612.8796228999854;None;;;S10759;2021_Jul_16_1617;VideoMask;2021.1.2;120.06978455899718;
4.0;m;004_o_m_h_a.jpg;happy;9.0;sad_95.1ns.avi;sad;7.0;incongruent;120.0;160.0;162.95060606286506;;;;;0;44;44;44;;;;;;;615.888011699979;None;617.4711233999988;617.78770049999;618.9547549999843;618.971416299988;627.7125616999983;None;7;0;0.6703633000142872;627.7125616999983;None;;;;;;;;2;;;;;;;629.270762900007;None;None;None;[];629.270762900007;None;"['7', '7', '7', '7']";"[0.2805715999857057, 0.5284092999936547, 0.7362114999850746, 1.3606188999838196]";629.270762900007;None;;;S10759;2021_Jul_16_1617;VideoMask;2021.1.2;120.06978455899718;
0.0;f;040_y_f_h_a.jpg;happy;9.0;sad_128.2.wmv;sad;7.0;incongruent;120.0;160.0;121.98396994352893;;;;;0;45;45;45;;;;;;;632.2790616999846;None;633.4954735999927;633.8122884999902;634.9453610999917;634.9622719000035;636.9545843999949;None;7;0;1.1967681999958586;636.9545843999949;None;;;;;;;;3;;;;;;;638.6371334999858;None;None;None;[];638.6371334999858;None;"['7', '7']";"[0.3060575000126846, 0.7701505000004545]";638.6371334999858;None;;;S10759;2021_Jul_16_1617;VideoMask;2021.1.2;120.06978455899718;
0.0;f;040_y_f_h_a.jpg;happy;9.0;sad_138.1.wmv;sad;7.0;incongruent;120.0;160.0;195.60264978061832;;;;;0;46;46;46;;;;;;;641.6371067999862;None;643.4785410999903;643.7953273000021;644.920369600004;644.9369052999828;646.9285372000013;None;7;0;1.1985813000064809;646.9285372000013;None;;;;;;;;3;;;;;;;648.4785069999925;None;None;None;[];648.4785069999925;None;"['7', '7']";"[0.8567886000091676, 2.2327806999965105]";648.4785069999925;None;;;S10759;2021_Jul_16_1617;VideoMask;2021.1.2;120.06978455899718;
8.0;m;008_y_m_s_a.jpg;sad;7.0;happy_29.1ns.avi;happy;9.0;incongruent;130.0;150.0;212.92407054126133;;;;;0;47;47;47;;;;;;;651.4784215999825;None;653.4448924000026;653.7618922999827;654.9031103999878;654.9198248999892;657.603629899997;None;9;0;0.6119525000103749;657.603629899997;None;;;;;;;;8;;;;;;;659.4863642999844;None;None;None;[];659.4863642999844;None;"['9', '9', '9']";"[0.2568632000184152, 0.60066250001546, 2.1208646000013687]";659.4863642999844;None;;;S10759;2021_Jul_16_1617;VideoMask;2021.1.2;120.06978455899718;
0.0;f;040_y_f_h_a.jpg;happy;9.0;happy_24.3ns.avi;happy;9.0;congruent;140.0;150.0;190.23859628619445;;;;;0;48;48;48;;;;;;;662.4863658999966;None;664.2782407999912;664.5945931999886;665.8112743999809;665.8280014999909;667.6529471999966;None;9;0;0.545978499983903;667.6529471999966;None;;;;;;;;9;;;;;;;669.202871299989;None;None;None;[];669.202871299989;None;"['9', '9', '9', '9', '7']";"[0.22847560001537204, 0.5244500999979209, 0.8364848000055645, 1.6042793999949936, 2.452392700011842]";669.202871299989;None;;;S10759;2021_Jul_16_1617;VideoMask;2021.1.2;120.06978455899718;
3.0;m;033_o_m_h_a.jpg;happy;9.0;happy_24.2ns.avi;happy;9.0;congruent;140.0;150.0;127.28107088671867;;;;;0;49;49;49;;;;;;;672.2111229999864;None;673.4692589000042;673.7859925999946;674.9193494999781;674.9360364000022;678.6442884999851;None;9;0;0.5148600999964401;678.6442884999851;None;;;;;;;;9;;;;;;;680.2441874999786;None;None;None;[];680.2441874999786;None;"['9', '9', '9', '9']";"[0.1386629000189714, 0.44279550001374446, 0.7869040000077803, 1.1387411000032444]";680.2441874999786;None;;;S10759;2021_Jul_16_1617;VideoMask;2021.1.2;120.06978455899718;
9.0;f;019_m_f_s_a.jpg;sad;7.0;happy_61.1ns.avi;happy;9.0;incongruent;130.0;150.0;190.9434091532566;;;;;0;50;50;50;;;;;;;683.2525259999966;None;685.0605942999828;685.3772533999872;686.552372599981;686.5689954999834;693.9024012000009;None;None;0;;693.9024012000009;None;;;;;;;;5;;;;;;;695.4605390999932;None;None;None;[];695.4605390999932;None;None;;695.4605390999932;None;;;S10759;2021_Jul_16_1617;VideoMask;2021.1.2;120.06978455899718;
8.0;f;028_y_f_h_a.jpg;happy;9.0;sad_119.1.wmv;sad;7.0;incongruent;120.0;160.0;178.10396226647933;;;;;0;51;51;51;;;;;;;698.476900699985;None;700.1768609999854;700.4935949000064;701.6266665000003;701.6435067999992;703.6934731999936;None;7;0;1.2735384000116028;703.6934731999936;None;;;;;;;;4;;;;;;;705.2435030000051;None;None;None;[];705.2435030000051;None;['7'];[1.1152973999851383];705.2435030000051;None;;;S10759;2021_Jul_16_1617;VideoMask;2021.1.2;120.06978455899718;
3.0;m;033_o_m_h_a.jpg;happy;9.0;sad_136.1.wmv;sad;7.0;incongruent;120.0;160.0;206.04367658109783;;;;;0;52;52;52;;;;;;;708.2433711999911;None;710.1681485000008;710.4848156999797;711.6182444999868;711.6348421000002;713.6181998999964;None;7;0;1.1008528000093065;713.6181998999964;None;;;;;;;;3;;;;;;;715.168155899999;None;None;None;[];715.168155899999;None;"['7', '7']";"[0.08691899999394082, 0.4789477000012994]";715.168155899999;None;;;S10759;2021_Jul_16_1617;VideoMask;2021.1.2;120.06978455899718;
6.0;m;016_y_m_h_a.jpg;happy;9.0;happy_9.2ns.avi;happy;9.0;congruent;140.0;150.0;136.52220806776708;;;;;0;53;53;53;;;;;;;718.1680541999813;None;719.517855299986;719.8346001000027;721.001354499982;721.0185490000003;726.901082700002;None;9;0;0.41007169999647886;726.901082700002;None;;;;;;;;7;;;;;;;728.4510391999793;None;None;None;[];728.4510391999793;None;"['9', '9']";"[0.29206609999528155, 0.699860799999442]";728.4510391999793;None;;;S10759;2021_Jul_16_1617;VideoMask;2021.1.2;120.06978455899718;
9.0;f;019_m_f_h_a.jpg;happy;9.0;happy_10.1ns.avi;happy;9.0;congruent;140.0;150.0;180.35091595488527;;;;;0;54;54;54;;;;;;;731.451003299997;None;733.175942700007;733.4925157999969;734.6596969999955;734.6757212999801;742.0839206999808;None;9;0;0.6111265000072308;742.0839206999808;None;;;;;;;;6;;;;;;;743.6338306999824;None;None;None;[];743.6338306999824;None;"['9', '9', '7']";"[0.3893278999894392, 2.373273200006224, 2.9648511999985203]";743.6338306999824;None;;;S10759;2021_Jul_16_1617;VideoMask;2021.1.2;120.06978455899718;
8.0;f;028_y_f_s_a.jpg;sad;7.0;happy_122.3.wmv;happy;9.0;incongruent;130.0;150.0;204.27932588393085;;;;;0;55;55;55;;;;;;;746.6503787999973;None;748.566992499982;748.8838752000011;750.0252188000013;750.0418432999868;752.0169619999942;None;9;0;0.5099934000172652;752.0169619999942;None;;;;;;;;8;;;;;;;753.6168101999792;None;None;None;[];753.6168101999792;None;"['9', '9', '9']";"[9.933267299988074, 0.3340844000049401, 0.9662772000010591]";753.6168101999792;None;;;S10759;2021_Jul_16_1617;VideoMask;2021.1.2;120.06978455899718;
3.0;m;013_y_m_s_a.jpg;sad;7.0;sad_7.7ns.avi;sad;7.0;congruent;130.0;160.0;192.40728800739942;;;;;0;56;56;56;;;;;;;756.5918813000026;None;758.4000284999784;758.7166934999987;759.8666845999833;759.8834090000018;765.8499289999891;None;7;0;0.5330799000221305;765.8499289999891;None;;;;;;;;2;;;;;;;767.3915516999841;None;None;None;[];767.3915516999841;None;"['7', '7', '7']";"[0.30354029999580234, 0.6312877000018489, 1.7834485000057612]";767.3915516999841;None;;;S10759;2021_Jul_16_1617;VideoMask;2021.1.2;120.06978455899718;
3.0;m;013_y_m_h_a.jpg;happy;9.0;sad_113.2.wmv;sad;7.0;incongruent;120.0;160.0;219.6544115751568;;;;;0;57;57;57;;;;;;;770.391495399992;None;772.4412925999786;772.7579574999982;773.8920143999858;773.916373199987;775.8996367999935;None;7;0;0.7633895000035409;775.8996367999935;None;;;;;;;;2;;;;;;;777.4496645999898;None;None;None;[];777.4496645999898;None;"['7', '7', '7', '7', '7']";"[0.27722170000197366, 0.5893358000030275, 0.8931988000113051, 1.3575067000056151, 1.9333225000009406]";777.4496645999898;None;;;S10759;2021_Jul_16_1617;VideoMask;2021.1.2;120.06978455899718;
4.0;m;004_o_m_h_a.jpg;happy;9.0;happy_25.1ns.avi;happy;9.0;congruent;140.0;150.0;237.98255695511958;;;;;0;58;58;58;;;;;;;780.4494666999963;None;782.6327412999817;782.9492844000051;784.0833470999787;784.0996228999866;787.7743537999922;None;9;0;0.6484857000177726;787.7743537999922;None;;;;;;;;7;;;;;;;789.3325046999962;None;None;None;[];789.3325046999962;None;"['9', '9']";"[0.4106123000092339, 1.4427006999903824]";789.3325046999962;None;;;S10759;2021_Jul_16_1617;VideoMask;2021.1.2;120.06978455899718;
0.0;f;030_o_f_h_a.jpg;happy;9.0;sad_127.1.wmv;sad;7.0;incongruent;120.0;160.0;231.85538291836468;;;;;0;59;59;59;;;;;;;792.3408638999972;None;794.4905978000024;794.8073047999933;795.9407510999881;795.9578859999892;797.9406219999946;None;None;0;;797.9406219999946;None;;;;;;;;4;;;;;;;799.4907074999937;None;None;None;[];799.4907074999937;None;"['7', '7']";"[1.0280542999971658, 2.180442299984861]";799.4907074999937;None;;;S10759;2021_Jul_16_1617;VideoMask;2021.1.2;120.06978455899718;
;;;;;;;;;;;;;;;;;;;;;;;;;;;;;;;;;;;;;;;;;;;;;;;;;;;;;;;;;;;;;;;;802.4905304999847;None;;;;;;
