primePerson;primeGender;prime;primeEmotion;corrAnsPrime;target;targetEmotion;corrAnsTar;Cond;ID_Primer;ID_Target;JitterTime;Condition;example.thisRepN;example.thisTrialN;example.thisN;example.thisIndex;study.thisRepN;study.thisTrialN;study.thisN;study.thisIndex;MR_trigger_time;MR_trigger_number;text_intro.started;text_intro.stopped;text_probe.started;text_probe.stopped;polygon_ISI.started;polygon_ISI.stopped;polygon.started;polygon.stopped;primerImage.started;primerImage.stopped;response.started;response.stopped;key_resp.keys;key_resp.corr;key_resp.rt;key_resp.started;key_resp.stopped;slider_Text.started;slider_Text.stopped;slider_ex.response;slider_ex.rt;slider_ex.history;slider_ex.started;slider_ex.stopped;Rating;slider_resp_response.keys;slider_resp_response.started;slider_resp_response.stopped;slider_resp_response.rt;text_start.started;text_start.stopped;text_slider.started;text_slider.stopped;slider_stud.response;slider_stud.rt;slider_stud.history;slider_stud.started;slider_stud.stopped;slider_resp_study.keys;slider_resp_study.rt;slider_resp_study.started;slider_resp_study.stopped;text_ende.started;text_ende.stopped;participant;date;expName;psychopyVersion;frameRate;
1111;m;1111_m_m_h_a.jpg;happy;9;example_30.4ns.avi;neutral;7;incongruent;120.0;170.0;189.5874364012288;;0;0;0;0;;;;;65.37865780002903;1;65.4560168000171;67.45624400000088;67.45624400000088;None;69.4727397999959;None;71.70613569999114;72.02271130005829;73.2395114999963;73.25601350003853;77.49770680000074;None;8;0;1.0599522999254987;77.49770680000074;None;79.0558880000608;None;None;None;[];79.0558880000608;None;5;None;79.0558880000608;None;;;;;;;;;;;;;;;;;S11467;2022_May_19_1949;VideoMask;2021.1.2;119.92291352264796;
1113;f;1113_y_f_s_a.jpg;sad;7;example_30.3ns.avi;neutral;7;incongruent;130.0;170.0;229.02432995836998;;0;1;1;1;;;;;;;;;;;82.07244150002953;None;84.18045500002336;84.49706610001158;85.67224320000969;85.68897870008368;87.64739629998803;None;None;0;;87.64739629998803;None;89.20553909998853;None;None;None;[];89.20553909998853;None;7;"['9', '9']";89.20553909998853;None;"[0.27194210002198815, 0.7761214000638574]";;;;;;;;;;;;;;;;S11467;2022_May_19_1949;VideoMask;2021.1.2;119.92291352264796;
9.0;f;019_m_f_h_a.jpg;happy;9.0;sad_115.1.wmv;sad;7.0;incongruent;120.0;160.0;128.09063432376465;h_s;;;;;0;0;0;0;;;;;;;93.23873199999798;None;94.5135710000759;94.83028470003046;95.96339270006865;95.98037210002076;97.96353090007324;None;None;0;;97.96353090007324;None;;;;;;;;4;;;;;92.21378590003587;None;99.51358050003182;None;None;None;[];99.51358050003182;None;"['7', '7', '9']";"[0.29198810004163533, 1.6762017000000924, 2.68448149994947]";99.51358050003182;None;;;S11467;2022_May_19_1949;VideoMask;2021.1.2;119.92291352264796;
3.0;m;033_o_m_s_a.jpg;sad;7.0;sad_94.2ns.avi;sad;7.0;congruent;130.0;160.0;182.29120173647655;s_s;;;;;0;1;1;1;;;;;;;102.51343629998155;None;104.22149230004288;104.53823740000371;105.67156110005453;105.68836750008631;108.36340959998779;None;None;0;;108.36340959998779;None;;;;;;;;3;;;;;;;109.91304940008558;None;None;None;[];109.91304940008558;None;"['7', '7']";"[0.30897509993519634, 0.7804786999477074]";109.91304940008558;None;;;S11467;2022_May_19_1949;VideoMask;2021.1.2;119.92291352264796;
8.0;m;008_y_m_h_a.jpg;happy;9.0;happy_26.1ns.avi;happy;9.0;congruent;120.0;150.0;155.9437854594882;h_h;;;;;0;2;2;2;;;;;;;112.91304680006579;None;114.3963020000374;114.71315379999578;115.86314060003497;115.87971040001139;117.83809790003579;None;9;0;0.9675763000268489;117.83809790003579;None;;;;;;;;6;;;;;;;119.38791589997709;None;None;None;[];119.38791589997709;None;"['9', '9']";"[0.5777687999652699, 1.4820396999130026]";119.38791589997709;None;;;S11467;2022_May_19_1949;VideoMask;2021.1.2;119.92291352264796;
0.0;f;040_y_f_h_a.jpg;happy;9.0;sad_138.1.wmv;sad;7.0;incongruent;120.0;160.0;133.99071306426532;h_s;;;;;0;3;3;3;;;;;;;122.38794130005408;None;123.70434820000082;124.02110830007587;125.14616320002824;125.16268160007894;127.15433350007515;None;8;0;0.8194847999839112;127.15433350007515;None;;;;;;;;5;;;;;;;128.6959935000632;None;None;None;[];128.6959935000632;None;None;;128.6959935000632;None;;;S11467;2022_May_19_1949;VideoMask;2021.1.2;119.92291352264796;
8.0;f;028_y_f_s_a.jpg;sad;7.0;sad_64.2ns.avi;sad;7.0;congruent;130.0;160.0;229.88540597086478;s_s;;;;;0;4;4;4;;;;;;;131.72903940000106;None;133.87895350006875;134.19584210007451;135.34582470008172;135.3624722000677;146.32872530003078;None;7;0;0.8609176999889314;146.32872530003078;None;;;;;;;;4;;;;;;;147.8787292999914;None;None;None;[];147.8787292999914;None;['7'];[0.3350477999774739];147.8787292999914;None;;;S11467;2022_May_19_1949;VideoMask;2021.1.2;119.92291352264796;
7.0;m;027_o_m_s_a.jpg;sad;7.0;sad_10.4ns.avi;sad;7.0;congruent;130.0;160.0;185.20129417468752;s_s;;;;;0;5;5;5;;;;;;;150.87863520008978;None;152.62010579998605;152.93683210003655;154.12082559999544;154.14525790000334;157.2369152000174;None;9;0;0.8887807000428438;157.2369152000174;None;;;;;;;;5;;;;;;;158.78671010001563;None;None;None;[];158.78671010001563;None;None;;158.78671010001563;None;;;S11467;2022_May_19_1949;VideoMask;2021.1.2;119.92291352264796;
2.0;f;012_o_f_s_a.jpg;sad;7.0;sad_7.5ns.avi;sad;7.0;congruent;130.0;160.0;220.27842655424388;s_s;;;;;0;6;6;6;;;;;;;161.80308400001377;None;163.82810809998773;164.14484620001167;165.2872036000481;165.3198740000371;168.06977970001753;None;7;0;0.8079933000262827;168.06977970001753;None;;;;;;;;4;;;;;;;169.61972519999836;None;None;None;[];169.61972519999836;None;['7'];[0.30590889998711646];169.61972519999836;None;;;S11467;2022_May_19_1949;VideoMask;2021.1.2;119.92291352264796;
2.0;f;012_o_f_h_a.jpg;happy;9.0;happy_27.1ns.avi;happy;9.0;congruent;120.0;150.0;146.44967055810616;h_h;;;;;0;7;7;7;;;;;;;172.61965490004513;None;174.0277914000908;174.34451890003402;175.47786970005836;175.49453190003987;177.96948209998664;None;9;0;1.0441993999993429;177.96948209998664;None;;;;;;;;6;;;;;;;179.51088560000062;None;None;None;[];179.51088560000062;None;['9'];[0.4149035000009462];179.51088560000062;None;;;S11467;2022_May_19_1949;VideoMask;2021.1.2;119.92291352264796;
8.0;f;028_y_f_h_a.jpg;happy;9.0;sad_119.1.wmv;sad;7.0;incongruent;120.0;160.0;148.71526953572538;h_s;;;;;0;8;8;8;;;;;;;182.51110490004066;None;183.9524622000754;184.26920049998444;185.40259299997706;185.41924830002245;187.46918350004125;None;7;0;1.168592800037004;187.46918350004125;None;;;;;;;;4;;;;;;;189.01908019999973;None;None;None;[];189.01908019999973;None;['7'];[0.4184871999314055];189.01908019999973;None;;;S11467;2022_May_19_1949;VideoMask;2021.1.2;119.92291352264796;
6.0;m;016_y_m_s_a.jpg;sad;7.0;happy_60.4ns.avi;happy;9.0;incongruent;130.0;150.0;126.02367393611817;s_h;;;;;0;9;9;9;;;;;;;192.01910730008967;None;193.2855358000379;193.60224650008604;194.75227830000222;194.76893870008644;200.52712350001093;None;None;0;;200.52712350001093;None;;;;;;;;5;;;;;;;202.07693780004047;None;None;None;[];202.07693780004047;None;"['9', '7']";"[0.5048339000204578, 2.3207433000206947]";202.07693780004047;None;;;S11467;2022_May_19_1949;VideoMask;2021.1.2;119.92291352264796;
9.0;f;019_m_f_s_a.jpg;sad;7.0;sad_8.4ns.avi;sad;7.0;congruent;130.0;160.0;171.6633093155257;s_s;;;;;0;10;10;10;;;;;;;205.077102500014;None;206.74358530004974;207.0602168000769;208.23524359997828;208.25184849998914;216.32675980008207;None;7;0;0.5109277999727055;216.32675980008207;None;;;;;;;;4;;;;;;;217.87658380006906;None;None;None;[];217.87658380006906;None;['7'];[1.7293016000185162];217.87658380006906;None;;;S11467;2022_May_19_1949;VideoMask;2021.1.2;119.92291352264796;
4.0;m;004_o_m_h_a.jpg;happy;9.0;happy_1.1ns.avi;happy;9.0;congruent;120.0;150.0;203.50057144619865;h_h;;;;;0;11;11;11;;;;;;;220.8847118000267;None;222.84301429998595;223.15965010004584;224.30974180006888;224.3263856000267;238.79259530000854;None;7;0;0.6131907999515533;238.79259530000854;None;;;;;;;;6;;;;;;;240.36755890003406;None;None;None;[];240.36755890003406;None;['9'];[0.6541551999980584];240.36755890003406;None;;;S11467;2022_May_19_1949;VideoMask;2021.1.2;119.92291352264796;
7.0;m;027_o_m_h_a.jpg;happy;9.0;happy_20.1ns.avi;happy;9.0;congruent;120.0;150.0;152.91127178874285;h_h;;;;;0;12;12;12;;;;;;;243.3758629000513;None;244.85063690005336;245.16731769999024;246.30902390007395;246.32570290006697;249.3172374999849;None;9;0;0.36854669998865575;249.3172374999849;None;;;;;;;;7;;;;;;;250.86723089998122;None;None;None;[];250.86723089998122;None;"['9', '9', '9']";"[0.4104897999204695, 0.674309799913317, 1.77861739997752]";250.86723089998122;None;;;S11467;2022_May_19_1949;VideoMask;2021.1.2;119.92291352264796;
0.0;f;040_y_f_s_a.jpg;sad;7.0;sad_94.3ns.avi;sad;7.0;congruent;130.0;160.0;155.27414203894395;s_s;;;;;0;13;13;13;;;;;;;253.86726810003165;None;255.3586356000742;255.67527850007173;256.8253739000065;256.8420269000344;259.4338814000366;None;7;0;0.5719028000021353;259.4338814000366;None;;;;;;;;3;;;;;;;260.9835844000336;None;None;None;[];260.9835844000336;None;"['7', '7', '7']";"[0.29413679998833686, 0.6380883000092581, 1.998368600034155]";260.9835844000336;None;;;S11467;2022_May_19_1949;VideoMask;2021.1.2;119.92291352264796;
0.0;f;030_o_f_s_a.jpg;sad;7.0;sad_68.1ns.avi;sad;7.0;congruent;130.0;160.0;158.9411396037211;s_s;;;;;0;14;14;14;;;;;;;263.983450800064;None;265.5249213000061;265.8416743000271;266.9750893000746;266.99171910004225;274.39994760008994;None;7;0;0.7577177999773994;274.39994760008994;None;;;;;;;;4;;;;;;;275.9497751999879;None;None;None;[];275.9497751999879;None;['7'];[0.5441290999297053];275.9497751999879;None;;;S11467;2022_May_19_1949;VideoMask;2021.1.2;119.92291352264796;
0.0;f;030_o_f_h_a.jpg;happy;9.0;sad_127.1.wmv;sad;7.0;incongruent;120.0;160.0;180.59976631384873;h_s;;;;;0;15;15;15;;;;;;;278.94975780008826;None;280.6579890000867;280.97461160004605;282.09964240004774;282.11628600000404;284.10791520006023;None;None;0;;284.10791520006023;None;;;;;;;;4;;;;;;;285.6576482000528;None;None;None;[];285.6576482000528;None;['7'];[0.46018629998434335];285.6576482000528;None;;;S11467;2022_May_19_1949;VideoMask;2021.1.2;119.92291352264796;
8.0;m;008_y_m_s_a.jpg;sad;7.0;happy_133.3.wmv;happy;9.0;incongruent;130.0;150.0;152.577966552593;s_h;;;;;0;16;16;16;;;;;;;288.65782159997616;None;290.14088000007905;290.4576396000339;291.58267170004547;291.5992244000081;293.59090700000525;None;9;0;1.0148292999947444;293.59090700000525;None;;;;;;;;6;;;;;;;295.1408799000783;None;None;None;[];295.1408799000783;None;['9'];[0.8491164000006393];295.1408799000783;None;;;S11467;2022_May_19_1949;VideoMask;2021.1.2;119.92291352264796;
3.0;m;033_o_m_h_a.jpg;happy;9.0;sad_128.1.wmv;sad;7.0;incongruent;120.0;160.0;171.0492454518585;h_s;;;;;0;17;17;17;;;;;;;298.14920730004087;None;299.7906113000354;300.1073119000066;301.2406000000192;301.25737020000815;303.2489880999783;None;8;0;0.5807534001069143;303.2489880999783;None;;;;;;;;5;;;;;;;304.798912200029;None;None;None;[];304.798912200029;None;None;;304.798912200029;None;;;S11467;2022_May_19_1949;VideoMask;2021.1.2;119.92291352264796;
1.0;f;021_o_f_h_a.jpg;happy;9.0;sad_116.1.wmv;sad;7.0;incongruent;120.0;160.0;184.06847610053055;h_s;;;;;0;18;18;18;;;;;;;307.8321669000434;None;309.581982600037;309.89866820001043;311.0320756000001;311.0486903000856;313.0319887000369;None;7;0;1.1658027999801561;313.0319887000369;None;;;;;;;;5;;;;;;;314.58193590003066;None;None;None;[];314.58193590003066;None;"['7', '9']";"[0.3758509000763297, 1.2238459000363946]";314.58193590003066;None;;;S11467;2022_May_19_1949;VideoMask;2021.1.2;119.92291352264796;
4.0;m;004_o_m_s_a.jpg;sad;7.0;happy_28.1ns.avi;happy;9.0;incongruent;130.0;150.0;157.40741103039684;s_h;;;;;0;19;19;19;;;;;;;317.58182389999274;None;319.08997610001825;319.40671970008407;320.5647915999871;320.5816039000638;324.9316293000011;None;9;0;1.1861603999277577;324.9316293000011;None;;;;;;;;6;;;;;;;326.4815974000376;None;None;None;[];326.4815974000376;None;['9'];[0.46012609999161214];326.4815974000376;None;;;S11467;2022_May_19_1949;VideoMask;2021.1.2;119.92291352264796;
8.0;f;028_y_f_s_a.jpg;sad;7.0;happy_122.3.wmv;happy;9.0;incongruent;130.0;150.0;171.8670540936116;s_h;;;;;0;20;20;20;;;;;;;329.48143580008764;None;331.12303620006423;331.43968280008994;332.57397750008386;332.59805889998097;334.5730654000072;None;9;0;0.9686731001129374;334.5730654000072;None;;;;;;;;6;;;;;;;336.1229700000258;None;None;None;[];336.1229700000258;None;['9'];[0.8667032000375912];336.1229700000258;None;;;S11467;2022_May_19_1949;VideoMask;2021.1.2;119.92291352264796;
8.0;m;008_y_m_s_a.jpg;sad;7.0;sad_6.5ns.avi;sad;7.0;congruent;130.0;160.0;170.39333839271438;s_s;;;;;0;21;21;21;;;;;;;339.1229890000541;None;340.74763050000183;341.0644245999865;342.28104190004524;342.2977595999837;347.19755709997844;None;7;0;0.8162707999581471;347.19755709997844;None;;;;;;;;4;;;;;;;348.7476484000217;None;None;None;[];348.7476484000217;None;['7'];[0.5143305000383407];348.7476484000217;None;;;S11467;2022_May_19_1949;VideoMask;2021.1.2;119.92291352264796;
8.0;f;028_y_f_h_a.jpg;happy;9.0;happy_23.1ns.avi;happy;9.0;congruent;120.0;150.0;225.70986890587952;h_h;;;;;0;22;22;22;;;;;;;351.7476177000208;None;353.822255600011;354.13896930008195;355.27215820003767;355.28886159998365;359.8471686000703;None;9;0;0.9186076000332832;359.8471686000703;None;;;;;;;;6;;;;;;;361.39717170002405;None;None;None;[];361.39717170002405;None;['9'];[0.48869250004645437];361.39717170002405;None;;;S11467;2022_May_19_1949;VideoMask;2021.1.2;119.92291352264796;
8.0;m;008_y_m_h_a.jpg;happy;9.0;sad_111.1.wmv;sad;7.0;incongruent;120.0;160.0;152.63076835312847;h_s;;;;;0;23;23;23;;;;;;;364.3970218000468;None;365.87192800000776;366.18855890003033;367.3219920999836;367.3384712000843;369.32188830000814;None;7;0;1.123885899898596;369.32188830000814;None;;;;;;;;4;;;;;;;370.8718611000804;None;None;None;[];370.8718611000804;None;['7'];[0.9579156000399962];370.8718611000804;None;;;S11467;2022_May_19_1949;VideoMask;2021.1.2;119.92291352264796;
0.0;f;040_y_f_s_a.jpg;sad;7.0;sad_67.2ns.avi;sad;7.0;congruent;130.0;160.0;220.9892697323079;s_s;;;;;0;24;24;24;;;;;;;373.87170160003006;None;375.93006410007365;376.24653500004206;377.40505970001686;377.4216921000043;386.604822000023;None;8;0;0.7049248000839725;386.604822000023;None;;;;;;;;4;;;;;;;388.17967179999687;None;None;None;[];388.17967179999687;None;['7'];[2.2742553999414667];388.17967179999687;None;;;S11467;2022_May_19_1949;VideoMask;2021.1.2;119.92291352264796;
8.0;m;008_y_m_s_a.jpg;sad;7.0;happy_29.1ns.avi;happy;9.0;incongruent;130.0;150.0;120.0316142834122;s_h;;;;;0;25;25;25;;;;;;;391.18794960004743;None;392.3877496999921;392.70447490003426;393.8385321000824;393.86318960005883;396.52951640007086;None;9;0;0.4522598999319598;396.52951640007086;None;;;;;;;;6;;;;;;;398.0793822000269;None;None;None;[];398.0793822000269;None;['9'];[0.4066405000630766];398.0793822000269;None;;;S11467;2022_May_19_1949;VideoMask;2021.1.2;119.92291352264796;
6.0;m;016_y_m_s_a.jpg;sad;7.0;sad_8.3ns.avi;sad;7.0;congruent;130.0;160.0;152.85371098242734;s_s;;;;;0;26;26;26;;;;;;;401.0793847000459;None;402.56257180008106;402.8791513000615;404.0790119000012;404.09589290001895;411.77070780005306;None;None;0;;411.77070780005306;None;;;;;;;;5;;;;;;;413.3206489000004;None;None;None;[];413.3206489000004;None;None;;413.3206489000004;None;;;S11467;2022_May_19_1949;VideoMask;2021.1.2;119.92291352264796;
6.0;m;016_y_m_h_a.jpg;happy;9.0;sad_114.1.wmv;sad;7.0;incongruent;120.0;160.0;136.20550699298644;h_s;;;;;0;27;27;27;;;;;;;416.34529259998817;None;417.68697570008226;418.0036809000885;419.1287772000069;419.1454484000569;421.13700370001607;None;7;0;0.4046462000114843;421.13700370001607;None;;;;;;;;4;;;;;;;422.68696640001144;None;None;None;[];422.68696640001144;None;['7'];[2.758984600077383];422.68696640001144;None;;;S11467;2022_May_19_1949;VideoMask;2021.1.2;119.92291352264796;
7.0;m;027_o_m_s_a.jpg;sad;7.0;happy_117.3.wmv;happy;9.0;incongruent;130.0;150.0;215.61964028550614;s_h;;;;;0;28;28;28;;;;;;;425.68685639998876;None;427.6866625000257;428.00339900003746;429.1535300000105;429.1700738000218;431.13682420004625;None;9;0;1.1090004000579938;431.13682420004625;None;;;;;;;;5;;;;;;;432.6866427999921;None;None;None;[];432.6866427999921;None;None;;432.6866427999921;None;;;S11467;2022_May_19_1949;VideoMask;2021.1.2;119.92291352264796;
6.0;m;016_y_m_h_a.jpg;happy;9.0;happy_9.2ns.avi;happy;9.0;congruent;120.0;150.0;130.52042428082717;h_h;;;;;0;29;29;29;;;;;;;435.70317450002767;None;436.99467580008786;437.3114198000403;438.4698256000411;438.4864466000581;444.3697529999772;None;9;0;0.4360623999964446;444.3697529999772;None;;;;;;;;7;;;;;;;445.9195660999976;None;None;None;[];445.9195660999976;None;"['9', '9']";"[0.3182338000042364, 0.83841569989454]";445.9195660999976;None;;;S11467;2022_May_19_1949;VideoMask;2021.1.2;119.92291352264796;
0.0;f;040_y_f_s_a.jpg;sad;7.0;happy_127.3.wmv;happy;9.0;incongruent;130.0;150.0;131.7195455720239;s_h;;;;;0;30;30;30;;;;;;;448.92790090001654;None;450.22766790003516;450.54431580007076;451.6694502000464;451.6861120000249;453.7443127000006;None;8;0;0.645531399990432;453.7443127000006;None;;;;;;;;7;;;;;;;455.31934350007214;None;None;None;[];455.31934350007214;None;"['9', '9']";"[0.1662953000050038, 0.6305185999954119]";455.31934350007214;None;;;S11467;2022_May_19_1949;VideoMask;2021.1.2;119.92291352264796;
0.0;f;030_o_f_s_a.jpg;sad;7.0;happy_125.3.wmv;happy;9.0;incongruent;130.0;150.0;220.51454909128134;s_h;;;;;0;31;31;31;;;;;;;458.319265200058;None;460.360645800014;460.67737749998923;461.8107505000662;461.82741130003706;463.8106955999974;None;None;0;;463.8106955999974;None;;;;;;;;5;;;;;;;465.3604935000185;None;None;None;[];465.3604935000185;None;"['9', '7']";"[0.34929400007240474, 0.9652313999831676]";465.3604935000185;None;;;S11467;2022_May_19_1949;VideoMask;2021.1.2;119.92291352264796;
0.0;f;030_o_f_s_a.jpg;sad;7.0;sad_64.3ns.avi;sad;7.0;congruent;130.0;160.0;165.78667874766072;s_s;;;;;0;32;32;32;;;;;;;468.3606105999788;None;469.95200020004995;470.26873140002135;471.4021456000628;471.41881569998804;476.4021254000254;None;7;0;0.7880536000011489;476.4021254000254;None;;;;;;;;4;;;;;;;477.95187029999215;None;None;None;[];477.95187029999215;None;['7'];[0.349864499992691];477.95187029999215;None;;;S11467;2022_May_19_1949;VideoMask;2021.1.2;119.92291352264796;
3.0;m;013_y_m_s_a.jpg;sad;7.0;sad_7.7ns.avi;sad;7.0;congruent;130.0;160.0;196.24182255763262;s_s;;;;;0;33;33;33;;;;;;;480.95189340005163;None;482.79325950006023;483.11003770004027;484.2598520000465;484.2766289000865;490.2431316000875;None;7;0;1.0186257000314072;490.2431316000875;None;;;;;;;;4;;;;;;;491.793139000074;None;None;None;[];491.793139000074;None;['7'];[1.3410512000555173];491.793139000074;None;;;S11467;2022_May_19_1949;VideoMask;2021.1.2;119.92291352264796;
3.0;m;013_y_m_h_a.jpg;happy;9.0;happy_9.1ns.avi;happy;9.0;congruent;120.0;150.0;165.1890303600433;h_h;;;;;0;34;34;34;;;;;;;494.8014548000647;None;496.376183400047;496.6929320000345;497.85170990007464;497.87636960006785;501.0512400000589;None;9;0;0.4345718000549823;501.0512400000589;None;;;;;;;;5;;;;;;;502.60114230006;None;None;None;[];502.60114230006;None;None;;502.60114230006;None;;;S11467;2022_May_19_1949;VideoMask;2021.1.2;119.92291352264796;
4.0;m;004_o_m_h_a.jpg;happy;9.0;sad_95.1ns.avi;sad;7.0;incongruent;120.0;160.0;152.68270002069931;h_s;;;;;0;35;35;35;;;;;;;505.6344097000547;None;507.1341532000806;507.4509303000523;508.65086420008447;508.6679511000402;517.3757469999837;None;7;0;1.3900555000873283;517.3757469999837;None;;;;;;;;3;;;;;;;518.9256652999902;None;None;None;[];518.9256652999902;None;"['7', '7']";"[0.3281416998943314, 0.8962072998983786]";518.9256652999902;None;;;S11467;2022_May_19_1949;VideoMask;2021.1.2;119.92291352264796;
3.0;m;013_y_m_h_a.jpg;happy;9.0;sad_113.2.wmv;sad;7.0;incongruent;120.0;160.0;217.4973891947951;h_s;;;;;0;36;36;36;;;;;;;521.9340504000429;None;523.9587367000058;524.2754776000511;525.4005287999753;525.417109400034;527.4087202000665;None;None;0;;527.4087202000665;None;;;;;;;;4;;;;;;;528.9587330999784;None;None;None;[];528.9587330999784;None;['7'];[0.04724090010859072];528.9587330999784;None;;;S11467;2022_May_19_1949;VideoMask;2021.1.2;119.92291352264796;
4.0;m;004_o_m_h_a.jpg;happy;9.0;happy_25.1ns.avi;happy;9.0;congruent;120.0;150.0;216.63044503818386;h_h;;;;;0;37;37;37;;;;;;;531.9670139000518;None;533.9751270000124;534.2917490000837;535.4417590000667;535.4584795000264;539.1167035000399;None;9;0;0.43314370000734925;539.1167035000399;None;;;;;;;;6;;;;;;;540.6916577999946;None;None;None;[];540.6916577999946;None;"['9', '7']";"[0.6743246999103576, 2.394208199926652]";540.6916577999946;None;;;S11467;2022_May_19_1949;VideoMask;2021.1.2;119.92291352264796;
4.0;m;004_o_m_s_a.jpg;sad;7.0;happy_131.2.wmv;happy;9.0;incongruent;130.0;150.0;181.38407540847405;s_h;;;;;0;38;38;38;;;;;;;543.6915311000776;None;545.4080539999995;545.7246331999777;546.8663905999856;546.8914408000419;548.8580513000488;None;9;0;0.6517389999935403;548.8580513000488;None;;;;;;;;6;;;;;;;550.4080494000809;None;None;None;[];550.4080494000809;None;['9'];[1.221802999963984];550.4080494000809;None;;;S11467;2022_May_19_1949;VideoMask;2021.1.2;119.92291352264796;
0.0;f;040_y_f_h_a.jpg;happy;9.0;happy_24.3ns.avi;happy;9.0;congruent;120.0;150.0;213.25460698950434;h_h;;;;;0;39;39;39;;;;;;;553.4079057000345;None;555.3744062000187;555.6911229999969;556.8577191000804;556.8748333000112;558.7494973000139;None;9;0;0.6802102000219747;558.7494973000139;None;;;;;;;;5;;;;;;;560.2993534000125;None;None;None;[];560.2993534000125;None;None;;560.2993534000125;None;;;S11467;2022_May_19_1949;VideoMask;2021.1.2;119.92291352264796;
2.0;f;012_o_f_s_a.jpg;sad;7.0;happy_139.1.wmv;happy;9.0;incongruent;130.0;150.0;162.31500468041804;s_h;;;;;0;40;40;40;;;;;;;563.3326373000164;None;564.8824195000343;565.1992212000769;566.3325257999822;566.3491851000581;568.3324542000191;None;9;0;1.3613369000377133;568.3324542000191;None;;;;;;;;6;;;;;;;569.8823662999785;None;None;None;[];569.8823662999785;None;['9'];[0.5394072999479249];569.8823662999785;None;;;S11467;2022_May_19_1949;VideoMask;2021.1.2;119.92291352264796;
0.0;f;030_o_f_h_a.jpg;happy;9.0;happy_24.1ns.avi;happy;9.0;congruent;120.0;150.0;168.36256624020774;h_h;;;;;0;41;41;41;;;;;;;572.8824575000908;None;574.4821268999949;574.7989463000558;575.9404674000107;575.9572752000531;579.2572332000127;None;9;0;0.7726676999591291;579.2572332000127;None;;;;;;;;7;;;;;;;580.8070875999983;None;None;None;[];580.8070875999983;None;"['9', '9']";"[0.43087979999836534, 1.3748682999284938]";580.8070875999983;None;;;S11467;2022_May_19_1949;VideoMask;2021.1.2;119.92291352264796;
2.0;f;012_o_f_h_a.jpg;happy;9.0;sad_113.1.wmv;sad;7.0;incongruent;120.0;160.0;177.44551734737394;h_s;;;;;0;42;42;42;;;;;;;583.8069473999785;None;585.490118100075;585.8068624000298;586.9485183000797;586.965046999976;588.94015759998;None;None;0;;588.94015759998;None;;;;;;;;4;;;;;;;590.4816825999878;None;None;None;[];590.4816825999878;None;"['7', '7']";"[0.6201842000009492, 2.948170999996364]";590.4816825999878;None;;;S11467;2022_May_19_1949;VideoMask;2021.1.2;119.92291352264796;
3.0;m;033_o_m_s_a.jpg;sad;7.0;sad_64.5ns.avi;sad;7.0;congruent;130.0;160.0;130.55717223801247;s_s;;;;;0;43;43;43;;;;;;;593.4983513000188;None;594.7898458000273;595.1064828999806;596.2316298000515;596.2482786000473;602.8314107999904;None;7;0;0.9423609999939799;602.8314107999904;None;;;;;;;;3;;;;;;;604.3813435999909;None;None;None;[];604.3813435999909;None;"['7', '7']";"[0.9285798999480903, 1.328516999958083]";604.3813435999909;None;;;S11467;2022_May_19_1949;VideoMask;2021.1.2;119.92291352264796;
7.0;m;027_o_m_h_a.jpg;happy;9.0;sad_117.1.wmv;sad;7.0;incongruent;120.0;160.0;181.28665202824095;h_s;;;;;0;44;44;44;;;;;;;607.3812950000865;None;609.1062171000522;609.422764100018;610.5562290999806;610.5728204000043;612.556110400008;None;8;0;1.2657389999367297;612.556110400008;None;;;;;;;;4;;;;;;;614.1060803000582;None;None;None;[];614.1060803000582;None;['7'];[1.1877734999870881];614.1060803000582;None;;;S11467;2022_May_19_1949;VideoMask;2021.1.2;119.92291352264796;
3.0;m;033_o_m_s_a.jpg;sad;7.0;happy_126.3.wmv;happy;9.0;incongruent;130.0;150.0;198.85252030535366;s_h;;;;;0;45;45;45;;;;;;;617.1143302000128;None;618.9724376000231;619.2891652000835;620.430654100026;620.4474704000168;622.4224134000251;None;None;0;;622.4224134000251;None;;;;;;;;5;;;;;;;623.9722198999953;None;None;None;[];623.9722198999953;None;"['9', '7']";"[0.6577728000702336, 1.3137044000905007]";623.9722198999953;None;;;S11467;2022_May_19_1949;VideoMask;2021.1.2;119.92291352264796;
3.0;m;033_o_m_h_a.jpg;happy;9.0;sad_136.1.wmv;sad;7.0;incongruent;120.0;160.0;176.97002883463455;h_s;;;;;0;46;46;46;;;;;;;626.9723881999962;None;628.647156400024;628.9638337000506;630.0890108000021;630.1054746999871;632.0972321000881;None;8;0;0.40470680000726134;632.0972321000881;None;;;;;;;;5;;;;;;;633.6387307000114;None;None;None;[];633.6387307000114;None;None;;633.6387307000114;None;;;S11467;2022_May_19_1949;VideoMask;2021.1.2;119.92291352264796;
9.0;f;019_m_f_h_a.jpg;happy;9.0;happy_10.1ns.avi;happy;9.0;congruent;120.0;150.0;157.2463435658512;h_h;;;;;0;47;47;47;;;;;;;636.6635580000002;None;638.188514700043;638.5052438999992;639.6469887000276;639.6635354000609;647.088432700024;None;9;0;0.9254420000361279;647.088432700024;None;;;;;;;;6;;;;;;;648.6383633000078;None;None;None;[];648.6383633000078;None;['9'];[0.2315417000791058];648.6383633000078;None;;;S11467;2022_May_19_1949;VideoMask;2021.1.2;119.92291352264796;
2.0;f;012_o_f_h_a.jpg;happy;9.0;happy_2.2ns.avi;happy;9.0;congruent;120.0;150.0;206.34800317295262;h_h;;;;;0;48;48;48;;;;;;;651.6382696999935;None;653.5965213000309;653.913063300075;655.0465696000028;655.0631443000166;667.2545661000768;None;9;0;1.4554894999600947;667.2545661000768;None;;;;;;;;5;;;;;;;668.8044528000755;None;None;None;[];668.8044528000755;None;"['9', '7']";"[1.8498456999659538, 2.2577708000317216]";668.8044528000755;None;;;S11467;2022_May_19_1949;VideoMask;2021.1.2;119.92291352264796;
3.0;m;033_o_m_h_a.jpg;happy;9.0;happy_24.2ns.avi;happy;9.0;congruent;120.0;150.0;167.9423847659953;h_h;;;;;0;49;49;49;;;;;;;671.8043686000165;None;673.3956741000293;673.7123681000667;674.8374172000913;674.8540425000247;678.5707404999994;None;9;0;0.46717979991808534;678.5707404999994;None;;;;;;;;5;;;;;;;680.1207122000633;None;None;None;[];680.1207122000633;None;"['9', '7']";"[1.1572062000632286, 1.77332729997579]";680.1207122000633;None;;;S11467;2022_May_19_1949;VideoMask;2021.1.2;119.92291352264796;
1.0;f;021_o_f_s_a.jpg;sad;7.0;happy_61.2ns.avi;happy;9.0;incongruent;130.0;150.0;210.94664004826666;s_h;;;;;0;50;50;50;;;;;;;683.1207221000222;None;685.0703276999993;685.3870542000514;686.5537875000155;686.5704840000253;691.0454101000214;None;9;0;1.3045785001013428;691.0454101000214;None;;;;;;;;6;;;;;;;692.5953208000865;None;None;None;[];692.5953208000865;None;['9'];[0.48268289992120117];692.5953208000865;None;;;S11467;2022_May_19_1949;VideoMask;2021.1.2;119.92291352264796;
4.0;m;004_o_m_s_a.jpg;sad;7.0;sad_2.4ns.avi;sad;7.0;congruent;130.0;160.0;153.02079367163634;s_s;;;;;0;51;51;51;;;;;;;695.5952274000738;None;697.0950701000402;697.4117276000325;698.5705409999937;698.5870377999963;706.5033375000348;None;7;0;1.030559099977836;706.5033375000348;None;;;;;;;;5;;;;;;;708.1114997999975;None;None;None;[];708.1114997999975;None;['7'];[0.7263382999226451];708.1114997999975;None;;;S11467;2022_May_19_1949;VideoMask;2021.1.2;119.92291352264796;
8.0;m;008_y_m_h_a.jpg;happy;9.0;happy_1.2ns.avi;happy;9.0;congruent;120.0;150.0;210.98946429383824;h_h;;;;;0;52;52;52;;;;;;;711.1115316000069;None;713.1113590000896;713.4280010000803;714.5696445000358;714.5863369000144;727.3526864000596;None;None;0;;727.3526864000596;None;;;;;;;;6;;;;;;;728.9025647999952;None;None;None;[];728.9025647999952;None;['9'];[0.0874201999977231];728.9025647999952;None;;;S11467;2022_May_19_1949;VideoMask;2021.1.2;119.92291352264796;
2.0;f;012_o_f_s_a.jpg;sad;7.0;happy_52.2ns.avi;happy;9.0;incongruent;130.0;150.0;172.57202848318138;s_h;;;;;0;53;53;53;;;;;;;731.9109398000874;None;733.5272181000328;733.8439645000035;735.0026846000692;735.0190653000027;738.5273976000026;None;9;0;0.8305386999854818;738.5273976000026;None;;;;;;;;5;;;;;;;740.0772215999896;None;None;None;[];740.0772215999896;None;None;;740.0772215999896;None;;;S11467;2022_May_19_1949;VideoMask;2021.1.2;119.92291352264796;
9.0;f;019_m_f_s_a.jpg;sad;7.0;happy_61.1ns.avi;happy;9.0;incongruent;130.0;150.0;181.3003220572762;s_h;;;;;0;54;54;54;;;;;;;743.0935715000378;None;744.8270864000078;745.1435795000289;746.2857277999865;746.3103440999985;753.6685191000579;None;9;0;0.729366899933666;753.6685191000579;None;;;;;;;;6;;;;;;;755.2266195000848;None;None;None;[];755.2266195000848;None;['9'];[1.0513327999506146];755.2266195000848;None;;;S11467;2022_May_19_1949;VideoMask;2021.1.2;119.92291352264796;
0.0;f;030_o_f_h_a.jpg;happy;9.0;sad_133.1.wmv;sad;7.0;incongruent;120.0;160.0;198.86251500867985;h_s;;;;;0;55;55;55;;;;;;;758.2265499000205;None;760.1013989000348;760.4181160000153;761.5432638999773;761.5598904000362;763.5599064000417;None;7;0;0.4619191000238061;763.5599064000417;None;;;;;;;;5;;;;;;;765.1097688000882;None;None;None;[];765.1097688000882;None;None;;765.1097688000882;None;;;S11467;2022_May_19_1949;VideoMask;2021.1.2;119.92291352264796;
0.0;f;040_y_f_h_a.jpg;happy;9.0;sad_128.2.wmv;sad;7.0;incongruent;120.0;160.0;206.10005857915363;h_s;;;;;0;56;56;56;;;;;;;768.1429725000635;None;770.0678093000315;770.3845297000371;771.5267547999974;771.5593793999869;773.526846599998;None;None;0;;773.526846599998;None;;;;;;;;4;;;;;;;775.2678060000762;None;None;None;[];775.2678060000762;None;['7'];[0.03412029996979982];775.2678060000762;None;;;S11467;2022_May_19_1949;VideoMask;2021.1.2;119.92291352264796;
1.0;f;021_o_f_s_a.jpg;sad;7.0;sad_9.5ns.avi;sad;7.0;congruent;130.0;160.0;206.16642757875042;s_s;;;;;0;57;57;57;;;;;;;778.2761169000296;None;780.2007756000385;780.5175480000908;781.7679927999852;781.7924272000091;787.375725400052;None;7;0;0.3822216000407934;787.375725400052;None;;;;;;;;4;;;;;;;788.9507043000776;None;None;None;[];788.9507043000776;None;"['7', '7', '9']";"[0.48716160003095865, 0.975213099969551, 1.8233291000360623]";788.9507043000776;None;;;S11467;2022_May_19_1949;VideoMask;2021.1.2;119.92291352264796;
1.0;f;021_o_f_h_a.jpg;happy;9.0;happy_12.1ns.avi;happy;9.0;congruent;120.0;150.0;132.59080005900228;h_h;;;;;0;58;58;58;;;;;;;791.9590247999877;None;793.2920344000449;793.6088110000128;794.8086233000504;794.8252839000197;802.3586890000151;None;9;0;0.6476275000022724;802.3586890000151;None;;;;;;;;6;;;;;;;803.9002277000109;None;None;None;[];803.9002277000109;None;['9'];[0.537791799986735];803.9002277000109;None;;;S11467;2022_May_19_1949;VideoMask;2021.1.2;119.92291352264796;
3.0;m;013_y_m_s_a.jpg;sad;7.0;happy_56.2ns.avi;happy;9.0;incongruent;130.0;150.0;163.39234110935848;s_h;;;;;0;59;59;59;;;;;;;806.9084667999996;None;808.4749832000816;808.7917357999831;809.95829650003;809.9749095999869;814.9499901999952;None;9;0;0.6160545999882743;814.9499901999952;None;;;;;;;;6;;;;;;;816.4998576000798;None;None;None;[];816.4998576000798;None;"['9', '9']";"[0.6020441999426112, 2.0902566999429837]";816.4998576000798;None;;;S11467;2022_May_19_1949;VideoMask;2021.1.2;119.92291352264796;
;;;;;;;;;;;;;;;;;;;;;;;;;;;;;;;;;;;;;;;;;;;;;;;;;;;;;;;;;;;;;;;;;819.499873700086;None;;;;;;
