primePerson;primeGender;prime;primeEmotion;corrAnsPrime;target;targetEmotion;corrAnsTar;Cond;ID_Primer;ID_Target;JitterTime;Condition;example.thisRepN;example.thisTrialN;example.thisN;example.thisIndex;study.thisRepN;study.thisTrialN;study.thisN;study.thisIndex;MR_trigger_time;MR_trigger_number;text_intro.started;text_intro.stopped;text_probe.started;text_probe.stopped;polygon_ISI.started;polygon_ISI.stopped;polygon.started;polygon.stopped;primerImage.started;primerImage.stopped;response.started;response.stopped;key_resp.keys;key_resp.corr;key_resp.rt;key_resp.started;key_resp.stopped;slider_Text.started;slider_Text.stopped;slider_ex.response;slider_ex.rt;slider_ex.history;slider_ex.started;slider_ex.stopped;Rating;slider_resp_response.keys;slider_resp_response.started;slider_resp_response.stopped;slider_resp_response.rt;text_start.started;text_start.stopped;text_slider.started;text_slider.stopped;slider_stud.response;slider_stud.rt;slider_stud.history;slider_stud.started;slider_stud.stopped;slider_resp_study.keys;slider_resp_study.started;slider_resp_study.stopped;slider_resp_study.rt;text_ende.started;text_ende.stopped;participant;date;expName;psychopyVersion;frameRate;
1111;m;1111_m_m_h_a.jpg;happy;9;example_30.4ns.avi;neutral;7;incongruent;120.0;170.0;189.5874364012288;;0;0;0;0;;;;;149.56361179985106;1;149.6411402998492;151.64113219990395;151.64113219990395;None;153.65763449994847;None;155.87421029992402;156.19084409996867;157.35750829987228;157.37425519991666;161.66577670001425;None;8;0;1.1504665000829846;161.66577670001425;None;163.22445710003376;None;None;None;[];163.22445710003376;None;5;None;163.22445710003376;None;;;;;;;;;;;;;;;;;S11335;2022_Mar_30_2123;VideoMask;2021.1.2;119.97010327848136;
1113;f;1113_y_f_s_a.jpg;sad;7;example_30.3ns.avi;neutral;7;incongruent;130.0;170.0;229.02432995836998;;0;1;1;1;;;;;;;;;;;166.24063779995777;None;168.34878539992496;168.6655301998835;169.84887910005637;169.8653662998695;171.79884819989093;None;9;0;1.2811877001076937;171.79884819989093;None;173.34878819994628;None;None;None;[];173.34878819994628;None;7;"['9', '9']";173.34878819994628;None;"[0.4751070998609066, 1.5792761000338942]";;;;;;;;;;;;;;;;S11335;2022_Mar_30_2123;VideoMask;2021.1.2;119.97010327848136;
9.0;f;019_m_f_h_a.jpg;happy;9.0;sad_115.1.wmv;sad;7.0;incongruent;120.0;160.0;128.09063432376465;h_s;;;;;0;0;0;0;;;;;;;177.38203669991344;None;178.6567844999954;178.97345819999464;180.10669459984638;180.13188560004346;182.10682499990799;None;None;0;;182.10682499990799;None;;;;;;;;5;;;;;176.34862469998188;None;183.65654239989817;None;None;None;[];183.65654239989817;None;None;183.65654239989817;None;;;;S11335;2022_Mar_30_2123;VideoMask;2021.1.2;119.97010327848136;
3.0;m;033_o_m_s_a.jpg;sad;7.0;sad_94.2ns.avi;sad;7.0;congruent;130.0;160.0;182.29120173647655;s_s;;;;;0;1;1;1;;;;;;;186.69009179994464;None;188.40642439993098;188.7231816998683;189.85662329988554;189.87318750005215;192.54822340002283;None;7;0;1.5483774000313133;192.54822340002283;None;;;;;;;;3;;;;;;;194.33140349993482;None;None;None;[];194.33140349993482;None;"['7', '7', '7']";194.33140349993482;None;"[0.6845867000520229, 1.2444788999855518, 1.5964621000457555]";;;S11335;2022_Mar_30_2123;VideoMask;2021.1.2;119.97010327848136;
8.0;m;008_y_m_h_a.jpg;happy;9.0;happy_26.1ns.avi;happy;9.0;congruent;120.0;150.0;155.9437854594882;h_h;;;;;0;2;2;2;;;;;;;197.3397685000673;None;198.83123250002973;199.14786459994502;200.31456870003603;200.33119819988497;202.27277090004645;None;8;0;0.7112308000214398;202.27277090004645;None;;;;;;;;5;;;;;;;203.8227325999178;None;None;None;[];203.8227325999178;None;None;203.8227325999178;None;;;;S11335;2022_Mar_30_2123;VideoMask;2021.1.2;119.97010327848136;
0.0;f;040_y_f_h_a.jpg;happy;9.0;sad_138.1.wmv;sad;7.0;incongruent;120.0;160.0;133.99071306426532;h_s;;;;;0;3;3;3;;;;;;;206.8392101000063;None;208.16420280002058;208.4809025998693;209.60595089988783;209.622550399974;211.61412260006182;None;None;0;;211.61412260006182;None;;;;;;;;2;;;;;;;213.16405120003037;None;None;None;[];213.16405120003037;None;"['7', '7', '7', '7']";213.16405120003037;None;"[0.315932699944824, 0.6358262000139803, 0.8998400999698788, 1.3639234998263419]";;;S11335;2022_Mar_30_2123;VideoMask;2021.1.2;119.97010327848136;
8.0;f;028_y_f_s_a.jpg;sad;7.0;sad_64.2ns.avi;sad;7.0;congruent;130.0;160.0;229.88540597086478;s_s;;;;;0;4;4;4;;;;;;;216.17244479991496;None;218.31375139998272;218.63056139997207;219.78062269999646;219.79731939989142;230.7635470998939;None;7;0;1.0123250999022275;230.7635470998939;None;;;;;;;;3;;;;;;;232.37186579988338;None;None;None;[];232.37186579988338;None;"['7', '7']";232.37186579988338;None;"[0.42809069994837046, 0.8040221999399364]";;;S11335;2022_Mar_30_2123;VideoMask;2021.1.2;119.97010327848136;
7.0;m;027_o_m_s_a.jpg;sad;7.0;sad_10.4ns.avi;sad;7.0;congruent;130.0;160.0;185.20129417468752;s_s;;;;;0;5;5;5;;;;;;;235.38026129989885;None;237.12160089984536;237.43824839987792;238.62205079989508;238.6466989000328;241.73837989987805;None;7;0;1.1896246999967843;241.73837989987805;None;;;;;;;;3;;;;;;;243.29656509985216;None;None;None;[];243.29656509985216;None;"['7', '7', '7', '7']";243.29656509985216;None;"[0.5352646999526769, 0.8072663999628276, 1.319401399930939, 1.6554201999679208]";;;S11335;2022_Mar_30_2123;VideoMask;2021.1.2;119.97010327848136;
2.0;f;012_o_f_s_a.jpg;sad;7.0;sad_7.5ns.avi;sad;7.0;congruent;130.0;160.0;220.27842655424388;s_s;;;;;0;6;6;6;;;;;;;246.29653290007263;None;248.3212760000024;248.63801719993353;249.85461929999292;249.87131049996242;252.56308740004897;None;7;0;0.49298590002581477;252.56308740004897;None;;;;;;;;4;;;;;;;254.12119510001503;None;None;None;[];254.12119510001503;None;['7'];254.12119510001503;None;[1.6626772000454366];;;S11335;2022_Mar_30_2123;VideoMask;2021.1.2;119.97010327848136;
2.0;f;012_o_f_h_a.jpg;happy;9.0;happy_27.1ns.avi;happy;9.0;congruent;120.0;150.0;146.44967055810616;h_h;;;;;0;7;7;7;;;;;;;257.1210777000524;None;258.5376337999478;258.8542702998966;260.02100900001824;260.0376657000743;262.47929499996826;None;9;0;1.48079470009543;262.47929499996826;None;;;;;;;;6;;;;;;;264.02898829989135;None;None;None;[];264.02898829989135;None;['9'];264.02898829989135;None;[0.4510119000915438];;;S11335;2022_Mar_30_2123;VideoMask;2021.1.2;119.97010327848136;
8.0;f;028_y_f_h_a.jpg;happy;9.0;sad_119.1.wmv;sad;7.0;incongruent;120.0;160.0;148.71526953572538;h_s;;;;;0;8;8;8;;;;;;;267.0375212999061;None;268.47891629999503;268.7956596999429;269.93733430001885;269.95395460003056;272.0124863998499;None;8;0;0.4434498001355678;272.0124863998499;None;;;;;;;;5;;;;;;;273.57058689999394;None;None;None;[];273.57058689999394;None;None;273.57058689999394;None;;;;S11335;2022_Mar_30_2123;VideoMask;2021.1.2;119.97010327848136;
6.0;m;016_y_m_s_a.jpg;sad;7.0;happy_60.4ns.avi;happy;9.0;incongruent;130.0;150.0;126.02367393611817;s_h;;;;;0;9;9;9;;;;;;;276.595232399879;None;277.8536936000455;278.17039310000837;279.3537653000094;279.37042189994827;285.0952691999264;None;9;0;0.8246177998371422;285.0952691999264;None;;;;;;;;8;;;;;;;286.64506229991093;None;None;None;[];286.64506229991093;None;"['9', '9', '9']";286.64506229991093;None;"[0.37090950016863644, 0.5947632000315934, 0.7787519001867622]";;;S11335;2022_Mar_30_2123;VideoMask;2021.1.2;119.97010327848136;
9.0;f;019_m_f_s_a.jpg;sad;7.0;sad_8.4ns.avi;sad;7.0;congruent;130.0;160.0;171.6633093155257;s_s;;;;;0;10;10;10;;;;;;;289.6451697999146;None;291.30334250000305;291.61999349994585;292.76165809994563;292.778324799845;300.88653849996626;None;None;0;;300.88653849996626;None;;;;;;;;4;;;;;;;302.4363780999556;None;None;None;[];302.4363780999556;None;"['7', '7', '9']";302.4363780999556;None;"[0.08369629993103445, 0.7794996998272836, 1.4195110998116434]";;;S11335;2022_Mar_30_2123;VideoMask;2021.1.2;119.97010327848136;
4.0;m;004_o_m_h_a.jpg;happy;9.0;happy_1.1ns.avi;happy;9.0;congruent;120.0;150.0;203.50057144619865;h_h;;;;;0;11;11;11;;;;;;;305.4364403998479;None;307.39433009992354;307.71107760001905;308.8611190998927;308.87786909984425;323.3273392999545;None;9;0;0.8565085998270661;323.3273392999545;None;;;;;;;;7;;;;;;;324.87727149995044;None;None;None;[];324.87727149995044;None;"['9', '9', '9', '9']";324.87727149995044;None;"[0.8025218998081982, 1.2106645999010652, 1.6668650000356138, 2.2746090998407453]";;;S11335;2022_Mar_30_2123;VideoMask;2021.1.2;119.97010327848136;
7.0;m;027_o_m_h_a.jpg;happy;9.0;happy_20.1ns.avi;happy;9.0;congruent;120.0;150.0;152.91127178874285;h_h;;;;;0;12;12;12;;;;;;;327.8772588998545;None;329.3688298999332;329.6852996998932;330.8771881998982;330.8944452998694;333.835341299884;None;9;0;0.5088037999812514;333.835341299884;None;;;;;;;;7;;;;;;;335.3852329000365;None;None;None;[];335.3852329000365;None;"['9', '9']";335.3852329000365;None;"[0.33500479999929667, 0.6067547001875937]";;;S11335;2022_Mar_30_2123;VideoMask;2021.1.2;119.97010327848136;
0.0;f;040_y_f_s_a.jpg;sad;7.0;sad_94.3ns.avi;sad;7.0;congruent;130.0;160.0;155.27414203894395;s_s;;;;;0;13;13;13;;;;;;;338.3853082000278;None;339.8683936998714;340.18507579993457;341.34328749985434;341.36009279987775;343.9433289000299;None;None;0;;343.9433289000299;None;;;;;;;;5;;;;;;;345.49312680005096;None;None;None;[];345.49312680005096;None;None;345.49312680005096;None;;;;S11335;2022_Mar_30_2123;VideoMask;2021.1.2;119.97010327848136;
0.0;f;030_o_f_s_a.jpg;sad;7.0;sad_68.1ns.avi;sad;7.0;congruent;130.0;160.0;158.9411396037211;s_s;;;;;0;14;14;14;;;;;;;348.5182894000318;None;350.05985299986787;350.37641919986345;351.55959149985574;351.5762374000624;358.93456179997884;None;7;0;0.9372820002026856;358.93456179997884;None;;;;;;;;2;;;;;;;360.4844603999518;None;None;None;[];360.4844603999518;None;"['7', '7', '7', '7']";360.4844603999518;None;"[0.41144849988631904, 0.6512173998635262, 0.883255299879238, 1.3313823000062257]";;;S11335;2022_Mar_30_2123;VideoMask;2021.1.2;119.97010327848136;
0.0;f;030_o_f_h_a.jpg;happy;9.0;sad_127.1.wmv;sad;7.0;incongruent;120.0;160.0;180.59976631384873;h_s;;;;;0;15;15;15;;;;;;;363.49295350001194;None;365.20925539988093;365.5259471000172;366.6510485999752;366.6676278000232;368.65923239989206;None;8;0;1.0846639999654144;368.65923239989206;None;;;;;;;;5;;;;;;;370.2092176999431;None;None;None;[];370.2092176999431;None;None;370.2092176999431;None;;;;S11335;2022_Mar_30_2123;VideoMask;2021.1.2;119.97010327848136;
8.0;m;008_y_m_s_a.jpg;sad;7.0;happy_133.3.wmv;happy;9.0;incongruent;130.0;150.0;152.577966552593;s_h;;;;;0;16;16;16;;;;;;;373.23389729997143;None;374.7173418998718;375.0339887998998;376.16737119993195;376.1837905999273;378.1672894998919;None;9;0;0.8326435000635684;378.1672894998919;None;;;;;;;;8;;;;;;;379.717232799856;None;None;None;[];379.717232799856;None;"['9', '9', '9']";379.717232799856;None;"[0.2670898998621851, 0.5065566999837756, 0.6988284999970347]";;;S11335;2022_Mar_30_2123;VideoMask;2021.1.2;119.97010327848136;
3.0;m;033_o_m_h_a.jpg;happy;9.0;sad_128.1.wmv;sad;7.0;incongruent;120.0;160.0;171.0492454518585;h_s;;;;;0;17;17;17;;;;;;;382.71725309989415;None;384.3586701999884;384.675334099913;385.80855660000816;385.82531709992327;387.8087470999453;None;7;0;0.8552075000479817;387.8087470999453;None;;;;;;;;3;;;;;;;389.3668303999584;None;None;None;[];389.3668303999584;None;"['7', '7']";389.3668303999584;None;"[0.4488570000976324, 0.8969938999507576]";;;S11335;2022_Mar_30_2123;VideoMask;2021.1.2;119.97010327848136;
1.0;f;021_o_f_h_a.jpg;happy;9.0;sad_116.1.wmv;sad;7.0;incongruent;120.0;160.0;184.06847610053055;h_s;;;;;0;18;18;18;;;;;;;392.3751467000693;None;394.12506920006126;394.44164439989254;395.60894949990325;395.63342159986496;397.57494149985723;None;8;0;0.8412377999629825;397.57494149985723;None;;;;;;;;5;;;;;;;399.12492139986716;None;None;None;[];399.12492139986716;None;None;399.12492139986716;None;;;;S11335;2022_Mar_30_2123;VideoMask;2021.1.2;119.97010327848136;
4.0;m;004_o_m_s_a.jpg;sad;7.0;happy_28.1ns.avi;happy;9.0;incongruent;130.0;150.0;157.40741103039684;s_h;;;;;0;19;19;19;;;;;;;402.158014500048;None;403.6746678999625;403.99139719991945;405.1662188998889;405.19141540001146;409.5163258998655;None;9;0;0.48378219990991056;409.5163258998655;None;;;;;;;;9;;;;;;;411.0745856000576;None;None;None;[];411.0745856000576;None;"['9', '9', '9', '9']";411.0745856000576;None;"[0.4052248999942094, 0.8371454998850822, 1.0210794999729842, 1.2211982998996973]";;;S11335;2022_Mar_30_2123;VideoMask;2021.1.2;119.97010327848136;
8.0;f;028_y_f_s_a.jpg;sad;7.0;happy_122.3.wmv;happy;9.0;incongruent;130.0;150.0;171.8670540936116;s_h;;;;;0;20;20;20;;;;;;;414.0829886998981;None;415.72438309993595;416.0410708999261;417.1744106998667;417.19108400004916;419.1827791000251;None;9;0;0.6253593999426812;419.1827791000251;None;;;;;;;;8;;;;;;;420.7409436998423;None;None;None;[];420.7409436998423;None;"['9', '9', '9']";420.7409436998423;None;"[0.2990455999970436, 0.5148537999484688, 0.6990571999922395]";;;S11335;2022_Mar_30_2123;VideoMask;2021.1.2;119.97010327848136;
8.0;m;008_y_m_s_a.jpg;sad;7.0;sad_6.5ns.avi;sad;7.0;congruent;130.0;160.0;170.39333839271438;s_s;;;;;0;21;21;21;;;;;;;423.74919679993764;None;425.38250109995715;425.69905789988115;426.8740566999186;426.8907216999214;431.8322898999322;None;7;0;1.3835603001061827;431.8322898999322;None;;;;;;;;3;;;;;;;433.3822071000468;None;None;None;[];433.3822071000468;None;"['7', '7']";433.3822071000468;None;"[0.3937062001787126, 0.6175316001754254]";;;S11335;2022_Mar_30_2123;VideoMask;2021.1.2;119.97010327848136;
8.0;f;028_y_f_h_a.jpg;happy;9.0;happy_23.1ns.avi;happy;9.0;congruent;120.0;150.0;225.70986890587952;h_h;;;;;0;22;22;22;;;;;;;436.38222009991296;None;438.46524649998173;438.7820431999862;439.9485235000029;439.96520269988105;444.49023630004376;None;9;0;0.4935838000383228;444.49023630004376;None;;;;;;;;9;;;;;;;446.3984423999209;None;None;None;[];446.3984423999209;None;"['9', '9', '9', '9']";446.3984423999209;None;"[0.34543119999580085, 0.5613053999841213, 0.7533065001480281, 0.9293226001318544]";;;S11335;2022_Mar_30_2123;VideoMask;2021.1.2;119.97010327848136;
8.0;m;008_y_m_h_a.jpg;happy;9.0;sad_111.1.wmv;sad;7.0;incongruent;120.0;160.0;152.63076835312847;h_s;;;;;0;23;23;23;;;;;;;449.398428699933;None;450.87321359990165;451.1898600999266;452.3314362000674;452.34819269995205;454.34000219986774;None;7;0;0.9318873998709023;454.34000219986774;None;;;;;;;;4;;;;;;;455.8981618999969;None;None;None;[];455.8981618999969;None;['7'];455.8981618999969;None;[0.3336416999809444];;;S11335;2022_Mar_30_2123;VideoMask;2021.1.2;119.97010327848136;
0.0;f;040_y_f_s_a.jpg;sad;7.0;sad_67.2ns.avi;sad;7.0;congruent;130.0;160.0;220.9892697323079;s_s;;;;;0;24;24;24;;;;;;;458.90652900002897;None;460.9645199999213;461.28125920007005;462.48132709995843;462.4979572999291;471.639478799887;None;7;0;0.5044367001391947;471.639478799887;None;;;;;;;;3;;;;;;;473.1893004998565;None;None;None;[];473.1893004998565;None;"['7', '7']";473.1893004998565;None;"[0.3544378001242876, 0.5864941000472754]";;;S11335;2022_Mar_30_2123;VideoMask;2021.1.2;119.97010327848136;
8.0;m;008_y_m_s_a.jpg;sad;7.0;happy_29.1ns.avi;happy;9.0;incongruent;130.0;150.0;120.0316142834122;s_h;;;;;0;25;25;25;;;;;;;476.19771409989335;None;477.3974170999136;477.714124500053;478.8724344999064;478.88917179987766;481.5389864000026;None;9;0;0.47687940020114183;481.5389864000026;None;;;;;;;;8;;;;;;;483.0889820999;None;None;None;[];483.0889820999;None;"['9', '9', '9']";483.0889820999;None;"[0.25490719988010824, 0.4707762999460101, 0.8146679000928998]";;;S11335;2022_Mar_30_2123;VideoMask;2021.1.2;119.97010327848136;
6.0;m;016_y_m_s_a.jpg;sad;7.0;sad_8.3ns.avi;sad;7.0;congruent;130.0;160.0;152.85371098242734;s_s;;;;;0;26;26;26;;;;;;;486.0889417999424;None;487.5720744000282;487.88877449999563;489.08030280005187;489.0971655000467;496.7969599000644;None;None;0;;496.7969599000644;None;;;;;;;;5;;;;;;;498.3467679999303;None;None;None;[];498.3467679999303;None;None;498.3467679999303;None;;;;S11335;2022_Mar_30_2123;VideoMask;2021.1.2;119.97010327848136;
6.0;m;016_y_m_h_a.jpg;happy;9.0;sad_114.1.wmv;sad;7.0;incongruent;120.0;160.0;136.20550699298644;h_s;;;;;0;27;27;27;;;;;;;501.3717842998449;None;502.7132198000327;503.0299446999561;504.16329359984957;504.1799659000244;506.1716231999453;None;8;0;0.7242256000172347;506.1716231999453;None;;;;;;;;5;;;;;;;507.72991440002806;None;None;None;[];507.72991440002806;None;None;507.72991440002806;None;;;;S11335;2022_Mar_30_2123;VideoMask;2021.1.2;119.97010327848136;
7.0;m;027_o_m_s_a.jpg;sad;7.0;happy_117.3.wmv;happy;9.0;incongruent;130.0;150.0;215.61964028550614;s_h;;;;;0;28;28;28;;;;;;;510.7547698998824;None;512.7629174999893;513.0797132998705;514.2379797999747;514.2546053999104;516.2213268000633;None;9;0;0.962915499927476;516.2213268000633;None;;;;;;;;6;;;;;;;517.9878815000411;None;None;None;[];517.9878815000411;None;['9'];517.9878815000411;None;[1.8524001999758184];;;S11335;2022_Mar_30_2123;VideoMask;2021.1.2;119.97010327848136;
6.0;m;016_y_m_h_a.jpg;happy;9.0;happy_9.2ns.avi;happy;9.0;congruent;120.0;150.0;130.52042428082717;h_h;;;;;0;29;29;29;;;;;;;520.98787000007;None;522.2794194000307;522.59593890002;523.7544255000539;523.7710738999303;529.6708871000446;None;9;0;0.5448811000678688;529.6708871000446;None;;;;;;;;8;;;;;;;531.2208119998686;None;None;None;[];531.2208119998686;None;"['9', '9', '9', '9']";531.2208119998686;None;"[0.4268648000434041, 0.6749128999654204, 0.8509269000496715, 1.1550682000815868]";;;S11335;2022_Mar_30_2123;VideoMask;2021.1.2;119.97010327848136;
0.0;f;040_y_f_s_a.jpg;sad;7.0;happy_127.3.wmv;happy;9.0;incongruent;130.0;150.0;131.7195455720239;s_h;;;;;0;30;30;30;;;;;;;534.2290385998785;None;535.5372104998678;535.8539414000697;537.0206190999597;537.037311000051;539.0622306999285;None;9;0;0.6736262000631541;539.0622306999285;None;;;;;;;;7;;;;;;;540.6122341000009;None;None;None;[];540.6122341000009;None;"['9', '9']";540.6122341000009;None;"[0.3076577000319958, 0.5076776000205427]";;;S11335;2022_Mar_30_2123;VideoMask;2021.1.2;119.97010327848136;
0.0;f;030_o_f_s_a.jpg;sad;7.0;happy_125.3.wmv;happy;9.0;incongruent;130.0;150.0;220.51454909128134;s_h;;;;;0;31;31;31;;;;;;;543.6205374998972;None;545.6702582999133;545.9869824000634;547.1206952999346;547.1452037999406;549.1202728999779;None;8;0;0.6558161999564618;549.1202728999779;None;;;;;;;;5;;;;;;;550.6701666999143;None;None;None;[];550.6701666999143;None;None;550.6701666999143;None;;;;S11335;2022_Mar_30_2123;VideoMask;2021.1.2;119.97010327848136;
0.0;f;030_o_f_s_a.jpg;sad;7.0;sad_64.3ns.avi;sad;7.0;congruent;130.0;160.0;165.78667874766072;s_s;;;;;0;32;32;32;;;;;;;553.6949628000148;None;555.2866453998722;555.6032634999137;556.7616665998939;556.7784012998454;561.7365373999346;None;7;0;1.4552129998337477;561.7365373999346;None;;;;;;;;3;;;;;;;563.2948902999051;None;None;None;[];563.2948902999051;None;"['7', '7', '7']";563.2948902999051;None;"[0.5369075001217425, 0.7848344000522047, 1.2250202000141144]";;;S11335;2022_Mar_30_2123;VideoMask;2021.1.2;119.97010327848136;
3.0;m;013_y_m_s_a.jpg;sad;7.0;sad_7.7ns.avi;sad;7.0;congruent;130.0;160.0;196.24182255763262;s_s;;;;;0;33;33;33;;;;;;;566.2864067000337;None;568.1361213999335;568.4529657999519;569.652618000051;569.6694350000471;575.585989800049;None;8;0;1.1579028000123799;575.585989800049;None;;;;;;;;5;;;;;;;577.1360432999209;None;None;None;[];577.1360432999209;None;None;577.1360432999209;None;;;;S11335;2022_Mar_30_2123;VideoMask;2021.1.2;119.97010327848136;
3.0;m;013_y_m_h_a.jpg;happy;9.0;happy_9.1ns.avi;happy;9.0;congruent;120.0;150.0;165.1890303600433;h_h;;;;;0;34;34;34;;;;;;;580.1693015999626;None;581.7524735999759;582.0692416999955;583.3022979998495;583.3189594000578;586.4444511998445;None;9;0;0.6194408000446856;586.4444511998445;None;;;;;;;;8;;;;;;;588.0939239999279;None;None;None;[];588.0939239999279;None;"['9', '9', '9']";588.0939239999279;None;"[0.3218332000542432, 0.5457298001274467, 0.7297718001063913]";;;S11335;2022_Mar_30_2123;VideoMask;2021.1.2;119.97010327848136;
4.0;m;004_o_m_h_a.jpg;happy;9.0;sad_95.1ns.avi;sad;7.0;incongruent;120.0;160.0;152.68270002069931;h_s;;;;;0;35;35;35;;;;;;;591.1026045999024;None;592.6103614999447;592.9270923000295;594.0936244998593;594.1103322999552;602.8520257000346;None;7;0;0.6198505000211298;602.8520257000346;None;;;;;;;;3;;;;;;;604.4101710999385;None;None;None;[];604.4101710999385;None;"['7', '7']";604.4101710999385;None;"[0.33365809987299144, 0.5418181999120861]";;;S11335;2022_Mar_30_2123;VideoMask;2021.1.2;119.97010327848136;
3.0;m;013_y_m_h_a.jpg;happy;9.0;sad_113.2.wmv;sad;7.0;incongruent;120.0;160.0;217.4973891947951;h_s;;;;;0;36;36;36;;;;;;;607.4101650000084;None;609.451635299949;609.768239099998;610.8932908999268;610.9099103999324;612.901595100062;None;None;0;;612.901595100062;None;;;;;;;;5;;;;;;;614.4515593000688;None;None;None;[];614.4515593000688;None;None;614.4515593000688;None;;;;S11335;2022_Mar_30_2123;VideoMask;2021.1.2;119.97010327848136;
4.0;m;004_o_m_h_a.jpg;happy;9.0;happy_25.1ns.avi;happy;9.0;congruent;120.0;150.0;216.63044503818386;h_h;;;;;0;37;37;37;;;;;;;617.4679666999727;None;619.4762827998493;619.7929700999521;620.9927566999104;621.0098119999748;624.6178816000465;None;8;0;0.5499134999699891;624.6178816000465;None;;;;;;;;5;;;;;;;626.1594789999072;None;None;None;[];626.1594789999072;None;None;626.1594789999072;None;;;;S11335;2022_Mar_30_2123;VideoMask;2021.1.2;119.97010327848136;
4.0;m;004_o_m_s_a.jpg;sad;7.0;happy_131.2.wmv;happy;9.0;incongruent;130.0;150.0;181.38407540847405;s_h;;;;;0;38;38;38;;;;;;;629.1759825998452;None;630.8925564000383;631.2092964998446;632.3675092998892;632.3842241999228;634.351547600003;None;9;0;0.8481900999322534;634.351547600003;None;;;;;;;;6;;;;;;;636.0924823000096;None;None;None;[];636.0924823000096;None;['9'];636.0924823000096;None;[0.3471770999021828];;;S11335;2022_Mar_30_2123;VideoMask;2021.1.2;119.97010327848136;
0.0;f;040_y_f_h_a.jpg;happy;9.0;happy_24.3ns.avi;happy;9.0;congruent;120.0;150.0;213.25460698950434;h_h;;;;;0;39;39;39;;;;;;;639.1008694998454;None;641.0672503998503;641.3839519000612;642.5839800999966;642.6012494000606;644.4422796000727;None;None;0;;644.4422796000727;None;;;;;;;;5;;;;;;;645.9919984000735;None;None;None;[];645.9919984000735;None;None;645.9919984000735;None;;;;S11335;2022_Mar_30_2123;VideoMask;2021.1.2;119.97010327848136;
2.0;f;012_o_f_s_a.jpg;sad;7.0;happy_139.1.wmv;happy;9.0;incongruent;130.0;150.0;162.31500468041804;s_h;;;;;0;40;40;40;;;;;;;649.0171926999465;None;650.5668784999289;650.8836387000047;652.0168339000084;652.0334360999987;654.0168389000464;None;8;0;1.2869597000535578;654.0168389000464;None;;;;;;;;5;;;;;;;655.5669396000449;None;None;None;[];655.5669396000449;None;None;655.5669396000449;None;;;;S11335;2022_Mar_30_2123;VideoMask;2021.1.2;119.97010327848136;
0.0;f;030_o_f_h_a.jpg;happy;9.0;happy_24.1ns.avi;happy;9.0;congruent;120.0;150.0;168.36256624020774;h_h;;;;;0;41;41;41;;;;;;;658.5916269000154;None;660.1999816999305;660.5166408000514;661.6917099999264;661.7084009998944;664.9751631999388;None;8;0;0.9205975001677871;664.9751631999388;None;;;;;;;;5;;;;;;;666.5247475998476;None;None;None;[];666.5247475998476;None;None;666.5247475998476;None;;;;S11335;2022_Mar_30_2123;VideoMask;2021.1.2;119.97010327848136;
2.0;f;012_o_f_h_a.jpg;happy;9.0;sad_113.1.wmv;sad;7.0;incongruent;120.0;160.0;177.44551734737394;h_s;;;;;0;42;42;42;;;;;;;669.5579593000002;None;671.2412773999386;671.5579897998832;672.6910349999089;672.7078239000402;674.6913224998862;None;None;0;;674.6913224998862;None;;;;;;;;4;;;;;;;676.2494246000424;None;None;None;[];676.2494246000424;None;"['7', '7', '9']";676.2494246000424;None;"[0.7261884000618011, 1.070287900045514, 2.06238010013476]";;;S11335;2022_Mar_30_2123;VideoMask;2021.1.2;119.97010327848136;
3.0;m;033_o_m_s_a.jpg;sad;7.0;sad_64.5ns.avi;sad;7.0;congruent;130.0;160.0;130.55717223801247;s_s;;;;;0;43;43;43;;;;;;;679.2495154999197;None;680.5493554000277;680.86606270005;682.0244398999494;682.0410619999748;688.5825118999928;None;None;0;;688.5825118999928;None;;;;;;;;4;;;;;;;690.1239612000063;None;None;None;[];690.1239612000063;None;"['7', '7', '9', '9']";690.1239612000063;None;"[0.5240290998481214, 1.3076344998553395, 1.8437709999270737, 2.5718978999648243]";;;S11335;2022_Mar_30_2123;VideoMask;2021.1.2;119.97010327848136;
7.0;m;027_o_m_h_a.jpg;happy;9.0;sad_117.1.wmv;sad;7.0;incongruent;120.0;160.0;181.28665202824095;h_s;;;;;0;44;44;44;;;;;;;693.1325326999649;None;694.8488582000136;695.1656921999529;696.2987619000487;696.315451100003;698.2988785998896;None;8;0;0.8688330000732094;698.2988785998896;None;;;;;;;;5;;;;;;;699.8486251998693;None;None;None;[];699.8486251998693;None;None;699.8486251998693;None;;;;S11335;2022_Mar_30_2123;VideoMask;2021.1.2;119.97010327848136;
3.0;m;033_o_m_s_a.jpg;sad;7.0;happy_126.3.wmv;happy;9.0;incongruent;130.0;150.0;198.85252030535366;s_h;;;;;0;45;45;45;;;;;;;702.8820887999609;None;704.7485638000071;705.0652163999621;706.1984868999571;706.2235985998996;708.1985947999638;None;None;0;;708.1985947999638;None;;;;;;;;5;;;;;;;709.7985556998756;None;None;None;[];709.7985556998756;None;None;709.7985556998756;None;;;;S11335;2022_Mar_30_2123;VideoMask;2021.1.2;119.97010327848136;
3.0;m;033_o_m_h_a.jpg;happy;9.0;sad_136.1.wmv;sad;7.0;incongruent;120.0;160.0;176.97002883463455;h_s;;;;;0;46;46;46;;;;;;;712.8149240999483;None;714.4982974000741;714.8151330000255;715.9400822999887;715.9565880999435;717.948359400034;None;8;0;0.8832894000224769;717.948359400034;None;;;;;;;;5;;;;;;;719.4982105998788;None;None;None;[];719.4982105998788;None;None;719.4982105998788;None;;;;S11335;2022_Mar_30_2123;VideoMask;2021.1.2;119.97010327848136;
9.0;f;019_m_f_h_a.jpg;happy;9.0;happy_10.1ns.avi;happy;9.0;congruent;120.0;150.0;157.2463435658512;h_h;;;;;0;47;47;47;;;;;;;722.5230177999474;None;724.0396248998586;724.356313599972;725.5648133999202;725.5812826999463;732.9395434998441;None;9;0;0.588034100132063;732.9395434998441;None;;;;;;;;6;;;;;;;734.4894063998945;None;None;None;[];734.4894063998945;None;['9'];734.4894063998945;None;[0.5584612002130598];;;S11335;2022_Mar_30_2123;VideoMask;2021.1.2;119.97010327848136;
2.0;f;012_o_f_h_a.jpg;happy;9.0;happy_2.2ns.avi;happy;9.0;congruent;120.0;150.0;206.34800317295262;h_h;;;;;0;48;48;48;;;;;;;737.4894113000482;None;739.4389831000008;739.7558283999097;740.947522399947;740.9641942000017;753.0972074999008;None;9;0;1.2784888001624495;753.0972074999008;None;;;;;;;;6;;;;;;;754.6553797998931;None;None;None;[];754.6553797998931;None;"['9', '9', '7']";754.6553797998931;None;"[0.680363800143823, 1.0562433002050966, 1.5203282001893967]";;;S11335;2022_Mar_30_2123;VideoMask;2021.1.2;119.97010327848136;
3.0;m;033_o_m_h_a.jpg;happy;9.0;happy_24.2ns.avi;happy;9.0;congruent;120.0;150.0;167.9423847659953;h_h;;;;;0;49;49;49;;;;;;;757.6553787998855;None;759.2469076998532;759.5635535998736;760.7219944000244;760.7384965999518;764.4218347999267;None;8;0;0.7382560998667032;764.4218347999267;None;;;;;;;;5;;;;;;;765.9717601998709;None;None;None;[];765.9717601998709;None;None;765.9717601998709;None;;;;S11335;2022_Mar_30_2123;VideoMask;2021.1.2;119.97010327848136;
1.0;f;021_o_f_s_a.jpg;sad;7.0;happy_61.2ns.avi;happy;9.0;incongruent;130.0;150.0;210.94664004826666;s_h;;;;;0;50;50;50;;;;;;;768.9880697999615;None;770.9465119000524;771.2631498000119;772.4713820000179;772.4882451000158;776.9214220999274;None;9;0;0.5904681000392884;776.9214220999274;None;;;;;;;;7;;;;;;;778.4713417000603;None;None;None;[];778.4713417000603;None;"['9', '9']";778.4713417000603;None;"[0.28025140007957816, 0.49636890017427504]";;;S11335;2022_Mar_30_2123;VideoMask;2021.1.2;119.97010327848136;
4.0;m;004_o_m_s_a.jpg;sad;7.0;sad_2.4ns.avi;sad;7.0;congruent;130.0;160.0;153.02079367163634;s_s;;;;;0;51;51;51;;;;;;;781.4797819000669;None;782.9795146998949;783.2961754999124;784.4962726000231;784.5129128999542;792.3964626998641;None;None;0;;792.3964626998641;None;;;;;;;;4;;;;;;;793.9540235998575;None;None;None;[];793.9540235998575;None;"['7', '7', '9']";793.9540235998575;None;"[0.34169559995643795, 0.8937397999688983, 1.4057090999558568]";;;S11335;2022_Mar_30_2123;VideoMask;2021.1.2;119.97010327848136;
8.0;m;008_y_m_h_a.jpg;happy;9.0;happy_1.2ns.avi;happy;9.0;congruent;120.0;150.0;210.98946429383824;h_h;;;;;0;52;52;52;;;;;;;796.9541463998612;None;798.9455566999968;799.2623496998567;800.3874172000214;800.4039938000496;813.1953320000321;None;9;0;0.6522935000248253;813.1953320000321;None;;;;;;;;7;;;;;;;814.7452052000444;None;None;None;[];814.7452052000444;None;"['9', '9']";814.7452052000444;None;"[0.34251149999909103, 0.5905500999651849]";;;S11335;2022_Mar_30_2123;VideoMask;2021.1.2;119.97010327848136;
2.0;f;012_o_f_s_a.jpg;sad;7.0;happy_52.2ns.avi;happy;9.0;incongruent;130.0;150.0;172.57202848318138;s_h;;;;;0;53;53;53;;;;;;;817.7452082000673;None;819.3784207999706;819.6949126999825;820.879033899866;820.9031499000266;824.3948754998855;None;8;0;0.5970342999789864;824.3948754998855;None;;;;;;;;5;;;;;;;825.9448102999013;None;None;None;[];825.9448102999013;None;None;825.9448102999013;None;;;;S11335;2022_Mar_30_2123;VideoMask;2021.1.2;119.97010327848136;
9.0;f;019_m_f_s_a.jpg;sad;7.0;happy_61.1ns.avi;happy;9.0;incongruent;130.0;150.0;181.3003220572762;s_h;;;;;0;54;54;54;;;;;;;828.9697882998735;None;830.7029315999243;831.0197405000217;832.2863008000422;832.3030401000287;839.5443855999038;None;9;0;0.5193419998977333;839.5443855999038;None;;;;;;;;6;;;;;;;841.1027128000278;None;None;None;[];841.1027128000278;None;['9'];841.1027128000278;None;[0.3129508001729846];;;S11335;2022_Mar_30_2123;VideoMask;2021.1.2;119.97010327848136;
0.0;f;030_o_f_h_a.jpg;happy;9.0;sad_133.1.wmv;sad;7.0;incongruent;120.0;160.0;198.86251500867985;h_s;;;;;0;55;55;55;;;;;;;844.1026047000196;None;845.9607807998545;846.2776051999535;847.402603100054;847.4192385000642;849.4108337999787;None;None;0;;849.4108337999787;None;;;;;;;;4;;;;;;;850.960647800006;None;None;None;[];850.960647800006;None;['7'];850.960647800006;None;[0.014996799873188138];;;S11335;2022_Mar_30_2123;VideoMask;2021.1.2;119.97010327848136;
0.0;f;040_y_f_h_a.jpg;happy;9.0;sad_128.2.wmv;sad;7.0;incongruent;120.0;160.0;206.10005857915363;h_s;;;;;0;56;56;56;;;;;;;853.96063519991;None;855.8855749999639;856.2021882999688;857.3353319000453;857.3522450998425;859.3354898998514;None;7;0;0.6643022000789642;859.3354898998514;None;;;;;;;;3;;;;;;;860.8854650000576;None;None;None;[];860.8854650000576;None;"['7', '7']";860.8854650000576;None;"[0.3302138999570161, 0.8662664000876248]";;;S11335;2022_Mar_30_2123;VideoMask;2021.1.2;119.97010327848136;
1.0;f;021_o_f_s_a.jpg;sad;7.0;sad_9.5ns.avi;sad;7.0;congruent;130.0;160.0;206.16642757875042;s_s;;;;;0;57;57;57;;;;;;;863.8938346998766;None;865.818634300027;866.1351940999739;867.2765677999705;867.293576200027;872.9933597999625;None;7;0;0.60616230010055;872.9933597999625;None;;;;;;;;2;;;;;;;874.5433713998646;None;None;None;[];874.5433713998646;None;"['7', '7', '7']";874.5433713998646;None;"[0.5843833000399172, 0.8241586999502033, 1.088206100044772]";;;S11335;2022_Mar_30_2123;VideoMask;2021.1.2;119.97010327848136;
1.0;f;021_o_f_h_a.jpg;happy;9.0;happy_12.1ns.avi;happy;9.0;congruent;120.0;150.0;132.59080005900228;h_h;;;;;0;58;58;58;;;;;;;877.5432927999645;None;878.8682086998597;879.1847184998915;880.3681757000741;880.3847264999058;887.9346306999214;None;9;0;0.5209419999737293;887.9346306999214;None;;;;;;;;8;;;;;;;889.4845294000115;None;None;None;[];889.4845294000115;None;"['9', '9', '9']";889.4845294000115;None;"[0.2992486001458019, 0.5309956001583487, 1.0271785000804812]";;;S11335;2022_Mar_30_2123;VideoMask;2021.1.2;119.97010327848136;
3.0;m;013_y_m_s_a.jpg;sad;7.0;happy_56.2ns.avi;happy;9.0;incongruent;130.0;150.0;163.39234110935848;s_h;;;;;0;59;59;59;;;;;;;892.4928915998898;None;894.0592873999849;894.3759705000557;895.6091755998787;895.6260168999434;900.534313299926;None;9;0;1.0572753001470119;900.534313299926;None;;;;;;;;6;;;;;;;902.0841307998635;None;None;None;[];902.0841307998635;None;['9'];902.0841307998635;None;[0.3239480999764055];;;S11335;2022_Mar_30_2123;VideoMask;2021.1.2;119.97010327848136;
;;;;;;;;;;;;;;;;;;;;;;;;;;;;;;;;;;;;;;;;;;;;;;;;;;;;;;;;;;;;;;;;;905.0838311000261;None;;;;;;
