primePerson;primeGender;prime;primeEmotion;corrAnsPrime;target;targetEmotion;corrAnsTar;Cond;ID_Primer;ID_Target;JitterTime;Condition;example.thisRepN;example.thisTrialN;example.thisN;example.thisIndex;study.thisRepN;study.thisTrialN;study.thisN;study.thisIndex;MR_trigger_time;MR_trigger_number;text_intro.started;text_intro.stopped;text_probe.started;text_probe.stopped;polygon_ISI.started;polygon_ISI.stopped;polygon.started;polygon.stopped;primerImage.started;primerImage.stopped;response.started;response.stopped;key_resp.keys;key_resp.corr;key_resp.rt;key_resp.started;key_resp.stopped;slider_Text.started;slider_Text.stopped;slider_ex.response;slider_ex.rt;slider_ex.history;slider_ex.started;slider_ex.stopped;Rating;slider_resp_response.keys;slider_resp_response.rt;slider_resp_response.started;slider_resp_response.stopped;text_start.started;text_start.stopped;text_slider.started;text_slider.stopped;slider_stud.response;slider_stud.rt;slider_stud.history;slider_stud.started;slider_stud.stopped;slider_resp_study.keys;slider_resp_study.rt;slider_resp_study.started;slider_resp_study.stopped;text_ende.started;text_ende.stopped;participant;date;expName;psychopyVersion;frameRate;
1111;m;1111_m_m_h_a.jpg;happy;9;example_30.4ns.avi;neutral;7;incongruent;120.0;170.0;189.5874364012288;;0;0;0;0;;;;;65.09821309987456;1;65.1757475999184;67.17594829993322;67.17594829993322;None;69.19251520000398;None;71.14234120002948;71.46035229996778;72.6756885999348;72.6924131999258;76.9340593998786;None;9;0;1.1394116999581456;76.9340593998786;None;78.51725479983725;None;None;None;[];78.51725479983725;None;9;"['9', '9', '9', '9', '9']";"[0.7319126999936998, 1.1319778999313712, 1.4439934000838548, 1.7962080999277532, 2.396023999899626]";78.51725479983725;None;;;;;;;;;;;;;;;;S11486;2022_May_27_1649;VideoMask;2021.1.2;120.780531865776;
1113;f;1113_y_f_s_a.jpg;sad;7;example_30.3ns.avi;neutral;7;incongruent;130.0;170.0;229.02432995836998;;0;1;1;1;;;;;;;;;;;81.50876759993844;None;83.62520259991288;83.94191999989562;85.08367779990658;85.1003580999095;87.07536649983376;None;None;0;;87.07536649983376;None;88.76681239996105;None;None;None;[];88.76681239996105;None;7;"['9', '9', '9']";"[0.42642119992524385, 1.018928000004962, 1.4587083999067545]";88.76681239996105;None;;;;;;;;;;;;;;;;S11486;2022_May_27_1649;VideoMask;2021.1.2;120.780531865776;
9.0;f;019_m_f_h_a.jpg;happy;9.0;sad_115.1.wmv;sad;7.0;incongruent;120.0;160.0;128.09063432376465;h_s;;;;;0;0;0;0;;;;;;;92.80827569984831;None;94.08323929994367;94.39998989994638;95.53323840000667;95.55000559985638;97.53325339988805;None;7;0;1.0680863000452518;97.53325339988805;None;;;;;;;;1;;;;;91.76688460004516;None;99.09159759990871;None;None;None;[];99.09159759990871;None;"['7', '7', '7', '7']";"[0.4459077001083642, 0.8138153001200408, 1.1257279000710696, 1.4778390999417752]";99.09159759990871;None;;;S11486;2022_May_27_1649;VideoMask;2021.1.2;120.780531865776;
3.0;m;033_o_m_s_a.jpg;sad;7.0;sad_94.2ns.avi;sad;7.0;congruent;130.0;160.0;182.29120173647655;s_s;;;;;0;1;1;1;;;;;;;102.08289820002392;None;103.79959009983577;104.11630399990827;105.274692799896;105.2913917999249;107.94116989988834;None;None;0;;107.94116989988834;None;;;;;;;;3;;;;;;;109.4910526999738;None;None;None;[];109.4910526999738;None;"['7', '7']";"[0.5264636001084, 1.102740100119263]";109.4910526999738;None;;;S11486;2022_May_27_1649;VideoMask;2021.1.2;120.780531865776;
8.0;m;008_y_m_h_a.jpg;happy;9.0;happy_26.1ns.avi;happy;9.0;congruent;120.0;150.0;155.9437854594882;h_h;;;;;0;2;2;2;;;;;;;112.49123759986833;None;113.97425139998086;114.29101160005666;115.51608389988542;115.532774399966;117.41587969986722;None;9;0;0.978021299932152;117.41587969986722;None;;;;;;;;7;;;;;;;119.08261629985645;None;None;None;[];119.08261629985645;None;"['9', '9', '9']";"[0.35105789988301694, 0.7107291999273002, 1.1666731999721378]";119.08261629985645;None;;;S11486;2022_May_27_1649;VideoMask;2021.1.2;120.780531865776;
0.0;f;040_y_f_h_a.jpg;happy;9.0;sad_138.1.wmv;sad;7.0;incongruent;120.0;160.0;133.99071306426532;h_s;;;;;0;3;3;3;;;;;;;122.08257890003733;None;123.39901109994389;123.71571749984287;124.84069240000099;124.85741989989765;126.84904509992339;None;7;0;1.088434400036931;126.84904509992339;None;;;;;;;;2;;;;;;;128.39898339984939;None;None;None;[];128.39898339984939;None;"['7', '7', '7']";"[0.46649179980158806, 1.0664565998595208, 1.5863087999168783]";128.39898339984939;None;;;S11486;2022_May_27_1649;VideoMask;2021.1.2;120.780531865776;
8.0;f;028_y_f_s_a.jpg;sad;7.0;sad_64.2ns.avi;sad;7.0;congruent;130.0;160.0;229.88540597086478;s_s;;;;;0;4;4;4;;;;;;;131.4073101999238;None;133.55708449985832;133.87373259989545;135.0325056000147;135.04914989997633;146.0067441998981;None;7;0;0.570744400145486;146.0067441998981;None;;;;;;;;2;;;;;;;147.5733769000508;None;None;None;[];147.5733769000508;None;"['7', '7', '7']";"[0.4762061000801623, 0.8918204000219703, 1.3082902999594808]";147.5733769000508;None;;;S11486;2022_May_27_1649;VideoMask;2021.1.2;120.780531865776;
7.0;m;027_o_m_s_a.jpg;sad;7.0;sad_10.4ns.avi;sad;7.0;congruent;130.0;160.0;185.20129417468752;s_s;;;;;0;5;5;5;;;;;;;150.57331550004892;None;152.31477799988352;152.63149329996668;153.7648725998588;153.78153459983878;156.9314120998606;None;7;0;0.6859832000918686;156.9314120998606;None;;;;;;;;1;;;;;;;158.48138660006225;None;None;None;[];158.48138660006225;None;"['7', '7', '7', '7']";"[0.12000459991395473, 0.576086699962616, 0.7999203999061137, 1.0558823999017477]";158.48138660006225;None;;;S11486;2022_May_27_1649;VideoMask;2021.1.2;120.780531865776;
2.0;f;012_o_f_s_a.jpg;sad;7.0;sad_7.5ns.avi;sad;7.0;congruent;130.0;160.0;220.27842655424388;s_s;;;;;0;6;6;6;;;;;;;161.4898011998739;None;163.5144117998425;163.8311468998436;165.0145527999848;165.0317839998752;167.75631910003722;None;7;0;0.3571968001779169;167.75631910003722;None;;;;;;;;1;;;;;;;169.33939279988408;None;None;None;[];169.33939279988408;None;"['7', '7', '7', '7']";"[0.4379984000697732, 0.8140022000297904, 1.134072900051251, 1.478033399907872]";169.33939279988408;None;;;S11486;2022_May_27_1649;VideoMask;2021.1.2;120.780531865776;
2.0;f;012_o_f_h_a.jpg;happy;9.0;happy_27.1ns.avi;happy;9.0;congruent;120.0;150.0;146.44967055810616;h_h;;;;;0;7;7;7;;;;;;;172.33929529995658;None;173.74745450005867;174.06417699996382;175.26425589993596;175.28091019997373;177.6891890000552;None;9;0;0.6005576997995377;177.6891890000552;None;;;;;;;;9;;;;;;;179.23908500000834;None;None;None;[];179.23908500000834;None;"['9', '9', '9', '9']";"[0.22644230001606047, 0.6982605999801308, 1.122258000075817, 1.4827297001611441]";179.23908500000834;None;;;S11486;2022_May_27_1649;VideoMask;2021.1.2;120.780531865776;
8.0;f;028_y_f_h_a.jpg;happy;9.0;sad_119.1.wmv;sad;7.0;incongruent;120.0;160.0;148.71526953572538;h_s;;;;;0;8;8;8;;;;;;;182.23913559992798;None;183.68882069992833;184.0055897999555;185.1389456000179;185.1555904999841;187.2136975999456;None;7;0;0.9716439999174327;187.2136975999456;None;;;;;;;;2;;;;;;;188.7637676000595;None;None;None;[];188.7637676000595;None;"['7', '7', '7']";"[0.3175542999524623, 0.757553500123322, 1.6615198000799865]";188.7637676000595;None;;;S11486;2022_May_27_1649;VideoMask;2021.1.2;120.780531865776;
6.0;m;016_y_m_s_a.jpg;sad;7.0;happy_60.4ns.avi;happy;9.0;incongruent;130.0;150.0;126.02367393611817;s_h;;;;;0;9;9;9;;;;;;;191.7727071000263;None;193.03022119984962;193.34691559989005;194.52195740002207;194.53864139993675;200.27174189989455;None;9;0;0.7137295000720769;200.27174189989455;None;;;;;;;;6;;;;;;;201.82172330003232;None;None;None;[];201.82172330003232;None;"['9', '9']";"[0.25171720003709197, 0.9876121999695897]";201.82172330003232;None;;;S11486;2022_May_27_1649;VideoMask;2021.1.2;120.780531865776;
9.0;f;019_m_f_s_a.jpg;sad;7.0;sad_8.4ns.avi;sad;7.0;congruent;130.0;160.0;171.6633093155257;s_s;;;;;0;10;10;10;;;;;;;204.8300868999213;None;206.49649689998478;206.8131542999763;207.980504399864;208.0050625000149;216.0964269998949;None;7;0;1.1529258000664413;216.0964269998949;None;;;;;;;;3;;;;;;;217.73790379986167;None;None;None;[];217.73790379986167;None;"['7', '7']";"[0.5515383998863399, 1.1674701001029462]";217.73790379986167;None;;;S11486;2022_May_27_1649;VideoMask;2021.1.2;120.780531865776;
4.0;m;004_o_m_h_a.jpg;happy;9.0;happy_1.1ns.avi;happy;9.0;congruent;120.0;150.0;203.50057144619865;h_h;;;;;0;11;11;11;;;;;;;220.74630649993196;None;222.71277659991756;223.0293384999968;224.25439139991067;224.27104619983584;238.64566290006042;None;None;0;;238.64566290006042;None;;;;;;;;4;;;;;;;240.19549549999647;None;None;None;[];240.19549549999647;None;['7'];[1.2699901000596583];240.19549549999647;None;;;S11486;2022_May_27_1649;VideoMask;2021.1.2;120.780531865776;
7.0;m;027_o_m_h_a.jpg;happy;9.0;happy_20.1ns.avi;happy;9.0;congruent;120.0;150.0;152.91127178874285;h_h;;;;;0;12;12;12;;;;;;;243.20391969988123;None;244.686945799971;245.00361919985153;246.15374389989302;246.17031399998814;249.15360850002617;None;None;0;;249.15360850002617;None;;;;;;;;5;;;;;;;250.70336669986136;None;None;None;[];250.70336669986136;None;None;;250.70336669986136;None;;;S11486;2022_May_27_1649;VideoMask;2021.1.2;120.780531865776;
0.0;f;040_y_f_s_a.jpg;sad;7.0;sad_94.3ns.avi;sad;7.0;congruent;130.0;160.0;155.27414203894395;s_s;;;;;0;13;13;13;;;;;;;253.72004839987494;None;255.21164539991878;255.5283792000264;256.6615054998547;256.6783578998875;259.28663420001976;None;7;0;0.5788788001518697;259.28663420001976;None;;;;;;;;3;;;;;;;260.83656379999593;None;None;None;[];260.83656379999593;None;"['7', '7']";"[0.18085150001570582, 1.7489491000305861]";260.83656379999593;None;;;S11486;2022_May_27_1649;VideoMask;2021.1.2;120.780531865776;
0.0;f;030_o_f_s_a.jpg;sad;7.0;sad_68.1ns.avi;sad;7.0;congruent;130.0;160.0;158.9411396037211;s_s;;;;;0;14;14;14;;;;;;;263.8365102999378;None;265.3779821000062;265.6946783999447;266.8280799998902;266.8447107998654;274.25298839993775;None;7;0;0.9965843998361379;274.25298839993775;None;;;;;;;;4;;;;;;;275.80276350001805;None;None;None;[];275.80276350001805;None;['7'];[0.5191807001829147];275.80276350001805;None;;;S11486;2022_May_27_1649;VideoMask;2021.1.2;120.780531865776;
0.0;f;030_o_f_h_a.jpg;happy;9.0;sad_127.1.wmv;sad;7.0;incongruent;120.0;160.0;180.59976631384873;h_s;;;;;0;15;15;15;;;;;;;278.8026751000434;None;280.5192259999458;280.8357909999322;281.9693340000231;281.98588970000856;283.9691718998365;None;None;0;;283.9691718998365;None;;;;;;;;4;;;;;;;285.51902109989896;None;None;None;[];285.51902109989896;None;['7'];[0.434429100016132];285.51902109989896;None;;;S11486;2022_May_27_1649;VideoMask;2021.1.2;120.780531865776;
8.0;m;008_y_m_s_a.jpg;sad;7.0;happy_133.3.wmv;happy;9.0;incongruent;130.0;150.0;152.577966552593;s_h;;;;;0;16;16;16;;;;;;;288.51914200000465;None;289.9938296000473;290.3106416000519;291.4356464999728;291.45226739998907;293.4439818998799;None;None;0;;293.4439818998799;None;;;;;;;;5;;;;;;;294.99366099992767;None;None;None;[];294.99366099992767;None;None;;294.99366099992767;None;;;S11486;2022_May_27_1649;VideoMask;2021.1.2;120.780531865776;
3.0;m;033_o_m_h_a.jpg;happy;9.0;sad_128.1.wmv;sad;7.0;incongruent;120.0;160.0;171.0492454518585;h_s;;;;;0;17;17;17;;;;;;;298.0188068000134;None;299.65191509993747;299.9685974000022;301.1025320000481;301.13528789998963;303.1186472000554;None;7;0;1.2748350000474602;303.1186472000554;None;;;;;;;;3;;;;;;;304.66860059998;None;None;None;[];304.66860059998;None;"['7', '7']";"[0.5010679999832064, 0.9887550000566989]";304.66860059998;None;;;S11486;2022_May_27_1649;VideoMask;2021.1.2;120.780531865776;
1.0;f;021_o_f_h_a.jpg;happy;9.0;sad_116.1.wmv;sad;7.0;incongruent;120.0;160.0;184.06847610053055;h_s;;;;;0;18;18;18;;;;;;;307.67690890002996;None;309.42660150001757;309.7433622998651;310.88500789995305;310.901701600058;312.87656180001795;None;None;0;;312.87656180001795;None;;;;;;;;4;;;;;;;314.42661500000395;None;None;None;[];314.42661500000395;None;['7'];[1.6227853000164032];314.42661500000395;None;;;S11486;2022_May_27_1649;VideoMask;2021.1.2;120.780531865776;
4.0;m;004_o_m_s_a.jpg;sad;7.0;happy_28.1ns.avi;happy;9.0;incongruent;130.0;150.0;157.40741103039684;s_h;;;;;0;19;19;19;;;;;;;317.42660799995065;None;318.934627099894;319.2513690998312;320.39290870004334;320.4097281000577;324.7762531999033;None;9;0;0.46512309997342527;324.7762531999033;None;;;;;;;;9;;;;;;;326.3261879000347;None;None;None;[];326.3261879000347;None;"['9', '9', '9', '9']";"[0.17936740000732243, 0.6913942999672145, 1.0912319000344723, 1.4592579999007285]";326.3261879000347;None;;;S11486;2022_May_27_1649;VideoMask;2021.1.2;120.780531865776;
8.0;f;028_y_f_s_a.jpg;sad;7.0;happy_122.3.wmv;happy;9.0;incongruent;130.0;150.0;171.8670540936116;s_h;;;;;0;20;20;20;;;;;;;329.3344423000235;None;330.97596760001034;331.2926322000567;332.42595970002003;332.44269889988936;334.4259966998361;None;None;0;;334.4259966998361;None;;;;;;;;9;;;;;;;335.9757820998784;None;None;None;[];335.9757820998784;None;"['9', '9', '9', '9']";"[0.47348170005716383, 1.025812700157985, 1.4497347001452, 1.9856833999510854]";335.9757820998784;None;;;S11486;2022_May_27_1649;VideoMask;2021.1.2;120.780531865776;
8.0;m;008_y_m_s_a.jpg;sad;7.0;sad_6.5ns.avi;sad;7.0;congruent;130.0;160.0;170.39333839271438;s_s;;;;;0;21;21;21;;;;;;;338.97576159983873;None;340.60896939993836;340.9256463998463;342.0674372999929;342.0840324999299;347.0590599998832;None;7;0;0.7504163000266999;347.0590599998832;None;;;;;;;;3;;;;;;;348.60887139989063;None;None;None;[];348.60887139989063;None;"['7', '7']";"[0.21662469999864697, 0.6964326999150217]";348.60887139989063;None;;;S11486;2022_May_27_1649;VideoMask;2021.1.2;120.780531865776;
8.0;f;028_y_f_h_a.jpg;happy;9.0;happy_23.1ns.avi;happy;9.0;congruent;120.0;150.0;225.70986890587952;h_h;;;;;0;22;22;22;;;;;;;351.60879369988106;None;353.692090400029;354.0085590998642;355.1751842000522;355.19191870000213;359.7169661000371;None;9;0;1.308669300051406;359.7169661000371;None;;;;;;;;8;;;;;;;361.26681679999456;None;None;None;[];361.26681679999456;None;"['9', '9', '9', '9', '9']";"[0.30275969998911023, 0.7747333000879735, 1.2706637000665069, 1.726636900100857, 2.3108139000833035]";361.26681679999456;None;;;S11486;2022_May_27_1649;VideoMask;2021.1.2;120.780531865776;
8.0;m;008_y_m_h_a.jpg;happy;9.0;sad_111.1.wmv;sad;7.0;incongruent;120.0;160.0;152.63076835312847;h_s;;;;;0;23;23;23;;;;;;;364.2668061000295;None;365.74157079984434;366.05832299985923;367.1916741998866;367.2081701999996;369.19983830000274;None;7;0;0.9697130999993533;369.19983830000274;None;;;;;;;;2;;;;;;;370.7579793999903;None;None;None;[];370.7579793999903;None;"['7', '7', '7', '7']";"[0.37943050009198487, 0.8276009000837803, 1.299780400004238, 1.7875036001205444]";370.7579793999903;None;;;S11486;2022_May_27_1649;VideoMask;2021.1.2;120.780531865776;
0.0;f;040_y_f_s_a.jpg;sad;7.0;sad_67.2ns.avi;sad;7.0;congruent;130.0;160.0;220.9892697323079;s_s;;;;;0;24;24;24;;;;;;;373.7665389999747;None;375.82454439997673;376.1412487998605;377.2746037999168;377.29123979993165;386.4994115999434;None;7;0;0.7500273999758065;386.4994115999434;None;;;;;;;;3;;;;;;;388.0493300999515;None;None;None;[];388.0493300999515;None;"['7', '7']";"[0.26420689979568124, 0.8402805998921394]";388.0493300999515;None;;;S11486;2022_May_27_1649;VideoMask;2021.1.2;120.780531865776;
8.0;m;008_y_m_s_a.jpg;sad;7.0;happy_29.1ns.avi;happy;9.0;incongruent;130.0;150.0;120.0316142834122;s_h;;;;;0;25;25;25;;;;;;;391.0492368999403;None;392.24907030002214;392.5656625998672;393.70751310000196;393.72408759989776;396.3908073999919;None;9;0;0.43456820002757013;396.3908073999919;None;;;;;;;;8;;;;;;;397.9406703999266;None;None;None;[];397.9406703999266;None;"['9', '9', '9']";"[0.35702320002019405, 0.8207632000558078, 1.2207296001724899]";397.9406703999266;None;;;S11486;2022_May_27_1649;VideoMask;2021.1.2;120.780531865776;
6.0;m;016_y_m_s_a.jpg;sad;7.0;sad_8.3ns.avi;sad;7.0;congruent;130.0;160.0;152.85371098242734;s_s;;;;;0;26;26;26;;;;;;;400.9407879000064;None;402.42373869987205;402.7405260000378;403.8736711998936;403.8903574999422;411.63185089989565;None;7;0;0.7135574000421911;411.63185089989565;None;;;;;;;;4;;;;;;;413.18187700002454;None;None;None;[];413.18187700002454;None;['7'];[0.2756987998727709];413.18187700002454;None;;;S11486;2022_May_27_1649;VideoMask;2021.1.2;120.780531865776;
6.0;m;016_y_m_h_a.jpg;happy;9.0;sad_114.1.wmv;sad;7.0;incongruent;120.0;160.0;136.20550699298644;h_s;;;;;0;27;27;27;;;;;;;416.1901221999433;None;417.53161569987424;417.8483925999608;418.9734308999032;418.9900950998999;420.99007559986785;None;7;0;0.6194319999776781;420.99007559986785;None;;;;;;;;3;;;;;;;422.5399620998651;None;None;None;[];422.5399620998651;None;"['7', '7']";"[0.37352450005710125, 1.5978083000518382]";422.5399620998651;None;;;S11486;2022_May_27_1649;VideoMask;2021.1.2;120.780531865776;
7.0;m;027_o_m_s_a.jpg;sad;7.0;happy_117.3.wmv;happy;9.0;incongruent;130.0;150.0;215.61964028550614;s_h;;;;;0;28;28;28;;;;;;;425.5399068000261;None;427.5398180000484;427.85642930003814;428.98975900001824;429.0062867999077;430.98974550003186;None;9;0;0.8919772000517696;430.98974550003186;None;;;;;;;;8;;;;;;;432.6730513998773;None;None;None;[];432.6730513998773;None;"['9', '9', '9']";"[0.3284433002118021, 0.7924223002046347, 1.4327187000308186]";432.6730513998773;None;;;S11486;2022_May_27_1649;VideoMask;2021.1.2;120.780531865776;
6.0;m;016_y_m_h_a.jpg;happy;9.0;happy_9.2ns.avi;happy;9.0;congruent;120.0;150.0;130.52042428082717;h_h;;;;;0;29;29;29;;;;;;;435.6645495998673;None;436.9560264998581;437.2727288999595;438.47279809997417;438.49000709992833;444.3392564000096;None;9;0;0.49419880006462336;444.3392564000096;None;;;;;;;;8;;;;;;;445.8892099999357;None;None;None;[];445.8892099999357;None;"['9', '9', '9']";"[0.13629389996640384, 0.6643972999881953, 1.0562944000121206]";445.8892099999357;None;;;S11486;2022_May_27_1649;VideoMask;2021.1.2;120.780531865776;
0.0;f;040_y_f_s_a.jpg;sad;7.0;happy_127.3.wmv;happy;9.0;incongruent;130.0;150.0;131.7195455720239;s_h;;;;;0;30;30;30;;;;;;;448.8891320999246;None;450.1889334998559;450.50589010003023;451.63907849998213;451.6557163000107;453.7056249000598;None;None;0;;453.7056249000598;None;;;;;;;;8;;;;;;;455.27205799985677;None;None;None;[];455.27205799985677;None;"['9', '9', '9']";"[9.304158099927008, 0.6652933999430388, 1.209862699965015]";455.27205799985677;None;;;S11486;2022_May_27_1649;VideoMask;2021.1.2;120.780531865776;
0.0;f;030_o_f_s_a.jpg;sad;7.0;happy_125.3.wmv;happy;9.0;incongruent;130.0;150.0;220.51454909128134;s_h;;;;;0;31;31;31;;;;;;;458.2638450998347;None;460.30525829992257;460.6219714998733;461.7558170000557;461.7724196999334;463.7554543998558;None;9;0;0.9740784999448806;463.7554543998558;None;;;;;;;;8;;;;;;;465.30525159998797;None;None;None;[];465.30525159998797;None;"['9', '9', '9']";"[0.3924292998854071, 0.8243450000882149, 1.2241126999724656]";465.30525159998797;None;;;S11486;2022_May_27_1649;VideoMask;2021.1.2;120.780531865776;
0.0;f;030_o_f_s_a.jpg;sad;7.0;sad_64.3ns.avi;sad;7.0;congruent;130.0;160.0;165.78667874766072;s_s;;;;;0;32;32;32;;;;;;;468.3051052999217;None;469.8882931000553;470.20502929994836;471.37177659990266;471.38908830005676;476.3465481000021;None;7;0;0.7268908000551164;476.3465481000021;None;;;;;;;;3;;;;;;;477.8965670999605;None;None;None;[];477.8965670999605;None;"['7', '7']";"[0.1289748998824507, 0.5369839000049978]";477.8965670999605;None;;;S11486;2022_May_27_1649;VideoMask;2021.1.2;120.780531865776;
3.0;m;013_y_m_s_a.jpg;sad;7.0;sad_7.7ns.avi;sad;7.0;congruent;130.0;160.0;196.24182255763262;s_s;;;;;0;33;33;33;;;;;;;480.89644999988377;None;482.73791399993934;483.05465339985676;484.2963665998541;484.31303309998475;490.1878354998771;None;7;0;0.6296414001844823;490.1878354998771;None;;;;;;;;3;;;;;;;491.7628205998335;None;None;None;[];491.7628205998335;None;"['7', '7']";"[0.3826242999639362, 0.8226435000542551]";491.7628205998335;None;;;S11486;2022_May_27_1649;VideoMask;2021.1.2;120.780531865776;
3.0;m;013_y_m_h_a.jpg;happy;9.0;happy_9.1ns.avi;happy;9.0;congruent;120.0;150.0;165.1890303600433;h_h;;;;;0;34;34;34;;;;;;;494.7628413999919;None;496.33735980000347;496.65432159998454;497.8209359999746;497.83757609990425;501.0126394999679;None;9;0;0.6930942998733371;501.0126394999679;None;;;;;;;;8;;;;;;;502.5791282998398;None;None;None;[];502.5791282998398;None;"['9', '9', '9', '9']";"[0.2942889998666942, 0.7263822997920215, 1.1985872997902334, 1.7343783997930586]";502.5791282998398;None;;;S11486;2022_May_27_1649;VideoMask;2021.1.2;120.780531865776;
4.0;m;004_o_m_h_a.jpg;happy;9.0;sad_95.1ns.avi;sad;7.0;incongruent;120.0;160.0;152.68270002069931;h_s;;;;;0;35;35;35;;;;;;;505.57922049984336;None;507.07047250005417;507.38725030003116;508.5543843000196;508.57097500003874;517.3121726999525;None;7;0;0.7452661001589149;517.3121726999525;None;;;;;;;;3;;;;;;;518.8702872998547;None;None;None;[];518.8702872998547;None;"['7', '7']";"[0.5073384998831898, 0.9874595999717712]";518.8702872998547;None;;;S11486;2022_May_27_1649;VideoMask;2021.1.2;120.780531865776;
3.0;m;013_y_m_h_a.jpg;happy;9.0;sad_113.2.wmv;sad;7.0;incongruent;120.0;160.0;217.4973891947951;h_s;;;;;0;36;36;36;;;;;;;521.8702173999045;None;523.8865632999223;524.2033171998337;525.3285026999656;525.3450686000288;527.3367351999041;None;7;0;0.9448166999500245;527.3367351999041;None;;;;;;;;2;;;;;;;528.8865948999301;None;None;None;[];528.8865948999301;None;"['7', '7', '7', '7']";"[0.314964700024575, 0.7869835998862982, 1.7468596999533474, 2.3229455000255257]";528.8865948999301;None;;;S11486;2022_May_27_1649;VideoMask;2021.1.2;120.780531865776;
4.0;m;004_o_m_h_a.jpg;happy;9.0;happy_25.1ns.avi;happy;9.0;congruent;120.0;150.0;216.63044503818386;h_h;;;;;0;37;37;37;;;;;;;531.8866214998998;None;533.8863460998982;534.2030813000165;535.3947972999886;535.4114475999959;539.0281592998654;None;9;0;0.42969170003198087;539.0281592998654;None;;;;;;;;8;;;;;;;540.661294599995;None;None;None;[];540.661294599995;None;"['9', '9', '9', '9']";"[0.452203500084579, 1.0124506999272853, 1.4682557999622077, 1.924204699927941]";540.661294599995;None;;;S11486;2022_May_27_1649;VideoMask;2021.1.2;120.780531865776;
4.0;m;004_o_m_s_a.jpg;sad;7.0;happy_131.2.wmv;happy;9.0;incongruent;130.0;150.0;181.38407540847405;s_h;;;;;0;38;38;38;;;;;;;543.6696317999158;None;545.3860504999757;545.7027195999399;546.8358712999616;546.8609102999326;548.8360392998438;None;9;0;0.9973881999030709;548.8360392998438;None;;;;;;;;8;;;;;;;550.385915499879;None;None;None;[];550.385915499879;None;"['9', '9', '9']";"[0.11174730001948774, 0.6156289000064135, 1.8078172001987696]";550.385915499879;None;;;S11486;2022_May_27_1649;VideoMask;2021.1.2;120.780531865776;
0.0;f;040_y_f_h_a.jpg;happy;9.0;happy_24.3ns.avi;happy;9.0;congruent;120.0;150.0;213.25460698950434;h_h;;;;;0;39;39;39;;;;;;;553.3859953999054;None;555.3523666998371;555.6690700000618;556.8356516000349;556.8526461999863;558.7274362999015;None;9;0;0.9060814999975264;558.7274362999015;None;;;;;;;;8;;;;;;;560.2856387998909;None;None;None;[];560.2856387998909;None;"['9', '9', '9']";"[0.32427369989454746, 0.7958481998648494, 1.6199483999516815]";560.2856387998909;None;;;S11486;2022_May_27_1649;VideoMask;2021.1.2;120.780531865776;
2.0;f;012_o_f_s_a.jpg;sad;7.0;happy_139.1.wmv;happy;9.0;incongruent;130.0;150.0;162.31500468041804;s_h;;;;;0;40;40;40;;;;;;;563.2855920000002;None;564.8354460999835;565.1521219999995;566.285466699861;566.3021672000177;568.2854448999278;None;None;0;;568.2854448999278;None;;;;;;;;9;;;;;;;569.8351938999258;None;None;None;[];569.8351938999258;None;"['9', '9', '9', '9']";"[0.36650110012851655, 0.7983717999886721, 1.182374499971047, 1.598310299916193]";569.8351938999258;None;;;S11486;2022_May_27_1649;VideoMask;2021.1.2;120.780531865776;
0.0;f;030_o_f_h_a.jpg;happy;9.0;happy_24.1ns.avi;happy;9.0;congruent;120.0;150.0;168.36256624020774;h_h;;;;;0;41;41;41;;;;;;;572.8437093000393;None;574.4434092000592;574.7601727000438;575.926727199927;575.9604151998647;579.2184265998658;None;None;0;;579.2184265998658;None;;;;;;;;6;;;;;;;580.7684212999884;None;None;None;[];580.7684212999884;None;['9'];[0.8652979999314994];580.7684212999884;None;;;S11486;2022_May_27_1649;VideoMask;2021.1.2;120.780531865776;
2.0;f;012_o_f_h_a.jpg;happy;9.0;sad_113.1.wmv;sad;7.0;incongruent;120.0;160.0;177.44551734737394;h_s;;;;;0;42;42;42;;;;;;;583.7684569000266;None;585.4514637999237;585.7681511999108;586.9018725999631;586.9265217999928;588.9014619998634;None;None;0;;588.9014619998634;None;;;;;;;;4;;;;;;;590.4512811999302;None;None;None;[];590.4512811999302;None;"['7', '7']";"[0.6541782999411225, 1.678530299803242]";590.4512811999302;None;;;S11486;2022_May_27_1649;VideoMask;2021.1.2;120.780531865776;
3.0;m;033_o_m_s_a.jpg;sad;7.0;sad_64.5ns.avi;sad;7.0;congruent;130.0;160.0;130.55717223801247;s_s;;;;;0;43;43;43;;;;;;;593.4514979999512;None;594.7513190999161;595.0678614999633;596.2262128000148;596.2428902999964;602.7845234000124;None;7;0;0.8731901000719517;602.7845234000124;None;;;;;;;;3;;;;;;;604.3343080000486;None;None;None;[];604.3343080000486;None;"['7', '7', '7']";"[0.01937350002117455, 0.5874137000646442, 1.099277300061658]";604.3343080000486;None;;;S11486;2022_May_27_1649;VideoMask;2021.1.2;120.780531865776;
7.0;m;027_o_m_h_a.jpg;happy;9.0;sad_117.1.wmv;sad;7.0;incongruent;120.0;160.0;181.28665202824095;h_s;;;;;0;44;44;44;;;;;;;607.3341939998791;None;609.0508733000606;609.3674055000301;610.50884639984;610.5257182000205;612.5007734999526;None;7;0;0.7971036999952048;612.5007734999526;None;;;;;;;;2;;;;;;;614.0673497000244;None;None;None;[];614.0673497000244;None;"['7', '7', '7']";"[0.3982905999291688, 0.8622091999277472, 1.6383489998988807]";614.0673497000244;None;;;S11486;2022_May_27_1649;VideoMask;2021.1.2;120.780531865776;
3.0;m;033_o_m_s_a.jpg;sad;7.0;happy_126.3.wmv;happy;9.0;incongruent;130.0;150.0;198.85252030535366;s_h;;;;;0;45;45;45;;;;;;;617.0674443999305;None;618.925381799927;619.2420921998564;620.3754737998825;620.392220400041;622.3921632999554;None;None;0;;622.3921632999554;None;;;;;;;;6;;;;;;;623.9335525999777;None;None;None;[];623.9335525999777;None;"['9', '9']";"[0.6280962999444455, 1.32404619990848]";623.9335525999777;None;;;S11486;2022_May_27_1649;VideoMask;2021.1.2;120.780531865776;
3.0;m;033_o_m_h_a.jpg;happy;9.0;sad_136.1.wmv;sad;7.0;incongruent;120.0;160.0;176.97002883463455;h_s;;;;;0;46;46;46;;;;;;;626.9503345999401;None;628.6250640000217;628.9504616998602;630.0751461999025;630.0918836998753;632.0751263999846;None;7;0;0.8387729998212308;632.0751263999846;None;;;;;;;;3;;;;;;;633.6834141998552;None;None;None;[];633.6834141998552;None;"['7', '7']";"[0.07018180005252361, 1.118118999991566]";633.6834141998552;None;;;S11486;2022_May_27_1649;VideoMask;2021.1.2;120.780531865776;
9.0;f;019_m_f_h_a.jpg;happy;9.0;happy_10.1ns.avi;happy;9.0;congruent;120.0;150.0;157.2463435658512;h_h;;;;;0;47;47;47;;;;;;;636.6834992999211;None;638.2081738999113;638.5249443999492;639.7166321999393;639.7332347000483;647.1081766998395;None;9;0;0.5014518999960274;647.1081766998395;None;;;;;;;;7;;;;;;;648.6579682000447;None;None;None;[];648.6579682000447;None;"['9', '9']";"[0.5115505999419838, 1.4080227001104504]";648.6579682000447;None;;;S11486;2022_May_27_1649;VideoMask;2021.1.2;120.780531865776;
2.0;f;012_o_f_h_a.jpg;happy;9.0;happy_2.2ns.avi;happy;9.0;congruent;120.0;150.0;206.34800317295262;h_h;;;;;0;48;48;48;;;;;;;651.6663680998608;None;653.6409127998631;653.9576468998566;655.1161072000396;655.1327449998353;667.2910531000234;None;9;0;0.6305689001455903;667.2910531000234;None;;;;;;;;8;;;;;;;668.8490091999993;None;None;None;[];668.8490091999993;None;"['9', '9', '9', '9', '9']";"[0.160622299881652, 0.6564871999435127, 1.1606755000539124, 1.584774199873209, 2.0725600998848677]";668.8490091999993;None;;;S11486;2022_May_27_1649;VideoMask;2021.1.2;120.780531865776;
3.0;m;033_o_m_h_a.jpg;happy;9.0;happy_24.2ns.avi;happy;9.0;congruent;120.0;150.0;167.9423847659953;h_h;;;;;0;49;49;49;;;;;;;671.857360499911;None;673.4487338999752;673.7654134999029;674.9654182998929;674.9825013000518;678.6238020998426;None;9;0;0.9380433999467641;678.6238020998426;None;;;;;;;;8;;;;;;;680.1736426998395;None;None;None;[];680.1736426998395;None;"['9', '9', '9']";"[0.18024339992552996, 0.6599646999966353, 1.204064100049436]";680.1736426998395;None;;;S11486;2022_May_27_1649;VideoMask;2021.1.2;120.780531865776;
1.0;f;021_o_f_s_a.jpg;sad;7.0;happy_61.2ns.avi;happy;9.0;incongruent;130.0;150.0;210.94664004826666;s_h;;;;;0;50;50;50;;;;;;;683.1818733999971;None;685.1400508000515;685.4567245999351;686.6238398000132;686.6484632999636;691.1149776999373;None;None;0;;691.1149776999373;None;;;;;;;;5;;;;;;;692.6649497000035;None;None;None;[];692.6649497000035;None;None;;692.6649497000035;None;;;S11486;2022_May_27_1649;VideoMask;2021.1.2;120.780531865776;
4.0;m;004_o_m_s_a.jpg;sad;7.0;sad_2.4ns.avi;sad;7.0;congruent;130.0;160.0;153.02079367163634;s_s;;;;;0;51;51;51;;;;;;;695.6899021000136;None;697.1814890999813;697.4981149998493;698.6897666999139;698.7063221998978;706.5898967999965;None;7;0;0.6276428999844939;706.5898967999965;None;;;;;;;;2;;;;;;;708.147774499841;None;None;None;[];708.147774499841;None;"['7', '7', '7']";"[0.3979752999730408, 1.133850800106302, 1.6058889001142234]";708.147774499841;None;;;S11486;2022_May_27_1649;VideoMask;2021.1.2;120.780531865776;
8.0;m;008_y_m_h_a.jpg;happy;9.0;happy_1.2ns.avi;happy;9.0;congruent;120.0;150.0;210.98946429383824;h_h;;;;;0;52;52;52;;;;;;;711.1477152998559;None;713.1391626999248;713.4560173000209;714.622984400019;714.6476644999348;727.3890293999575;None;None;0;;727.3890293999575;None;;;;;;;;5;;;;;;;728.9387860000134;None;None;None;[];728.9387860000134;None;None;;728.9387860000134;None;;;S11486;2022_May_27_1649;VideoMask;2021.1.2;120.780531865776;
2.0;f;012_o_f_s_a.jpg;sad;7.0;happy_52.2ns.avi;happy;9.0;incongruent;130.0;150.0;172.57202848318138;s_h;;;;;0;53;53;53;;;;;;;731.9721093999688;None;733.596875499934;733.9136043998878;735.0640159000177;735.0886486999225;738.6136751999147;None;9;0;1.364037699997425;738.6136751999147;None;;;;;;;;7;;;;;;;740.1718156000134;None;None;None;[];740.1718156000134;None;"['9', '9']";"[0.4220654000528157, 0.886059399927035]";740.1718156000134;None;;;S11486;2022_May_27_1649;VideoMask;2021.1.2;120.780531865776;
9.0;f;019_m_f_s_a.jpg;sad;7.0;happy_61.1ns.avi;happy;9.0;incongruent;130.0;150.0;181.3003220572762;s_h;;;;;0;54;54;54;;;;;;;743.1800468999427;None;744.9131720999721;745.2299027000554;746.3883956000209;746.4048994998448;753.7547287000343;None;7;0;0.974805099889636;753.7547287000343;None;;;;;;;;3;;;;;;;755.3046577998903;None;None;None;[];755.3046577998903;None;"['7', '7']";"[0.40898840012960136, 1.2330478001385927]";755.3046577998903;None;;;S11486;2022_May_27_1649;VideoMask;2021.1.2;120.780531865776;
0.0;f;030_o_f_h_a.jpg;happy;9.0;sad_133.1.wmv;sad;7.0;incongruent;120.0;160.0;198.86251500867985;h_s;;;;;0;55;55;55;;;;;;;758.3128949999809;None;760.1792800999247;760.4961061999202;761.6212555000093;761.637800199911;763.6294321999885;None;7;0;0.9004284001421183;763.6294321999885;None;;;;;;;;3;;;;;;;765.2043206000235;None;None;None;[];765.2043206000235;None;"['7', '7']";"[0.6614528000354767, 1.1577066001482308]";765.2043206000235;None;;;S11486;2022_May_27_1649;VideoMask;2021.1.2;120.780531865776;
0.0;f;040_y_f_h_a.jpg;happy;9.0;sad_128.2.wmv;sad;7.0;incongruent;120.0;160.0;206.10005857915363;h_s;;;;;0;56;56;56;;;;;;;768.2126793998759;None;770.1374482000247;770.454089100007;771.5872661999892;771.603988799965;773.587511099875;None;None;0;;773.587511099875;None;;;;;;;;3;;;;;;;775.1374254999682;None;None;None;[];775.1374254999682;None;"['7', '7']";"[0.6881523001939058, 1.2242792001925409]";775.1374254999682;None;;;S11486;2022_May_27_1649;VideoMask;2021.1.2;120.780531865776;
1.0;f;021_o_f_s_a.jpg;sad;7.0;sad_9.5ns.avi;sad;7.0;congruent;130.0;160.0;206.16642757875042;s_s;;;;;0;57;57;57;;;;;;;778.137321999995;None;780.0620840999763;780.3788103999104;781.6536566999275;781.6703548999503;787.2369297000114;None;7;0;0.8927146000787616;787.2369297000114;None;;;;;;;;4;;;;;;;788.786984999897;None;None;None;[];788.786984999897;None;['7'];[0.31860859994776547];788.786984999897;None;;;S11486;2022_May_27_1649;VideoMask;2021.1.2;120.780531865776;
1.0;f;021_o_f_h_a.jpg;happy;9.0;happy_12.1ns.avi;happy;9.0;congruent;120.0;150.0;132.59080005900228;h_h;;;;;0;58;58;58;;;;;;;791.7868842999451;None;793.1117081998382;793.4284939998761;794.5533074999694;794.5786013000179;802.1782585000619;None;9;0;0.7675371998921037;802.1782585000619;None;;;;;;;;9;;;;;;;803.7281885999255;None;None;None;[];803.7281885999255;None;"['9', '9', '9', '9']";"[0.37755670002661645, 0.8094865998718888, 1.145680399844423, 1.5053846000228077]";803.7281885999255;None;;;S11486;2022_May_27_1649;VideoMask;2021.1.2;120.780531865776;
3.0;m;013_y_m_s_a.jpg;sad;7.0;happy_56.2ns.avi;happy;9.0;incongruent;130.0;150.0;163.39234110935848;s_h;;;;;0;59;59;59;;;;;;;806.7281346998643;None;808.294555200031;808.6112816999666;809.7613762998953;809.7780126000289;814.7695104999002;None;None;0;;814.7695104999002;None;;;;;;;;5;;;;;;;816.3194931999315;None;None;None;[];816.3194931999315;None;None;;816.3194931999315;None;;;S11486;2022_May_27_1649;VideoMask;2021.1.2;120.780531865776;
;;;;;;;;;;;;;;;;;;;;;;;;;;;;;;;;;;;;;;;;;;;;;;;;;;;;;;;;;;;;;;;;;819.352509799879;None;;;;;;
