primePerson;primeGender;prime;primeEmotion;corrAnsPrime;target;targetEmotion;corrAnsTar;Cond;ID_Primer;ID_Target;JitterTime;Condition;example.thisRepN;example.thisTrialN;example.thisN;example.thisIndex;study.thisRepN;study.thisTrialN;study.thisN;study.thisIndex;MR_trigger_time;MR_trigger_number;text_intro.started;text_intro.stopped;text_probe.started;text_probe.stopped;polygon_ISI.started;polygon_ISI.stopped;polygon.started;polygon.stopped;primerImage.started;primerImage.stopped;response.started;response.stopped;key_resp.keys;key_resp.corr;key_resp.started;key_resp.stopped;slider_Text.started;slider_Text.stopped;slider_ex.response;slider_ex.rt;slider_ex.history;slider_ex.started;slider_ex.stopped;Rating;slider_resp_response.keys;slider_resp_response.rt;slider_resp_response.started;slider_resp_response.stopped;text_start.started;text_start.stopped;text_slider.started;text_slider.stopped;slider_stud.response;slider_stud.rt;slider_stud.history;slider_stud.started;slider_stud.stopped;slider_resp_study.keys;slider_resp_study.rt;slider_resp_study.started;slider_resp_study.stopped;key_resp.rt;text_ende.started;text_ende.stopped;participant;date;expName;psychopyVersion;frameRate;
1111;m;1111_m_m_h_a.jpg;happy;9;example_30.4ns.avi;neutral;7;incongruent;120.0;170.0;189.5874364012288;;0;0;0;0;;;;;37.93496849993244;1;38.0291053999681;40.029376399936154;40.029376399936154;None;42.062339999945834;None;44.32062490005046;44.64580329996534;45.8040658000391;45.82072430010885;50.11227830010466;None;None;0;50.11227830010466;None;51.67870269995183;None;None;None;[];51.67870269995183;None;6;['9'];[2.4235710999928415];51.67870269995183;None;;;;;;;;;;;;;;;;;S11136;2022_Jan_06_1152;VideoMask;2021.1.2;119.37804073055224;
1113;f;1113_y_f_s_a.jpg;sad;7;example_30.3ns.avi;neutral;7;incongruent;130.0;170.0;229.02432995836998;;0;1;1;1;;;;;;;;;;;54.662105600116774;None;56.770231399917975;57.08695190004073;58.22037400002591;58.23705550003797;60.2202959000133;None;None;0;60.2202959000133;None;61.77033420000225;None;None;None;[];61.77033420000225;None;6;['9'];[0.28381439996883273];61.77033420000225;None;;;;;;;;;;;;;;;;;S11136;2022_Jan_06_1152;VideoMask;2021.1.2;119.37804073055224;
9.0;f;019_m_f_h_a.jpg;happy;9.0;sad_115.1.wmv;sad;7.0;incongruent;120.0;160.0;128.09063432376465;h_s;;;;;0;0;0;0;;;;;;;65.8034085999243;None;67.07823570002802;67.39501819992438;68.52816059999168;68.5449840000365;70.5282716001384;None;None;0;70.5282716001384;None;;;;;;;;2;;;;;64.77016569999978;None;72.07823080010712;None;None;None;[];72.07823080010712;None;"['7', '7', '7']";"[0.6320226998068392, 0.8799488998483866, 1.2962438999675214]";72.07823080010712;None;;;;S11136;2022_Jan_06_1152;VideoMask;2021.1.2;119.37804073055224;
3.0;m;033_o_m_s_a.jpg;sad;7.0;sad_94.2ns.avi;sad;7.0;congruent;130.0;160.0;182.29120173647655;s_s;;;;;0;1;1;1;;;;;;;75.08656290010549;None;76.81124870013446;77.1280050999485;78.27869810000993;78.29505060007796;80.95297059998848;None;7;0;80.95297059998848;None;;;;;;;;2;;;;;;;82.50280450005084;None;None;None;[];82.50280450005084;None;"['7', '7', '7']";"[0.5757879000157118, 0.8074103000108153, 0.983336899895221]";82.50280450005084;None;0.6612616998609155;;;S11136;2022_Jan_06_1152;VideoMask;2021.1.2;119.37804073055224;
8.0;m;008_y_m_h_a.jpg;happy;9.0;happy_26.1ns.avi;happy;9.0;congruent;120.0;150.0;155.9437854594882;h_h;;;;;0;2;2;2;;;;;;;85.50297969998792;None;87.01937470003031;87.33613010006957;88.46927380003035;88.48610570002347;90.46096029994078;None;9;0;90.46096029994078;None;;;;;;;;8;;;;;;;92.01091410010122;None;None;None;[];92.01091410010122;None;"['9', '9', '9']";"[0.9472766001708806, 1.6515581000130624, 2.1952816999983042]";92.01091410010122;None;1.0013672998175025;;;S11136;2022_Jan_06_1152;VideoMask;2021.1.2;119.37804073055224;
0.0;f;040_y_f_h_a.jpg;happy;9.0;sad_138.1.wmv;sad;7.0;incongruent;120.0;160.0;133.99071306426532;h_s;;;;;0;3;3;3;;;;;;;95.019249800127;None;96.34402370010503;96.6607935000211;97.78583900001831;97.80239369999617;99.80234259995632;None;7;0;99.80234259995632;None;;;;;;;;4;;;;;;;101.35226560011506;None;None;None;[];101.35226560011506;None;['7'];[1.0459489000495523];101.35226560011506;None;1.3318890000227839;;;S11136;2022_Jan_06_1152;VideoMask;2021.1.2;119.37804073055224;
8.0;f;028_y_f_s_a.jpg;sad;7.0;sad_64.2ns.avi;sad;7.0;congruent;130.0;160.0;229.88540597086478;s_s;;;;;0;4;4;4;;;;;;;104.35219260002486;None;106.5522273001261;106.86870649992488;108.02717959997244;108.04377639992163;119.01043089991435;None;7;0;119.01043089991435;None;;;;;;;;3;;;;;;;120.56006980012171;None;None;None;[];120.56006980012171;None;"['7', '7', '7']";"[0.5181146999821067, 0.7100793998688459, 1.1823368000332266]";120.56006980012171;None;0.47571909986436367;;;S11136;2022_Jan_06_1152;VideoMask;2021.1.2;119.37804073055224;
7.0;m;027_o_m_s_a.jpg;sad;7.0;sad_10.4ns.avi;sad;7.0;congruent;130.0;160.0;185.20129417468752;s_s;;;;;0;5;5;5;;;;;;;123.56011059996672;None;125.3097640001215;125.62651440012269;126.80160510004498;126.81820240011439;129.934896199964;None;7;0;129.934896199964;None;;;;;;;;3;;;;;;;131.48472329997458;None;None;None;[];131.48472329997458;None;"['7', '7']";"[0.48144770017825067, 1.329639800125733]";131.48472329997458;None;0.9193328998517245;;;S11136;2022_Jan_06_1152;VideoMask;2021.1.2;119.37804073055224;
2.0;f;012_o_f_s_a.jpg;sad;7.0;sad_7.5ns.avi;sad;7.0;congruent;130.0;160.0;220.27842655424388;s_s;;;;;0;6;6;6;;;;;;;134.48461210005917;None;136.5261125001125;136.84321720013395;138.04293560003862;138.05947809992358;140.76791210006922;None;7;0;140.76791210006922;None;;;;;;;;2;;;;;;;143.13436209992506;None;None;None;[];143.13436209992506;None;"['7', '7', '7', '7', '7']";"[0.4159460999071598, 0.6157877999357879, 0.7836974998936057, 0.9517524999100715, 1.3519919000100344]";143.13436209992506;None;0.6144791000988334;;;S11136;2022_Jan_06_1152;VideoMask;2021.1.2;119.37804073055224;
2.0;f;012_o_f_h_a.jpg;happy;9.0;happy_27.1ns.avi;happy;9.0;congruent;120.0;150.0;146.44967055810616;h_h;;;;;0;7;7;7;;;;;;;146.13435290008783;None;147.55071490001865;147.86752640013583;149.0265069999732;149.06001090002246;151.49249460012652;None;9;0;151.49249460012652;None;;;;;;;;8;;;;;;;153.04231399996206;None;None;None;[];153.04231399996206;None;"['9', '9', '9', '9']";"[0.6201766999438405, 1.2524212999269366, 1.643859799951315, 2.076086599845439]";153.04231399996206;None;0.8015676999930292;;;S11136;2022_Jan_06_1152;VideoMask;2021.1.2;119.37804073055224;
8.0;f;028_y_f_h_a.jpg;happy;9.0;sad_119.1.wmv;sad;7.0;incongruent;120.0;160.0;148.71526953572538;h_s;;;;;0;8;8;8;;;;;;;156.05071340012364;None;157.51748479995877;157.83376900013536;158.9671889001038;158.9844490000978;161.03398569999263;None;7;0;161.03398569999263;None;;;;;;;;3;;;;;;;162.58378709992394;None;None;None;[];162.58378709992394;None;"['7', '7']";"[0.814401299925521, 1.0542295000050217]";162.58378709992394;None;0.6922602001577616;;;S11136;2022_Jan_06_1152;VideoMask;2021.1.2;119.37804073055224;
6.0;m;016_y_m_s_a.jpg;sad;7.0;happy_60.4ns.avi;happy;9.0;incongruent;130.0;150.0;126.02367393611817;s_h;;;;;0;9;9;9;;;;;;;165.5920303000603;None;166.875306900125;167.19170420011505;168.33356050006114;168.35027140006423;174.1168452000711;None;9;0;174.1168452000711;None;;;;;;;;7;;;;;;;175.66668509994633;None;None;None;[];175.66668509994633;None;"['9', '9']";"[0.6275768000632524, 1.243573100073263]";175.66668509994633;None;0.7133939999621361;;;S11136;2022_Jan_06_1152;VideoMask;2021.1.2;119.37804073055224;
9.0;f;019_m_f_s_a.jpg;sad;7.0;sad_8.4ns.avi;sad;7.0;congruent;130.0;160.0;171.6633093155257;s_s;;;;;0;10;10;10;;;;;;;178.67500569997355;None;180.34155260003172;180.65814640000463;181.80823790002614;181.82479410013184;189.92445800011046;None;7;0;189.92445800011046;None;;;;;;;;1;;;;;;;191.47453150013462;None;None;None;[];191.47453150013462;None;"['7', '7', '7', '7']";"[0.3876106000971049, 0.6114092001225799, 0.7875192000064999, 0.9954466000199318]";191.47453150013462;None;0.8416826000902802;;;S11136;2022_Jan_06_1152;VideoMask;2021.1.2;119.37804073055224;
4.0;m;004_o_m_h_a.jpg;happy;9.0;happy_1.1ns.avi;happy;9.0;congruent;120.0;150.0;203.50057144619865;h_h;;;;;0;11;11;11;;;;;;;194.47461419994943;None;196.46665160008706;196.7825337999966;197.92424429999664;197.94094000011683;212.3989045000635;None;9;0;212.3989045000635;None;;;;;;;;6;;;;;;;213.9488027000334;None;None;None;[];213.9488027000334;None;['9'];[0.4814597999211401];213.9488027000334;None;0.9992174999788404;;;S11136;2022_Jan_06_1152;VideoMask;2021.1.2;119.37804073055224;
7.0;m;027_o_m_h_a.jpg;happy;9.0;happy_20.1ns.avi;happy;9.0;congruent;120.0;150.0;152.91127178874285;h_h;;;;;0;12;12;12;;;;;;;216.94884230010211;None;218.4485099001322;218.76537899998948;219.90699220006354;219.9237232999876;222.91535419994034;None;9;0;222.91535419994034;None;;;;;;;;8;;;;;;;224.46516839996912;None;None;None;[];224.46516839996912;None;"['9', '9', '9', '9']";"[0.47715719998814166, 0.7326812001410872, 1.0447951999958605, 1.6449590001720935]";224.46516839996912;None;0.8269136000890285;;;S11136;2022_Jan_06_1152;VideoMask;2021.1.2;119.37804073055224;
0.0;f;040_y_f_s_a.jpg;sad;7.0;sad_94.3ns.avi;sad;7.0;congruent;130.0;160.0;155.27414203894395;s_s;;;;;0;13;13;13;;;;;;;227.46515080006793;None;228.96513599995524;229.2814998999238;230.43161910003982;230.44827220006846;233.0402039999608;None;7;0;233.0402039999608;None;;;;;;;;3;;;;;;;234.60650469991378;None;None;None;[];234.60650469991378;None;"['7', '7']";"[0.7995686999056488, 1.0715594999492168]";234.60650469991378;None;1.005798000143841;;;S11136;2022_Jan_06_1152;VideoMask;2021.1.2;119.37804073055224;
0.0;f;030_o_f_s_a.jpg;sad;7.0;sad_68.1ns.avi;sad;7.0;congruent;130.0;160.0;158.9411396037211;s_s;;;;;0;14;14;14;;;;;;;237.60651320009492;None;239.16478669992648;239.4812962000724;240.62315550004132;240.64004410011694;248.03949899994768;None;7;0;248.03949899994768;None;;;;;;;;1;;;;;;;249.58938309992664;None;None;None;[];249.58938309992664;None;"['7', '7', '7', '7', '7', '7']";"[0.3686445998027921, 0.5846547998953611, 0.8007145998999476, 0.9766259999014437, 1.21691339998506, 1.432637199992314]";249.58938309992664;None;0.6306550002191216;;;S11136;2022_Jan_06_1152;VideoMask;2021.1.2;119.37804073055224;
0.0;f;030_o_f_h_a.jpg;happy;9.0;sad_127.1.wmv;sad;7.0;incongruent;120.0;160.0;180.59976631384873;h_s;;;;;0;15;15;15;;;;;;;252.58927590004168;None;254.29729510005563;254.6147451000288;255.74756529997103;255.76417810004205;257.75644599995576;None;None;0;257.75644599995576;None;;;;;;;;5;;;;;;;259.49728789995424;None;None;None;[];259.49728789995424;None;"['9', '7', '7', '9', '9']";"[0.1568616998847574, 0.6929212999530137, 0.9889312998857349, 2.444821699988097, 2.796818600036204]";259.49728789995424;None;;;;S11136;2022_Jan_06_1152;VideoMask;2021.1.2;119.37804073055224;
8.0;m;008_y_m_s_a.jpg;sad;7.0;happy_133.3.wmv;happy;9.0;incongruent;130.0;150.0;152.577966552593;s_h;;;;;0;16;16;16;;;;;;;262.49729149998166;None;263.9804277999792;264.29722760012373;265.42224039998837;265.4387531001121;267.43034840002656;None;9;0;267.43034840002656;None;;;;;;;;9;;;;;;;268.9720384001266;None;None;None;[];268.9720384001266;None;"['9', '9', '9', '9']";"[0.35416419990360737, 0.6098889999557287, 0.8979317999910563, 1.2422980000264943]";268.9720384001266;None;0.3998817999381572;;;S11136;2022_Jan_06_1152;VideoMask;2021.1.2;119.37804073055224;
3.0;m;033_o_m_h_a.jpg;happy;9.0;sad_128.1.wmv;sad;7.0;incongruent;120.0;160.0;171.0492454518585;h_s;;;;;0;17;17;17;;;;;;;271.97206260007806;None;273.62181810010225;273.9386110000778;275.07176900003105;275.0883575999178;277.07181999995373;None;7;0;277.07181999995373;None;;;;;;;;2;;;;;;;278.62180850002915;None;None;None;[];278.62180850002915;None;"['7', '7', '7']";"[0.4484260999597609, 0.7523502998519689, 1.1283458999823779]";278.62180850002915;None;1.3343041997868568;;;S11136;2022_Jan_06_1152;VideoMask;2021.1.2;119.37804073055224;
1.0;f;021_o_f_h_a.jpg;happy;9.0;sad_116.1.wmv;sad;7.0;incongruent;120.0;160.0;184.06847610053055;h_s;;;;;0;18;18;18;;;;;;;281.6218443000689;None;283.3715496000368;283.68825260014273;284.82153770001605;284.8382790000178;286.8216361000668;None;7;0;286.8216361000668;None;;;;;;;;1;;;;;;;288.3967049999628;None;None;None;[];288.3967049999628;None;"['7', '7', '7', '7']";"[9.736273099901155, 0.4496293000411242, 0.6654887001495808, 0.849311999976635]";288.3967049999628;None;0.5364276000764221;;;S11136;2022_Jan_06_1152;VideoMask;2021.1.2;119.37804073055224;
4.0;m;004_o_m_s_a.jpg;sad;7.0;happy_28.1ns.avi;happy;9.0;incongruent;130.0;150.0;157.40741103039684;s_h;;;;;0;19;19;19;;;;;;;291.3798662000336;None;292.91305650002323;293.22965639992617;294.3795288000256;294.3962733000517;298.75440079998225;None;9;0;298.75440079998225;None;;;;;;;;8;;;;;;;300.3045246999245;None;None;None;[];300.3045246999245;None;"['9', '9', '9', '9']";"[0.4534888998605311, 1.0455724999774247, 1.4137397999875247, 2.037587799830362]";300.3045246999245;None;0.43572419998236;;;S11136;2022_Jan_06_1152;VideoMask;2021.1.2;119.37804073055224;
8.0;f;028_y_f_s_a.jpg;sad;7.0;happy_122.3.wmv;happy;9.0;incongruent;130.0;150.0;171.8670540936116;s_h;;;;;0;20;20;20;;;;;;;303.304440200096;None;304.9541575999465;305.27086169994436;306.40434410003945;306.42089199996553;308.4044594001025;None;9;0;308.4044594001025;None;;;;;;;;8;;;;;;;309.9541649001185;None;None;None;[];309.9541649001185;None;"['9', '9', '9', '9']";"[0.2599379001185298, 0.5079089000355452, 0.771706199971959, 1.3078222000040114]";309.9541649001185;None;0.3854938999284059;;;S11136;2022_Jan_06_1152;VideoMask;2021.1.2;119.37804073055224;
8.0;m;008_y_m_s_a.jpg;sad;7.0;sad_6.5ns.avi;sad;7.0;congruent;130.0;160.0;170.39333839271438;s_s;;;;;0;21;21;21;;;;;;;312.962457299931;None;314.5956043000333;314.9124817000702;316.1037506000139;316.1205883999355;321.04615589999594;None;7;0;321.04615589999594;None;;;;;;;;2;;;;;;;322.60366740007885;None;None;None;[];322.60366740007885;None;"['7', '7', '7', '7']";"[0.41850239993073046, 0.6824550000019372, 0.9783210000023246, 2.5228238001000136]";322.60366740007885;None;0.5118277999572456;;;S11136;2022_Jan_06_1152;VideoMask;2021.1.2;119.37804073055224;
8.0;f;028_y_f_h_a.jpg;happy;9.0;happy_23.1ns.avi;happy;9.0;congruent;120.0;150.0;225.70986890587952;h_h;;;;;0;22;22;22;;;;;;;325.60372150014155;None;327.70343969995156;328.0202820999548;329.2200041001197;329.2366873000283;333.72851889999583;None;9;0;333.72851889999583;None;;;;;;;;8;;;;;;;335.27837310009636;None;None;None;[];335.27837310009636;None;"['9', '9', '9']";"[0.35971960006281734, 0.6475315999705344, 0.9834136001300067]";335.27837310009636;None;0.6856856001541018;;;S11136;2022_Jan_06_1152;VideoMask;2021.1.2;119.37804073055224;
8.0;m;008_y_m_h_a.jpg;happy;9.0;sad_111.1.wmv;sad;7.0;incongruent;120.0;160.0;152.63076835312847;h_s;;;;;0;23;23;23;;;;;;;338.2866649001371;None;339.76139879995026;340.0781362000853;341.2120938000735;341.2368938999716;343.2115690000355;None;7;0;343.2115690000355;None;;;;;;;;2;;;;;;;344.7614160999656;None;None;None;[];344.7614160999656;None;"['7', '7', '7']";"[0.4846843001432717, 0.724642800167203, 1.1884665000252426]";344.7614160999656;None;0.570510899880901;;;S11136;2022_Jan_06_1152;VideoMask;2021.1.2;119.37804073055224;
0.0;f;040_y_f_s_a.jpg;sad;7.0;sad_67.2ns.avi;sad;7.0;congruent;130.0;160.0;220.9892697323079;s_s;;;;;0;24;24;24;;;;;;;347.7696865000762;None;349.85289949993603;350.16953389998525;351.2945709999185;351.31119689997286;360.5277146999724;None;7;0;360.5277146999724;None;;;;;;;;3;;;;;;;362.07751920004375;None;None;None;[];362.07751920004375;None;"['7', '7']";"[0.6563480999320745, 1.4642010000534356]";362.07751920004375;None;0.6142108000349253;;;S11136;2022_Jan_06_1152;VideoMask;2021.1.2;119.37804073055224;
8.0;m;008_y_m_s_a.jpg;sad;7.0;happy_29.1ns.avi;happy;9.0;incongruent;130.0;150.0;120.0316142834122;s_h;;;;;0;25;25;25;;;;;;;365.07758829998784;None;366.3028873000294;366.6189884999767;367.760599500034;367.7773696000222;370.4439962001052;None;9;0;370.4439962001052;None;;;;;;;;7;;;;;;;371.9855953999795;None;None;None;[];371.9855953999795;None;"['9', '9', '9']";"[0.3644872000440955, 0.6684567001648247, 1.0047439001500607]";371.9855953999795;None;0.7061910000629723;;;S11136;2022_Jan_06_1152;VideoMask;2021.1.2;119.37804073055224;
6.0;m;016_y_m_s_a.jpg;sad;7.0;sad_8.3ns.avi;sad;7.0;congruent;130.0;160.0;152.85371098242734;s_s;;;;;0;26;26;26;;;;;;;374.98548760009;None;376.50210490007885;376.81863300013356;377.9602908999659;377.97703770012595;385.71030579996295;None;7;0;385.71030579996295;None;;;;;;;;3;;;;;;;387.2600766001269;None;None;None;[];387.2600766001269;None;"['7', '7', '7']";"[0.42600489989854395, 0.6976669998839498, 1.370089199859649]";387.2600766001269;None;0.543640100164339;;;S11136;2022_Jan_06_1152;VideoMask;2021.1.2;119.37804073055224;
6.0;m;016_y_m_h_a.jpg;happy;9.0;sad_114.1.wmv;sad;7.0;incongruent;120.0;160.0;136.20550699298644;h_s;;;;;0;27;27;27;;;;;;;390.268291000044;None;391.6097691000905;391.9269552999176;393.05156720010564;393.0682616000995;395.06054440001026;None;7;0;395.06054440001026;None;;;;;;;;2;;;;;;;396.609802500112;None;None;None;[];396.609802500112;None;"['7', '7', '7']";"[0.48412529984489083, 0.7962221000343561, 1.108451999956742]";396.609802500112;None;0.7054918999783695;;;S11136;2022_Jan_06_1152;VideoMask;2021.1.2;119.37804073055224;
7.0;m;027_o_m_s_a.jpg;sad;7.0;happy_117.3.wmv;happy;9.0;incongruent;130.0;150.0;215.61964028550614;s_h;;;;;0;28;28;28;;;;;;;399.6097866999917;None;401.60948679992;401.92636610008776;403.0596185999457;403.0762263999786;405.05965110007674;None;9;0;405.05965110007674;None;;;;;;;;9;;;;;;;406.6094734000508;None;None;None;[];406.6094734000508;None;"['9', '9', '9', '9']";"[0.28458279999904335, 0.5085611999966204, 0.7403933999594301, 0.9725242001004517]";406.6094734000508;None;0.6504080002196133;;;S11136;2022_Jan_06_1152;VideoMask;2021.1.2;119.37804073055224;
6.0;m;016_y_m_h_a.jpg;happy;9.0;happy_9.2ns.avi;happy;9.0;congruent;120.0;150.0;130.52042428082717;h_h;;;;;0;29;29;29;;;;;;;409.60942790005356;None;410.9260216001421;411.2425083001144;412.40931320004165;412.4259679999668;418.30082100001164;None;9;0;418.30082100001164;None;;;;;;;;8;;;;;;;419.8507133999374;None;None;None;[];419.8507133999374;None;"['9', '9', '9', '9']";"[0.3952848999761045, 0.6351709999144077, 0.8831972000189126, 1.243375499965623]";419.8507133999374;None;0.49728550016880035;;;S11136;2022_Jan_06_1152;VideoMask;2021.1.2;119.37804073055224;
0.0;f;040_y_f_s_a.jpg;sad;7.0;happy_127.3.wmv;happy;9.0;incongruent;130.0;150.0;131.7195455720239;s_h;;;;;0;30;30;30;;;;;;;422.8507215999998;None;424.14211070002057;424.45882880012505;425.58398350002244;425.6005045999773;427.65892380010337;None;9;0;427.65892380010337;None;;;;;;;;8;;;;;;;429.2087702001445;None;None;None;[];429.2087702001445;None;"['9', '9', '9']";"[0.3332320998888463, 0.597154299961403, 0.8290631999261677]";429.2087702001445;None;0.6030564000830054;;;S11136;2022_Jan_06_1152;VideoMask;2021.1.2;119.37804073055224;
0.0;f;030_o_f_s_a.jpg;sad;7.0;happy_125.3.wmv;happy;9.0;incongruent;130.0;150.0;220.51454909128134;s_h;;;;;0;31;31;31;;;;;;;432.20877310005017;None;434.2835093000904;434.6002251000609;435.75085780001245;435.7750524999574;437.73355060000904;None;9;0;437.73355060000904;None;;;;;;;;7;;;;;;;439.2834570000414;None;None;None;[];439.2834570000414;None;"['9', '9']";"[0.30667700013145804, 0.5543585000559688]";439.2834570000414;None;0.6642817000392824;;;S11136;2022_Jan_06_1152;VideoMask;2021.1.2;119.37804073055224;
0.0;f;030_o_f_s_a.jpg;sad;7.0;sad_64.3ns.avi;sad;7.0;congruent;130.0;160.0;165.78667874766072;s_s;;;;;0;32;32;32;;;;;;;442.28335390007123;None;443.8832425000146;444.1998344999738;445.3582721001003;445.374764499953;450.3332625001203;None;7;0;450.3332625001203;None;;;;;;;;2;;;;;;;451.88300999999046;None;None;None;[];451.88300999999046;None;"['7', '7', '7']";"[0.4190402999520302, 0.6749516001436859, 0.9229337000288069]";451.88300999999046;None;0.5527184000238776;;;S11136;2022_Jan_06_1152;VideoMask;2021.1.2;119.37804073055224;
3.0;m;013_y_m_s_a.jpg;sad;7.0;sad_7.7ns.avi;sad;7.0;congruent;130.0;160.0;196.24182255763262;s_s;;;;;0;33;33;33;;;;;;;454.8913309001364;None;456.7410862999968;457.0577209999319;458.2076361000072;458.22439779993147;464.19097819994204;None;8;0;464.19097819994204;None;;;;;;;;4;;;;;;;465.7410178000573;None;None;None;[];465.7410178000573;None;['7'];[0.4489486999809742];465.7410178000573;None;0.903108699945733;;;S11136;2022_Jan_06_1152;VideoMask;2021.1.2;119.37804073055224;
3.0;m;013_y_m_h_a.jpg;happy;9.0;happy_9.1ns.avi;happy;9.0;congruent;120.0;150.0;165.1890303600433;h_h;;;;;0;34;34;34;;;;;;;468.74101429991424;None;470.3323324001394;470.649052800145;471.7833271001;471.81616630009376;475.00745770009235;None;9;0;475.00745770009235;None;;;;;;;;7;;;;;;;476.55729579995386;None;None;None;[];476.55729579995386;None;"['9', '9', '9']";"[0.3526995999272913, 0.6085967000108212, 0.8967609999235719]";476.55729579995386;None;0.6145359000656754;;;S11136;2022_Jan_06_1152;VideoMask;2021.1.2;119.37804073055224;
4.0;m;004_o_m_h_a.jpg;happy;9.0;sad_95.1ns.avi;sad;7.0;incongruent;120.0;160.0;152.68270002069931;h_s;;;;;0;35;35;35;;;;;;;479.55730310012586;None;481.0736269999761;481.39025719999336;482.52388809993863;482.54075550008565;491.3153834999539;None;7;0;491.3153834999539;None;;;;;;;;1;;;;;;;492.8984465999529;None;None;None;[];492.8984465999529;None;"['7', '7', '7', '7', '7']";"[0.003706900170072913, 0.3716289000585675, 0.579427600139752, 0.7633445002138615, 0.9552528001368046]";492.8984465999529;None;0.36256529996171594;;;S11136;2022_Jan_06_1152;VideoMask;2021.1.2;119.37804073055224;
3.0;m;013_y_m_h_a.jpg;happy;9.0;sad_113.2.wmv;sad;7.0;incongruent;120.0;160.0;217.4973891947951;h_s;;;;;0;36;36;36;;;;;;;495.9067641000729;None;497.93980700010434;498.25650010001846;499.38982639997266;499.4069487999659;501.389844099991;None;7;0;501.389844099991;None;;;;;;;;3;;;;;;;502.93980429996736;None;None;None;[];502.93980429996736;None;"['7', '7', '7']";"[0.4420958000700921, 0.7300417001824826, 1.1862568000797182]";502.93980429996736;None;0.7841431000269949;;;S11136;2022_Jan_06_1152;VideoMask;2021.1.2;119.37804073055224;
4.0;m;004_o_m_h_a.jpg;happy;9.0;happy_25.1ns.avi;happy;9.0;congruent;120.0;150.0;216.63044503818386;h_h;;;;;0;37;37;37;;;;;;;505.94801479997113;None;507.9730424999725;508.2895694000181;509.48960940004326;509.5062571000308;513.1145339000504;None;9;0;513.1145339000504;None;;;;;;;;7;;;;;;;514.6726828999817;None;None;None;[];514.6726828999817;None;"['9', '9']";"[0.5012518998701125, 0.8373356000520289]";514.6726828999817;None;0.747189300134778;;;S11136;2022_Jan_06_1152;VideoMask;2021.1.2;119.37804073055224;
4.0;m;004_o_m_s_a.jpg;sad;7.0;happy_131.2.wmv;happy;9.0;incongruent;130.0;150.0;181.38407540847405;s_h;;;;;0;38;38;38;;;;;;;517.6727724000812;None;519.3974494999275;519.7141829999164;520.8723862001207;520.8891596000176;522.8476440999657;None;9;0;522.8476440999657;None;;;;;;;;7;;;;;;;524.3974528999534;None;None;None;[];524.3974528999534;None;"['9', '9', '9']";"[0.3525209999643266, 0.6162187000736594, 0.9123442000709474]";524.3974528999534;None;0.7342092001345009;;;S11136;2022_Jan_06_1152;VideoMask;2021.1.2;119.37804073055224;
0.0;f;040_y_f_h_a.jpg;happy;9.0;happy_24.3ns.avi;happy;9.0;congruent;120.0;150.0;213.25460698950434;h_h;;;;;0;39;39;39;;;;;;;527.4057543999515;None;529.3804659000598;529.697212100029;530.8639027001336;530.8812341999728;532.7555468999781;None;9;0;532.7555468999781;None;;;;;;;;7;;;;;;;534.3054780000821;None;None;None;[];534.3054780000821;None;"['9', '9', '9']";"[0.36414510011672974, 0.6682227000128478, 0.9725155001506209]";534.3054780000821;None;0.8744028999935836;;;S11136;2022_Jan_06_1152;VideoMask;2021.1.2;119.37804073055224;
2.0;f;012_o_f_s_a.jpg;sad;7.0;happy_139.1.wmv;happy;9.0;incongruent;130.0;150.0;162.31500468041804;s_h;;;;;0;40;40;40;;;;;;;537.3138586999848;None;538.8717887999956;539.1885768999346;540.3219031000044;540.3383889000397;542.3218886000104;None;9;0;542.3218886000104;None;;;;;;;;7;;;;;;;543.8636884000152;None;None;None;[];543.8636884000152;None;"['9', '9', '9', '9']";"[0.4863209000322968, 0.9183324000332505, 1.31807789998129, 1.7904179999604821]";543.8636884000152;None;1.1320320998784155;;;S11136;2022_Jan_06_1152;VideoMask;2021.1.2;119.37804073055224;
0.0;f;030_o_f_h_a.jpg;happy;9.0;happy_24.1ns.avi;happy;9.0;congruent;120.0;150.0;168.36256624020774;h_h;;;;;0;41;41;41;;;;;;;546.871739000082;None;548.4883703999221;548.8049343000166;549.9389631000813;549.9632868999615;553.2632049999665;None;9;0;553.2632049999665;None;;;;;;;;7;;;;;;;554.8131973999552;None;None;None;[];554.8131973999552;None;"['9', '9']";"[0.4166478000115603, 1.1124905000906438]";554.8131973999552;None;0.49480500002391636;;;S11136;2022_Jan_06_1152;VideoMask;2021.1.2;119.37804073055224;
2.0;f;012_o_f_h_a.jpg;happy;9.0;sad_113.1.wmv;sad;7.0;incongruent;120.0;160.0;177.44551734737394;h_s;;;;;0;42;42;42;;;;;;;557.8131802000571;None;559.4962029000744;559.8130513001233;560.9544232001062;560.9712511000689;562.9462629000191;None;None;0;562.9462629000191;None;;;;;;;;3;;;;;;;564.4960555001162;None;None;None;[];564.4960555001162;None;"['7', '7']";"[0.26968919998034835, 0.8618528000079095]";564.4960555001162;None;;;;S11136;2022_Jan_06_1152;VideoMask;2021.1.2;119.37804073055224;
3.0;m;033_o_m_s_a.jpg;sad;7.0;sad_64.5ns.avi;sad;7.0;congruent;130.0;160.0;130.55717223801247;s_s;;;;;0;43;43;43;;;;;;;567.5045072000939;None;568.8377551999874;569.1543453000486;570.3126594999339;570.329348700121;576.8790569999255;None;7;0;576.8790569999255;None;;;;;;;;2;;;;;;;578.4291284000501;None;None;None;[];578.4291284000501;None;"['7', '7', '7']";"[0.4409068999812007, 0.6888432998675853, 0.920796699821949]";578.4291284000501;None;0.5268038001377136;;;S11136;2022_Jan_06_1152;VideoMask;2021.1.2;119.37804073055224;
7.0;m;027_o_m_h_a.jpg;happy;9.0;sad_117.1.wmv;sad;7.0;incongruent;120.0;160.0;181.28665202824095;h_s;;;;;0;44;44;44;;;;;;;581.42915849993;None;583.1537482999265;583.4705382001121;584.6045395000838;584.6376785999164;586.6037657000124;None;8;0;586.6037657000124;None;;;;;;;;4;;;;;;;588.1538381001446;None;None;None;[];588.1538381001446;None;['7'];[0.8840497001074255];588.1538381001446;None;1.4421073000412434;;;S11136;2022_Jan_06_1152;VideoMask;2021.1.2;119.37804073055224;
3.0;m;033_o_m_s_a.jpg;sad;7.0;happy_126.3.wmv;happy;9.0;incongruent;130.0;150.0;198.85252030535366;s_h;;;;;0;45;45;45;;;;;;;591.1540737999603;None;593.0204082999844;593.3370020999573;594.4701902000234;594.486739099957;596.4791558999568;None;9;0;596.4791558999568;None;;;;;;;;7;;;;;;;598.1951679999474;None;None;None;[];598.1951679999474;None;"['9', '9']";"[0.3867870999965817, 0.6908166001085192]";598.1951679999474;None;1.390824600122869;;;S11136;2022_Jan_06_1152;VideoMask;2021.1.2;119.37804073055224;
3.0;m;033_o_m_h_a.jpg;happy;9.0;sad_136.1.wmv;sad;7.0;incongruent;120.0;160.0;176.97002883463455;h_s;;;;;0;46;46;46;;;;;;;601.2035394001286;None;602.9031714000739;603.2203421001323;604.3449987999629;604.3616077001207;606.3533858000301;None;9;0;606.3533858000301;None;;;;;;;;6;;;;;;;607.8946678999346;None;None;None;[];607.8946678999346;None;['9'];[0.5913100000470877];607.8946678999346;None;1.1244293998461217;;;S11136;2022_Jan_06_1152;VideoMask;2021.1.2;119.37804073055224;
9.0;f;019_m_f_h_a.jpg;happy;9.0;happy_10.1ns.avi;happy;9.0;congruent;120.0;150.0;157.2463435658512;h_h;;;;;0;47;47;47;;;;;;;610.8948363000527;None;612.4613357000053;612.7779540999327;613.9363540001214;613.9529162999243;621.3527417001314;None;9;0;621.3527417001314;None;;;;;;;;8;;;;;;;622.9193047001027;None;None;None;[];622.9193047001027;None;"['9', '9', '9']";"[0.3904945000540465, 0.6463479001540691, 0.8865339001640677]";622.9193047001027;None;0.4770255000330508;;;S11136;2022_Jan_06_1152;VideoMask;2021.1.2;119.37804073055224;
2.0;f;012_o_f_h_a.jpg;happy;9.0;happy_2.2ns.avi;happy;9.0;congruent;120.0;150.0;206.34800317295262;h_h;;;;;0;48;48;48;;;;;;;625.9193522001151;None;627.8941621000413;628.2107115001418;629.3780138001312;629.394033000106;641.5439011000562;None;9;0;641.5439011000562;None;;;;;;;;8;;;;;;;643.1020810001064;None;None;None;[];643.1020810001064;None;"['9', '9', '9']";"[0.31968249985948205, 0.6074262999463826, 0.8317137998528779]";643.1020810001064;None;0.48574499995447695;;;S11136;2022_Jan_06_1152;VideoMask;2021.1.2;119.37804073055224;
3.0;m;033_o_m_h_a.jpg;happy;9.0;happy_24.2ns.avi;happy;9.0;congruent;120.0;150.0;167.9423847659953;h_h;;;;;0;49;49;49;;;;;;;646.1020100000314;None;647.7185414999258;648.0352783000562;649.2020523999818;649.2185615999624;652.8935523000546;None;9;0;652.8935523000546;None;;;;;;;;7;;;;;;;654.4350580000319;None;None;None;[];654.4350580000319;None;"['9', '9']";"[0.3148024999536574, 0.5786301998887211]";654.4350580000319;None;0.672478900058195;;;S11136;2022_Jan_06_1152;VideoMask;2021.1.2;119.37804073055224;
1.0;f;021_o_f_s_a.jpg;sad;7.0;happy_61.2ns.avi;happy;9.0;incongruent;130.0;150.0;210.94664004826666;s_h;;;;;0;50;50;50;;;;;;;657.4350565001369;None;659.4266296999995;659.7431282000616;660.9512438001111;660.9681876001414;665.4097607999574;None;9;0;665.4097607999574;None;;;;;;;;8;;;;;;;666.9596816999838;None;None;None;[];666.9596816999838;None;"['9', '9', '9', '9', '9', '9']";"[0.3101903998758644, 0.5819589998573065, 0.8539032998960465, 1.4941197000443935, 2.0781266998965293, 2.526132900035009]";666.9596816999838;None;0.5479878999758512;;;S11136;2022_Jan_06_1152;VideoMask;2021.1.2;119.37804073055224;
4.0;m;004_o_m_s_a.jpg;sad;7.0;sad_2.4ns.avi;sad;7.0;congruent;130.0;160.0;153.02079367163634;s_s;;;;;0;51;51;51;;;;;;;669.9596269000322;None;671.459455500124;671.7761476000305;672.959327199962;672.9761514000129;680.8676696000621;None;7;0;680.8676696000621;None;;;;;;;;1;;;;;;;683.1591517000925;None;None;None;[];683.1591517000925;None;"['7', '7', '7', '7', '7']";"[0.13467300008051097, 0.47870479989796877, 0.6945855999365449, 0.918418699875474, 1.2148309999611229]";683.1591517000925;None;0.4583272999152541;;;S11136;2022_Jan_06_1152;VideoMask;2021.1.2;119.37804073055224;
8.0;m;008_y_m_h_a.jpg;happy;9.0;happy_1.2ns.avi;happy;9.0;congruent;120.0;150.0;210.98946429383824;h_h;;;;;0;52;52;52;;;;;;;686.1590913999826;None;688.183842800092;688.5005870999303;689.7006292000879;689.7172668999992;702.4252673999872;None;9;0;702.4252673999872;None;;;;;;;;8;;;;;;;703.9752060000319;None;None;None;[];703.9752060000319;None;"['9', '9', '9']";"[0.5506599999498576, 0.8785504000261426, 1.3989007000345737]";703.9752060000319;None;0.5883663999848068;;;S11136;2022_Jan_06_1152;VideoMask;2021.1.2;119.37804073055224;
2.0;f;012_o_f_s_a.jpg;sad;7.0;happy_52.2ns.avi;happy;9.0;incongruent;130.0;150.0;172.57202848318138;s_h;;;;;0;53;53;53;;;;;;;706.9752045001369;None;708.633241500007;708.9500021999702;710.1255451000761;710.1499930999707;713.6338512001093;None;9;0;713.6338512001093;None;;;;;;;;9;;;;;;;715.1830126999412;None;None;None;[];715.1830126999412;None;"['9', '9', '9', '9']";"[0.3186084998305887, 0.5665672000031918, 0.8386227998416871, 1.1747662997804582]";715.1830126999412;None;0.6599155999720097;;;S11136;2022_Jan_06_1152;VideoMask;2021.1.2;119.37804073055224;
9.0;f;019_m_f_s_a.jpg;sad;7.0;happy_61.1ns.avi;happy;9.0;incongruent;130.0;150.0;181.3003220572762;s_h;;;;;0;54;54;54;;;;;;;718.1914300001226;None;719.9663985001389;720.2828494000714;721.4586247999687;721.4912050999701;728.8077507000417;None;8;0;728.8077507000417;None;;;;;;;;5;;;;;;;730.3576881999616;None;None;None;[];730.3576881999616;None;['9'];[1.9360692000482231];730.3576881999616;None;0.573902599979192;;;S11136;2022_Jan_06_1152;VideoMask;2021.1.2;119.37804073055224;
0.0;f;030_o_f_h_a.jpg;happy;9.0;sad_133.1.wmv;sad;7.0;incongruent;120.0;160.0;198.86251500867985;h_s;;;;;0;55;55;55;;;;;;;733.3659725000616;None;735.2324660001323;735.5495341999922;736.6742235999554;736.6908342000097;738.6825775001198;None;7;0;738.6825775001198;None;;;;;;;;1;;;;;;;740.2323861999903;None;None;None;[];740.2323861999903;None;"['7', '7', '7', '7']";"[0.34920400008559227, 0.589230100158602, 0.8054439001716673, 1.029538800008595]";740.2323861999903;None;0.6832457000855356;;;S11136;2022_Jan_06_1152;VideoMask;2021.1.2;119.37804073055224;
0.0;f;040_y_f_h_a.jpg;happy;9.0;sad_128.2.wmv;sad;7.0;incongruent;120.0;160.0;206.10005857915363;h_s;;;;;0;56;56;56;;;;;;;743.2324814000167;None;745.1571619999595;745.4738064999692;746.606977700023;746.6238697001245;748.6154853000771;None;7;0;748.6154853000771;None;;;;;;;;3;;;;;;;750.1654147999361;None;None;None;[];750.1654147999361;None;"['7', '7']";"[0.4003537998069078, 0.6644295998848975]";750.1654147999361;None;0.590256999945268;;;S11136;2022_Jan_06_1152;VideoMask;2021.1.2;119.37804073055224;
1.0;f;021_o_f_s_a.jpg;sad;7.0;sad_9.5ns.avi;sad;7.0;congruent;130.0;160.0;206.16642757875042;s_s;;;;;0;57;57;57;;;;;;;753.1652905999217;None;755.0986331999302;755.4151530000381;756.5484289999586;756.5650522001088;762.2733426999766;None;7;0;762.2733426999766;None;;;;;;;;3;;;;;;;763.8233195000794;None;None;None;[];763.8233195000794;None;"['7', '7']";"[0.3745768000371754, 1.1265396000817418]";763.8233195000794;None;0.5643233000300825;;;S11136;2022_Jan_06_1152;VideoMask;2021.1.2;119.37804073055224;
1.0;f;021_o_f_h_a.jpg;happy;9.0;happy_12.1ns.avi;happy;9.0;congruent;120.0;150.0;132.59080005900228;h_h;;;;;0;58;58;58;;;;;;;766.8316951000597;None;768.1647401000373;768.4814154999331;769.6061517000198;769.6231273000594;777.2312597001437;None;8;0;777.2312597001437;None;;;;;;;;6;;;;;;;778.7810999001376;None;None;None;[];778.7810999001376;None;['9'];[0.4885543000418693];778.7810999001376;None;0.5744431999046355;;;S11136;2022_Jan_06_1152;VideoMask;2021.1.2;119.37804073055224;
3.0;m;013_y_m_s_a.jpg;sad;7.0;happy_56.2ns.avi;happy;9.0;incongruent;130.0;150.0;163.39234110935848;s_h;;;;;0;59;59;59;;;;;;;781.7811805999372;None;783.3732290000189;783.6893895999528;784.9065771999303;784.9392576999962;789.8478308001067;None;9;0;789.8478308001067;None;;;;;;;;7;;;;;;;791.3974951999262;None;None;None;[];791.3974951999262;None;"['9', '9']";"[0.3921769999433309, 0.8081571999937296]";791.3974951999262;None;0.8617731998674572;;;S11136;2022_Jan_06_1152;VideoMask;2021.1.2;119.37804073055224;
;;;;;;;;;;;;;;;;;;;;;;;;;;;;;;;;;;;;;;;;;;;;;;;;;;;;;;;;;;;;;;;;;794.4057458001189;None;;;;;;
