primePerson;primeGender;prime;primeEmotion;corrAnsPrime;target;targetEmotion;corrAnsTar;Cond;ID_Primer;ID_Target;JitterTime;Condition;example.thisRepN;example.thisTrialN;example.thisN;example.thisIndex;study.thisRepN;study.thisTrialN;study.thisN;study.thisIndex;MR_trigger_time;MR_trigger_number;text_intro.started;text_intro.stopped;text_probe.started;text_probe.stopped;polygon_ISI.started;polygon_ISI.stopped;polygon.started;polygon.stopped;primerImage.started;primerImage.stopped;response.started;response.stopped;key_resp.keys;key_resp.corr;key_resp.started;key_resp.stopped;slider_Text.started;slider_Text.stopped;slider_ex.response;slider_ex.rt;slider_ex.history;slider_ex.started;slider_ex.stopped;Rating;slider_resp_response.keys;slider_resp_response.started;slider_resp_response.stopped;slider_resp_response.rt;text_start.started;text_start.stopped;key_resp.rt;text_slider.started;text_slider.stopped;slider_stud.response;slider_stud.rt;slider_stud.history;slider_stud.started;slider_stud.stopped;slider_resp_study.keys;slider_resp_study.rt;slider_resp_study.started;slider_resp_study.stopped;text_ende.started;text_ende.stopped;participant;date;expName;psychopyVersion;frameRate;
1111;m;1111_m_m_h_a.jpg;happy;9;example_30.4ns.avi;neutral;7;incongruent;120.0;170.0;189.5874364012288;;0;0;0;0;;;;;23.4339180001989;1;23.512516900198534;25.512655300088227;25.512655300088227;None;27.529792400076985;None;29.7626580002252;30.078967900015414;31.304099700180814;31.32077240012586;35.55463750008494;None;None;0;35.55463750008494;None;37.12875290005468;None;None;None;[];37.12875290005468;None;5;None;37.12875290005468;None;;;;;;;;;;;;;;;;;;S11312;2022_Mar_23_1829;VideoMask;2021.1.2;120.0569550058914;
1113;f;1113_y_f_s_a.jpg;sad;7;example_30.3ns.avi;neutral;7;incongruent;130.0;170.0;229.02432995836998;;0;1;1;1;;;;;;;;;;;40.162141900043935;None;42.27867230004631;42.595366100082174;43.74537320015952;43.762076400220394;45.72865659999661;None;None;0;45.72865659999661;None;47.27846960001625;None;None;None;[];47.27846960001625;None;5;"['9', '7']";47.27846960001625;None;"[1.5128001000266522, 1.8727621999569237]";;;;;;;;;;;;;;;;;S11312;2022_Mar_23_1829;VideoMask;2021.1.2;120.0569550058914;
9.0;f;019_m_f_h_a.jpg;happy;9.0;sad_115.1.wmv;sad;7.0;incongruent;120.0;160.0;128.09063432376465;h_s;;;;;0;0;0;0;;;;;;;51.311770900152624;None;52.58659410011023;52.90337260020897;54.03644060017541;54.05320340022445;56.03670410020277;None;7;0;56.03670410020277;None;;;;;;;;2;;;;;50.27849310007878;None;0.5708472998812795;57.586508500156924;None;None;None;[];57.586508500156924;None;"['7', '7', '7', '7']";"[0.484665900003165, 0.6766061999369413, 1.1410075000021607, 2.148906300077215]";57.586508500156924;None;;;S11312;2022_Mar_23_1829;VideoMask;2021.1.2;120.0569550058914;
3.0;m;033_o_m_s_a.jpg;sad;7.0;sad_94.2ns.avi;sad;7.0;congruent;130.0;160.0;182.29120173647655;s_s;;;;;0;1;1;1;;;;;;;60.58649930008687;None;62.30296890018508;62.61972040007822;63.76983040012419;63.78644530009478;66.44475440005772;None;7;0;66.44475440005772;None;;;;;;;;4;;;;;;;0.674442799994722;67.99456980009563;None;None;None;[];67.99456980009563;None;['7'];[0.3485657998826355];67.99456980009563;None;;;S11312;2022_Mar_23_1829;VideoMask;2021.1.2;120.0569550058914;
8.0;m;008_y_m_h_a.jpg;happy;9.0;happy_26.1ns.avi;happy;9.0;congruent;120.0;150.0;155.9437854594882;h_h;;;;;0;2;2;2;;;;;;;70.99506360013038;None;72.47766180010512;72.79438130022027;73.94448760012165;73.96107630012557;75.91946910019033;None;9;0;75.91946910019033;None;;;;;;;;8;;;;;;;0.47169399983249605;77.46930460003205;None;None;None;[];77.46930460003205;None;"['9', '9', '9']";"[0.4099431000649929, 0.6899916001129895, 2.0098079000599682]";77.46930460003205;None;;;S11312;2022_Mar_23_1829;VideoMask;2021.1.2;120.0569550058914;
0.0;f;040_y_f_h_a.jpg;happy;9.0;sad_138.1.wmv;sad;7.0;incongruent;120.0;160.0;133.99071306426532;h_s;;;;;0;3;3;3;;;;;;;80.47747680009343;None;81.80238280002959;82.11920470022596;83.24417570000514;83.26078700018115;85.25246410002;None;None;0;85.25246410002;None;;;;;;;;6;;;;;;;;86.8022141000256;None;None;None;[];86.8022141000256;None;"['9', '9', '7', '9', '9']";"[0.2609840000513941, 1.0690245998557657, 1.6934865999501199, 2.220939500024542, 2.5010074998717755]";86.8022141000256;None;;;S11312;2022_Mar_23_1829;VideoMask;2021.1.2;120.0569550058914;
8.0;f;028_y_f_s_a.jpg;sad;7.0;sad_64.2ns.avi;sad;7.0;congruent;130.0;160.0;229.88540597086478;s_s;;;;;0;4;4;4;;;;;;;89.80231980001554;None;91.95204260013998;92.26880850014277;93.45255500008352;93.47711420012638;104.41004290012643;None;7;0;104.41004290012643;None;;;;;;;;3;;;;;;;0.509131999919191;105.96014160010964;None;None;None;[];105.96014160010964;None;"['7', '7']";"[0.6071342998184264, 0.8551584999077022]";105.96014160010964;None;;;S11312;2022_Mar_23_1829;VideoMask;2021.1.2;120.0569550058914;
7.0;m;027_o_m_s_a.jpg;sad;7.0;sad_10.4ns.avi;sad;7.0;congruent;130.0;160.0;185.20129417468752;s_s;;;;;0;5;5;5;;;;;;;108.95998630020767;None;110.70981760020368;111.02644410007633;112.21053710021079;112.23494640015997;115.32642070017755;None;7;0;115.32642070017755;None;;;;;;;;2;;;;;;;0.5768619000446051;116.87636280013248;None;None;None;[];116.87636280013248;None;"['7', '7', '7', '7', '7']";"[0.37087469990365207, 0.5787361001130193, 0.8267588000744581, 1.4028290000278503, 2.490993099985644]";116.87636280013248;None;;;S11312;2022_Mar_23_1829;VideoMask;2021.1.2;120.0569550058914;
2.0;f;012_o_f_s_a.jpg;sad;7.0;sad_7.5ns.avi;sad;7.0;congruent;130.0;160.0;220.27842655424388;s_s;;;;;0;6;6;6;;;;;;;119.87639520014636;None;121.90105050010607;122.21787150017917;123.40162470005453;123.42622430017218;126.14283270016313;None;7;0;126.14283270016313;None;;;;;;;;2;;;;;;;0.48836960014887154;127.69273680006154;None;None;None;[];127.69273680006154;None;"['7', '7', '7']";"[0.46677649999037385, 0.6664206001441926, 0.8904840999748558]";127.69273680006154;None;;;S11312;2022_Mar_23_1829;VideoMask;2021.1.2;120.0569550058914;
2.0;f;012_o_f_h_a.jpg;happy;9.0;happy_27.1ns.avi;happy;9.0;congruent;120.0;150.0;146.44967055810616;h_h;;;;;0;7;7;7;;;;;;;130.69263270008378;None;132.1176152001135;132.4341811002232;133.5930114001967;133.61756160017103;136.0592186001595;None;9;0;136.0592186001595;None;;;;;;;;8;;;;;;;0.523912200005725;137.61742720007896;None;None;None;[];137.61742720007896;None;"['9', '9', '9', '9']";"[0.43774059996940196, 0.7097626000177115, 1.1176990999374539, 2.845940199913457]";137.61742720007896;None;;;S11312;2022_Mar_23_1829;VideoMask;2021.1.2;120.0569550058914;
8.0;f;028_y_f_h_a.jpg;happy;9.0;sad_119.1.wmv;sad;7.0;incongruent;120.0;160.0;148.71526953572538;h_s;;;;;0;8;8;8;;;;;;;140.62586280005053;None;142.07543670013547;142.40076420013793;143.5338983000256;143.55056300014257;145.59215170005336;None;7;0;145.59215170005336;None;;;;;;;;3;;;;;;;0.47901510004885495;147.14212190010585;None;None;None;[];147.14212190010585;None;"['7', '7', '7']";"[0.3289455999620259, 0.5688734001014382, 0.9132270000409335]";147.14212190010585;None;;;S11312;2022_Mar_23_1829;VideoMask;2021.1.2;120.0569550058914;
6.0;m;016_y_m_s_a.jpg;sad;7.0;happy_60.4ns.avi;happy;9.0;incongruent;130.0;150.0;126.02367393611817;s_h;;;;;0;9;9;9;;;;;;;150.15046030003577;None;151.41690040007234;151.73355960007757;152.8835975001566;152.90025270008482;158.6586487002205;None;8;0;158.6586487002205;None;;;;;;;;6;;;;;;;0.6125626000575721;160.20838970015757;None;None;None;[];160.20838970015757;None;['9'];[1.27867990010418];160.20838970015757;None;;;S11312;2022_Mar_23_1829;VideoMask;2021.1.2;120.0569550058914;
9.0;f;019_m_f_s_a.jpg;sad;7.0;sad_8.4ns.avi;sad;7.0;congruent;130.0;160.0;171.6633093155257;s_s;;;;;0;10;10;10;;;;;;;163.2166376002133;None;164.89142290013842;165.20807340019383;166.44190980005078;166.4665602000896;174.4745879000984;None;7;0;174.4745879000984;None;;;;;;;;4;;;;;;;0.37254679994657636;176.02459760010242;None;None;None;[];176.02459760010242;None;['7'];[0.2785905001219362];176.02459760010242;None;;;S11312;2022_Mar_23_1829;VideoMask;2021.1.2;120.0569550058914;
4.0;m;004_o_m_h_a.jpg;happy;9.0;happy_1.1ns.avi;happy;9.0;congruent;120.0;150.0;203.50057144619865;h_h;;;;;0;11;11;11;;;;;;;179.03293610014953;None;180.99918100005016;181.3159310000483;182.49944750010036;182.51601610006765;196.93226770008914;None;9;0;196.93226770008914;None;;;;;;;;7;;;;;;;0.3388815000653267;198.4821857002098;None;None;None;[];198.4821857002098;None;"['9', '9']";"[0.23684140015393496, 0.5008732001297176]";198.4821857002098;None;;;S11312;2022_Mar_23_1829;VideoMask;2021.1.2;120.0569550058914;
7.0;m;027_o_m_h_a.jpg;happy;9.0;happy_20.1ns.avi;happy;9.0;congruent;120.0;150.0;152.91127178874285;h_h;;;;;0;12;12;12;;;;;;;201.48222940019332;None;202.98211940005422;203.29851400014013;204.44038700009696;204.45692640007474;207.44859870010987;None;9;0;207.44859870010987;None;;;;;;;;7;;;;;;;0.4384566000662744;208.99854200007394;None;None;None;[];208.99854200007394;None;"['9', '9']";"[0.2725341999903321, 0.8486515998374671]";208.99854200007394;None;;;S11312;2022_Mar_23_1829;VideoMask;2021.1.2;120.0569550058914;
0.0;f;040_y_f_s_a.jpg;sad;7.0;sad_94.3ns.avi;sad;7.0;congruent;130.0;160.0;155.27414203894395;s_s;;;;;0;13;13;13;;;;;;;211.99852730007842;None;213.48992580012418;213.8066275001038;215.00648430013098;215.0231353000272;217.56499460013583;None;7;0;217.56499460013583;None;;;;;;;;4;;;;;;;0.34612779994495213;219.11484490009025;None;None;None;[];219.11484490009025;None;['7'];[0.28443140001036227];219.11484490009025;None;;;S11312;2022_Mar_23_1829;VideoMask;2021.1.2;120.0569550058914;
0.0;f;030_o_f_s_a.jpg;sad;7.0;sad_68.1ns.avi;sad;7.0;congruent;130.0;160.0;158.9411396037211;s_s;;;;;0;14;14;14;;;;;;;222.11476890021004;None;223.65626500011422;223.97302010003477;225.15672670002095;225.18115980015136;232.5311398000922;None;7;0;232.5311398000922;None;;;;;;;;3;;;;;;;0.33218739996664226;234.0810732000973;None;None;None;[];234.0810732000973;None;"['7', '7']";"[0.262115600053221, 0.4540236000902951]";234.0810732000973;None;;;S11312;2022_Mar_23_1829;VideoMask;2021.1.2;120.0569550058914;
0.0;f;030_o_f_h_a.jpg;happy;9.0;sad_127.1.wmv;sad;7.0;incongruent;120.0;160.0;180.59976631384873;h_s;;;;;0;15;15;15;;;;;;;237.0809977001045;None;238.7892514001578;239.10582770011388;240.23926820000634;240.25586040015332;242.23935540020466;None;7;0;242.23935540020466;None;;;;;;;;4;;;;;;;0.7597880000248551;243.7891032001935;None;None;None;[];243.7891032001935;None;['7'];[0.3061448000371456];243.7891032001935;None;;;S11312;2022_Mar_23_1829;VideoMask;2021.1.2;120.0569550058914;
8.0;m;008_y_m_s_a.jpg;sad;7.0;happy_133.3.wmv;happy;9.0;incongruent;130.0;150.0;152.577966552593;s_h;;;;;0;16;16;16;;;;;;;246.78908860008232;None;248.27218000008725;248.5889160002116;249.71396560012363;249.73057160014287;251.72218870022334;None;9;0;251.72218870022334;None;;;;;;;;6;;;;;;;0.37286100001074374;253.27217940008268;None;None;None;[];253.27217940008268;None;['9'];[0.21501170005649328];253.27217940008268;None;;;S11312;2022_Mar_23_1829;VideoMask;2021.1.2;120.0569550058914;
3.0;m;033_o_m_h_a.jpg;happy;9.0;sad_128.1.wmv;sad;7.0;incongruent;120.0;160.0;171.0492454518585;h_s;;;;;0;17;17;17;;;;;;;256.2804223001003;None;257.9218616001308;258.23855570005253;259.3717797000427;259.3886633000802;261.3719417001121;None;7;0;261.3719417001121;None;;;;;;;;3;;;;;;;0.48323939996771514;262.92181620001793;None;None;None;[];262.92181620001793;None;"['7', '7']";"[0.26133350003510714, 0.6052349000237882]";262.92181620001793;None;;;S11312;2022_Mar_23_1829;VideoMask;2021.1.2;120.0569550058914;
1.0;f;021_o_f_h_a.jpg;happy;9.0;sad_116.1.wmv;sad;7.0;incongruent;120.0;160.0;184.06847610053055;h_s;;;;;0;18;18;18;;;;;;;265.930177600123;None;267.6798811000772;267.9965702001937;269.13802030007355;269.15492160012946;271.1299878000282;None;7;0;271.1299878000282;None;;;;;;;;4;;;;;;;0.4129602999892086;272.6798537001014;None;None;None;[];272.6798537001014;None;['7'];[0.2554433001205325];272.6798537001014;None;;;S11312;2022_Mar_23_1829;VideoMask;2021.1.2;120.0569550058914;
4.0;m;004_o_m_s_a.jpg;sad;7.0;happy_28.1ns.avi;happy;9.0;incongruent;130.0;150.0;157.40741103039684;s_h;;;;;0;19;19;19;;;;;;;275.6882674000226;None;277.21291900007054;277.52956380019896;278.7628295000177;278.7796384000685;283.05460440018214;None;9;0;283.05460440018214;None;;;;;;;;9;;;;;;;0.4806170999072492;284.6044628000818;None;None;None;[];284.6044628000818;None;"['9', '9', '9', '9', '9', '9', '9']";"[0.20282389991916716, 0.4426587999332696, 0.6185365000274032, 0.8507336999755353, 1.1066029998473823, 1.402704699896276, 1.7146778998430818]";284.6044628000818;None;;;S11312;2022_Mar_23_1829;VideoMask;2021.1.2;120.0569550058914;
8.0;f;028_y_f_s_a.jpg;sad;7.0;happy_122.3.wmv;happy;9.0;incongruent;130.0;150.0;171.8670540936116;s_h;;;;;0;20;20;20;;;;;;;287.604372800095;None;289.24587450013496;289.5626235001255;290.6959689001087;290.71264909999445;292.6959096000064;None;9;0;292.6959096000064;None;;;;;;;;6;;;;;;;0.43120509991422296;294.2458630001638;None;None;None;[];294.2458630001638;None;['9'];[0.21733340015634894];294.2458630001638;None;;;S11312;2022_Mar_23_1829;VideoMask;2021.1.2;120.0569550058914;
8.0;m;008_y_m_s_a.jpg;sad;7.0;sad_6.5ns.avi;sad;7.0;congruent;130.0;160.0;170.39333839271438;s_s;;;;;0;21;21;21;;;;;;;297.2459411001764;None;298.87890950008295;299.19562230003066;300.3371691000648;300.35399370011874;305.3287375001237;None;7;0;305.3287375001237;None;;;;;;;;3;;;;;;;0.3903727000579238;306.87878090003505;None;None;None;[];306.87878090003505;None;"['7', '7']";"[0.20827790000475943, 0.4322456999216229]";306.87878090003505;None;;;S11312;2022_Mar_23_1829;VideoMask;2021.1.2;120.0569550058914;
8.0;f;028_y_f_h_a.jpg;happy;9.0;happy_23.1ns.avi;happy;9.0;congruent;120.0;150.0;225.70986890587952;h_h;;;;;0;22;22;22;;;;;;;309.8787539000623;None;311.9618426000234;312.2785787000321;313.461760800099;313.47854010015726;317.9868211001158;None;9;0;317.9868211001158;None;;;;;;;;9;;;;;;;0.3082019998691976;319.53668570006266;None;None;None;[];319.53668570006266;None;"['9', '9', '9', '9']";"[0.19844809989444911, 0.45445619989186525, 0.6545006998348981, 0.9344828999601305]";319.53668570006266;None;;;S11312;2022_Mar_23_1829;VideoMask;2021.1.2;120.0569550058914;
8.0;m;008_y_m_h_a.jpg;happy;9.0;sad_111.1.wmv;sad;7.0;incongruent;120.0;160.0;152.63076835312847;h_s;;;;;0;23;23;23;;;;;;;322.5366003999952;None;324.0114517000038;324.32814009999856;325.4621376001742;325.48656840017065;327.4615381001495;None;7;0;327.4615381001495;None;;;;;;;;4;;;;;;;0.3138365999329835;329.0031017002184;None;None;None;[];329.0031017002184;None;"['7', '7', '7']";"[0.25215219985693693, 0.6679881999734789, 1.1080125998705626]";329.0031017002184;None;;;S11312;2022_Mar_23_1829;VideoMask;2021.1.2;120.0569550058914;
0.0;f;040_y_f_s_a.jpg;sad;7.0;sad_67.2ns.avi;sad;7.0;congruent;130.0;160.0;220.9892697323079;s_s;;;;;0;24;24;24;;;;;;;332.00299340020865;None;334.06962600001134;334.3861558001954;335.63619340001605;335.65279920003377;344.75260780006647;None;7;0;344.75260780006647;None;;;;;;;;4;;;;;;;0.6543807000853121;346.30254980013706;None;None;None;[];346.30254980013706;None;['7'];[2.264534200076014];346.30254980013706;None;;;S11312;2022_Mar_23_1829;VideoMask;2021.1.2;120.0569550058914;
8.0;m;008_y_m_s_a.jpg;sad;7.0;happy_29.1ns.avi;happy;9.0;incongruent;130.0;150.0;120.0316142834122;s_h;;;;;0;25;25;25;;;;;;;349.3026067002211;None;350.5022856001742;350.81905760010704;351.96109230001457;351.9777411001269;354.64396380004473;None;9;0;354.64396380004473;None;;;;;;;;6;;;;;;;0.5871755999978632;356.19387850002386;None;None;None;[];356.19387850002386;None;"['9', '9']";"[0.2691615999210626, 0.6930682000238448]";356.19387850002386;None;;;S11312;2022_Mar_23_1829;VideoMask;2021.1.2;120.0569550058914;
6.0;m;016_y_m_s_a.jpg;sad;7.0;sad_8.3ns.avi;sad;7.0;congruent;130.0;160.0;152.85371098242734;s_s;;;;;0;26;26;26;;;;;;;359.1939374001231;None;360.685290500056;361.0018890001811;362.1351185000967;362.1519105001353;369.89346500020474;None;7;0;369.89346500020474;None;;;;;;;;5;;;;;;;0.4335560000035912;371.44343640003353;None;None;None;[];371.44343640003353;None;None;;371.44343640003353;None;;;S11312;2022_Mar_23_1829;VideoMask;2021.1.2;120.0569550058914;
6.0;m;016_y_m_h_a.jpg;happy;9.0;sad_114.1.wmv;sad;7.0;incongruent;120.0;160.0;136.20550699298644;h_s;;;;;0;27;27;27;;;;;;;374.46819750010036;None;375.81815800000913;376.13485820009373;377.26819299999624;377.28489330015145;379.2681527000386;None;7;0;379.2681527000386;None;;;;;;;;4;;;;;;;0.3869296000339091;380.81813180004247;None;None;None;[];380.81813180004247;None;['7'];[0.7008040000218898];380.81813180004247;None;;;S11312;2022_Mar_23_1829;VideoMask;2021.1.2;120.0569550058914;
7.0;m;027_o_m_s_a.jpg;sad;7.0;happy_117.3.wmv;happy;9.0;incongruent;130.0;150.0;215.61964028550614;s_h;;;;;0;28;28;28;;;;;;;383.81808380014263;None;385.8262478001416;386.14280750020407;387.2679463000968;387.2845949002076;389.276179500157;None;9;0;389.276179500157;None;;;;;;;;6;;;;;;;0.3869471999350935;390.8261357001029;None;None;None;[];390.8261357001029;None;"['9', '9']";"[0.46105689997784793, 0.9008810000959784]";390.8261357001029;None;;;S11312;2022_Mar_23_1829;VideoMask;2021.1.2;120.0569550058914;
6.0;m;016_y_m_h_a.jpg;happy;9.0;happy_9.2ns.avi;happy;9.0;congruent;120.0;150.0;130.52042428082717;h_h;;;;;0;29;29;29;;;;;;;393.82616540021263;None;395.12586900009774;395.44259210000746;396.56772180018015;396.5842804000713;402.5009211001452;None;9;0;402.5009211001452;None;;;;;;;;6;;;;;;;0.3385581998154521;404.0507383001968;None;None;None;[];404.0507383001968;None;['9'];[0.2842951000202447];404.0507383001968;None;;;S11312;2022_Mar_23_1829;VideoMask;2021.1.2;120.0569550058914;
0.0;f;040_y_f_s_a.jpg;sad;7.0;happy_127.3.wmv;happy;9.0;incongruent;130.0;150.0;131.7195455720239;s_h;;;;;0;30;30;30;;;;;;;407.0507052000612;None;408.3504668001551;408.6672125000041;409.7923385000322;409.8089356001001;411.86713360017166;None;9;0;411.86713360017166;None;;;;;;;;6;;;;;;;0.4999148000497371;413.41707140021026;None;None;None;[];413.41707140021026;None;['9'];[0.21403479995205998];413.41707140021026;None;;;S11312;2022_Mar_23_1829;VideoMask;2021.1.2;120.0569550058914;
0.0;f;030_o_f_s_a.jpg;sad;7.0;happy_125.3.wmv;happy;9.0;incongruent;130.0;150.0;220.51454909128134;s_h;;;;;0;31;31;31;;;;;;;416.41702970000915;None;418.4668631001841;418.7835217001848;419.9249577000737;419.94195650005713;421.91671650018543;None;9;0;421.91671650018543;None;;;;;;;;5;;;;;;;0.3463832999113947;423.46685970015824;None;None;None;[];423.46685970015824;None;None;;423.46685970015824;None;;;S11312;2022_Mar_23_1829;VideoMask;2021.1.2;120.0569550058914;
0.0;f;030_o_f_s_a.jpg;sad;7.0;sad_64.3ns.avi;sad;7.0;congruent;130.0;160.0;165.78667874766072;s_s;;;;;0;32;32;32;;;;;;;426.4917356001679;None;428.083328000037;428.3998880002182;429.5333383001853;429.54996360000223;434.5331278000958;None;7;0;434.5331278000958;None;;;;;;;;4;;;;;;;0.44993260013870895;436.0830600000918;None;None;None;[];436.0830600000918;None;['7'];[0.3479708998929709];436.0830600000918;None;;;S11312;2022_Mar_23_1829;VideoMask;2021.1.2;120.0569550058914;
3.0;m;013_y_m_s_a.jpg;sad;7.0;sad_7.7ns.avi;sad;7.0;congruent;130.0;160.0;196.24182255763262;s_s;;;;;0;33;33;33;;;;;;;439.0830481001176;None;440.9327788001392;441.2494930000976;442.4244385000784;442.4410673000384;448.382826999994;None;8;0;448.382826999994;None;;;;;;;;5;;;;;;;1.3040882998611778;449.9326171001885;None;None;None;[];449.9326171001885;None;None;;449.9326171001885;None;;;S11312;2022_Mar_23_1829;VideoMask;2021.1.2;120.0569550058914;
3.0;m;013_y_m_h_a.jpg;happy;9.0;happy_9.1ns.avi;happy;9.0;congruent;120.0;150.0;165.1890303600433;h_h;;;;;0;34;34;34;;;;;;;452.9576129000634;None;454.5406920001842;454.8575037000701;456.0244923001155;456.04914190014824;459.2156173000112;None;9;0;459.2156173000112;None;;;;;;;;6;;;;;;;0.3674511997960508;460.8072826000862;None;None;None;[];460.8072826000862;None;"['9', '9']";"[0.5357790000271052, 0.9757493000943214]";460.8072826000862;None;;;S11312;2022_Mar_23_1829;VideoMask;2021.1.2;120.0569550058914;
4.0;m;004_o_m_h_a.jpg;happy;9.0;sad_95.1ns.avi;sad;7.0;incongruent;120.0;160.0;152.68270002069931;h_s;;;;;0;35;35;35;;;;;;;463.8072587000206;None;465.30717710009776;465.6237190000247;466.82417830009945;466.84053730010055;475.5486224000342;None;7;0;475.5486224000342;None;;;;;;;;4;;;;;;;0.39446089998818934;477.10674240021035;None;None;None;[];477.10674240021035;None;['7'];[0.19642699998803437];477.10674240021035;None;;;S11312;2022_Mar_23_1829;VideoMask;2021.1.2;120.0569550058914;
3.0;m;013_y_m_h_a.jpg;happy;9.0;sad_113.2.wmv;sad;7.0;incongruent;120.0;160.0;217.4973891947951;h_s;;;;;0;36;36;36;;;;;;;480.10668260022067;None;482.1398269000929;482.4566269000061;483.5898324002046;483.60657930001616;485.58986740000546;None;7;0;485.58986740000546;None;;;;;;;;4;;;;;;;0.4412394999526441;487.1397894001566;None;None;None;[];487.1397894001566;None;['7'];[0.5233501000329852];487.1397894001566;None;;;S11312;2022_Mar_23_1829;VideoMask;2021.1.2;120.0569550058914;
4.0;m;004_o_m_h_a.jpg;happy;9.0;happy_25.1ns.avi;happy;9.0;congruent;120.0;150.0;216.63044503818386;h_h;;;;;0;37;37;37;;;;;;;490.1480991002172;None;492.164477000013;492.48125230008736;493.63966790004633;493.6564438000787;497.3063133000396;None;9;0;497.3063133000396;None;;;;;;;;7;;;;;;;0.2927570999599993;498.8644121000543;None;None;None;[];498.8644121000543;None;"['9', '9']";"[0.2625500001013279, 1.9747252999804914]";498.8644121000543;None;;;S11312;2022_Mar_23_1829;VideoMask;2021.1.2;120.0569550058914;
4.0;m;004_o_m_s_a.jpg;sad;7.0;happy_131.2.wmv;happy;9.0;incongruent;130.0;150.0;181.38407540847405;s_h;;;;;0;38;38;38;;;;;;;501.8643190001603;None;503.580813200213;503.897518100217;505.0307052000426;505.0558894001879;507.03083800012246;None;9;0;507.03083800012246;None;;;;;;;;5;;;;;;;0.33621200011111796;508.5808336001355;None;None;None;[];508.5808336001355;None;None;;508.5808336001355;None;;;S11312;2022_Mar_23_1829;VideoMask;2021.1.2;120.0569550058914;
0.0;f;040_y_f_h_a.jpg;happy;9.0;happy_24.3ns.avi;happy;9.0;congruent;120.0;150.0;213.25460698950434;h_h;;;;;0;39;39;39;;;;;;;511.59714820003137;None;513.5638291002251;513.8805392000359;515.0305982001591;515.0472824000753;516.9388679000549;None;9;0;516.9388679000549;None;;;;;;;;6;;;;;;;0.39618650008924305;518.4888296001591;None;None;None;[];518.4888296001591;None;['9'];[0.19023970002308488];518.4888296001591;None;;;S11312;2022_Mar_23_1829;VideoMask;2021.1.2;120.0569550058914;
2.0;f;012_o_f_s_a.jpg;sad;7.0;happy_139.1.wmv;happy;9.0;incongruent;130.0;150.0;162.31500468041804;s_h;;;;;0;40;40;40;;;;;;;521.4971172001678;None;523.0468148000073;523.3635664000176;524.5053417000454;524.5219243001193;526.496874100063;None;9;0;526.496874100063;None;;;;;;;;7;;;;;;;0.3981661000289023;528.0633573001251;None;None;None;[];528.0633573001251;None;"['9', '9', '7', '9']";"[9.53419110015966, 0.6879043001681566, 1.1675815000198781, 2.295703500043601]";528.0633573001251;None;;;S11312;2022_Mar_23_1829;VideoMask;2021.1.2;120.0569550058914;
0.0;f;030_o_f_h_a.jpg;happy;9.0;happy_24.1ns.avi;happy;9.0;congruent;120.0;150.0;168.36256624020774;h_h;;;;;0;41;41;41;;;;;;;531.0467173000798;None;532.6550053001847;532.9717274000868;534.2131313001737;534.2300427001901;537.4464819000568;None;9;0;537.4464819000568;None;;;;;;;;6;;;;;;;0.29659729986451566;538.9964888000395;None;None;None;[];538.9964888000395;None;['9'];[0.24260920006781816];538.9964888000395;None;;;S11312;2022_Mar_23_1829;VideoMask;2021.1.2;120.0569550058914;
2.0;f;012_o_f_h_a.jpg;happy;9.0;sad_113.1.wmv;sad;7.0;incongruent;120.0;160.0;177.44551734737394;h_s;;;;;0;42;42;42;;;;;;;542.0048971001524;None;543.6962121000979;544.0127571001649;545.1460367001127;545.1629692001734;547.1462075000163;None;None;0;547.1462075000163;None;;;;;;;;4;;;;;;;;548.7043831001502;None;None;None;[];548.7043831001502;None;"['7', '9']";"[1.1347976999823004, 1.6785960998386145]";548.7043831001502;None;;;S11312;2022_Mar_23_1829;VideoMask;2021.1.2;120.0569550058914;
3.0;m;033_o_m_s_a.jpg;sad;7.0;sad_64.5ns.avi;sad;7.0;congruent;130.0;160.0;130.55717223801247;s_s;;;;;0;43;43;43;;;;;;;551.7212467000354;None;553.0125693001319;553.3294104000088;554.4794321001973;554.4960469000507;561.045802900102;None;7;0;561.045802900102;None;;;;;;;;3;;;;;;;0.3455672001000494;562.620753900148;None;None;None;[];562.620753900148;None;"['7', '7']";"[0.4982433000113815, 0.8342269000131637]";562.620753900148;None;;;S11312;2022_Mar_23_1829;VideoMask;2021.1.2;120.0569550058914;
7.0;m;027_o_m_h_a.jpg;happy;9.0;sad_117.1.wmv;sad;7.0;incongruent;120.0;160.0;181.28665202824095;h_s;;;;;0;44;44;44;;;;;;;565.6291388000827;None;567.3706534001976;567.6871685001533;568.8545203001704;568.8786967000924;570.8204142001923;None;8;0;570.8204142001923;None;;;;;;;;5;;;;;;;1.4185969000682235;572.3704404002056;None;None;None;[];572.3704404002056;None;"['7', '9']";"[0.6606497999746352, 1.2605250999331474]";572.3704404002056;None;;;S11312;2022_Mar_23_1829;VideoMask;2021.1.2;120.0569550058914;
3.0;m;033_o_m_s_a.jpg;sad;7.0;happy_126.3.wmv;happy;9.0;incongruent;130.0;150.0;198.85252030535366;s_h;;;;;0;45;45;45;;;;;;;575.37880950002;None;577.2368454001844;577.5535335000604;578.6867414000444;578.7034502001479;580.6867996000219;None;9;0;580.6867996000219;None;;;;;;;;6;;;;;;;0.7440847000107169;582.2284784000367;None;None;None;[];582.2284784000367;None;['9'];[0.3464426000136882];582.2284784000367;None;;;S11312;2022_Mar_23_1829;VideoMask;2021.1.2;120.0569550058914;
3.0;m;033_o_m_h_a.jpg;happy;9.0;sad_136.1.wmv;sad;7.0;incongruent;120.0;160.0;176.97002883463455;h_s;;;;;0;46;46;46;;;;;;;585.2368508002255;None;586.9115322001744;587.2282727002166;588.3533640000969;588.3699425000232;590.3615406001918;None;7;0;590.3615406001918;None;;;;;;;;4;;;;;;;0.9816137000452727;591.9115126000252;None;None;None;[];591.9115126000252;None;['7'];[0.5195276001468301];591.9115126000252;None;;;S11312;2022_Mar_23_1829;VideoMask;2021.1.2;120.0569550058914;
9.0;f;019_m_f_h_a.jpg;happy;9.0;happy_10.1ns.avi;happy;9.0;congruent;120.0;150.0;157.2463435658512;h_h;;;;;0;47;47;47;;;;;;;594.9113869001158;None;596.4362935000099;596.7529438000638;597.8946789000183;597.9112985001411;605.3278574000578;None;9;0;605.3278574000578;None;;;;;;;;6;;;;;;;0.35910550015978515;606.877698100172;None;None;None;[];606.877698100172;None;"['9', '9']";"[0.36144360015168786, 0.7612754001747817]";606.877698100172;None;;;S11312;2022_Mar_23_1829;VideoMask;2021.1.2;120.0569550058914;
2.0;f;012_o_f_h_a.jpg;happy;9.0;happy_2.2ns.avi;happy;9.0;congruent;120.0;150.0;206.34800317295262;h_h;;;;;0;48;48;48;;;;;;;609.8777577001601;None;611.83567460021;612.1524536001962;613.2941839999985;613.3108678001445;625.4854185001459;None;9;0;625.4854185001459;None;;;;;;;;5;;;;;;;0.7134817999321967;627.0437266000081;None;None;None;[];627.0437266000081;None;None;;627.0437266000081;None;;;S11312;2022_Mar_23_1829;VideoMask;2021.1.2;120.0569550058914;
3.0;m;033_o_m_h_a.jpg;happy;9.0;happy_24.2ns.avi;happy;9.0;congruent;120.0;150.0;167.9423847659953;h_h;;;;;0;49;49;49;;;;;;;630.0685834002215;None;631.6600905000232;631.9767924000043;633.1768591001164;633.1935672000982;636.8441038001329;None;9;0;636.8441038001329;None;;;;;;;;6;;;;;;;0.42687490000389516;638.5933646000922;None;None;None;[];638.5933646000922;None;['9'];[0.22176530002616346];638.5933646000922;None;;;S11312;2022_Mar_23_1829;VideoMask;2021.1.2;120.0569550058914;
1.0;f;021_o_f_s_a.jpg;sad;7.0;happy_61.2ns.avi;happy;9.0;incongruent;130.0;150.0;210.94664004826666;s_h;;;;;0;50;50;50;;;;;;;641.5932552001905;None;643.5514218001626;643.8680559000932;645.0429655001499;645.0598502000794;649.526412300067;None;9;0;649.526412300067;None;;;;;;;;5;;;;;;;0.33657669997774065;651.0763154001907;None;None;None;[];651.0763154001907;None;None;;651.0763154001907;None;;;S11312;2022_Mar_23_1829;VideoMask;2021.1.2;120.0569550058914;
4.0;m;004_o_m_s_a.jpg;sad;7.0;sad_2.4ns.avi;sad;7.0;congruent;130.0;160.0;153.02079367163634;s_s;;;;;0;51;51;51;;;;;;;654.1096161000896;None;655.6009845000226;655.9177124002017;657.0594817001838;657.0761526001152;665.01766280015;None;7;0;665.01766280015;None;;;;;;;;4;;;;;;;0.32553880009800196;666.5674902000464;None;None;None;[];666.5674902000464;None;['7'];[0.5036790000740439];666.5674902000464;None;;;S11312;2022_Mar_23_1829;VideoMask;2021.1.2;120.0569550058914;
8.0;m;008_y_m_h_a.jpg;happy;9.0;happy_1.2ns.avi;happy;9.0;congruent;120.0;150.0;210.98946429383824;h_h;;;;;0;52;52;52;;;;;;;669.5758866001852;None;671.5754543000367;671.8922877002042;673.0506130000576;673.0673448001035;685.8169745001942;None;9;0;685.8169745001942;None;;;;;;;;6;;;;;;;0.3340551999863237;687.3667395000812;None;None;None;[];687.3667395000812;None;"['9', '9', '7']";"[0.3445066998247057, 1.5922605998348445, 2.32838930003345]";687.3667395000812;None;;;S11312;2022_Mar_23_1829;VideoMask;2021.1.2;120.0569550058914;
2.0;f;012_o_f_s_a.jpg;sad;7.0;happy_52.2ns.avi;happy;9.0;incongruent;130.0;150.0;172.57202848318138;s_h;;;;;0;53;53;53;;;;;;;690.3667682001833;None;691.9999431001488;692.3165562001523;693.4916550000198;693.5083519001491;696.9999888001475;None;9;0;696.9999888001475;None;;;;;;;;5;;;;;;;0.3989282001275569;698.5496117000002;None;None;None;[];698.5496117000002;None;None;;698.5496117000002;None;;;S11312;2022_Mar_23_1829;VideoMask;2021.1.2;120.0569550058914;
9.0;f;019_m_f_s_a.jpg;sad;7.0;happy_61.1ns.avi;happy;9.0;incongruent;130.0;150.0;181.3003220572762;s_h;;;;;0;54;54;54;;;;;;;701.5662789000198;None;703.2995718000457;703.6162151000462;704.7580648001749;704.77467110008;712.1411463001277;None;9;0;712.1411463001277;None;;;;;;;;7;;;;;;;0.32986730011180043;713.6993350000121;None;None;None;[];713.6993350000121;None;"['9', '9']";"[0.26777129992842674, 0.9479483999311924]";713.6993350000121;None;;;S11312;2022_Mar_23_1829;VideoMask;2021.1.2;120.0569550058914;
0.0;f;030_o_f_h_a.jpg;happy;9.0;sad_133.1.wmv;sad;7.0;incongruent;120.0;160.0;198.86251500867985;h_s;;;;;0;55;55;55;;;;;;;716.7166084002238;None;718.5824053999968;718.8991503000725;720.0241758001503;720.0407908000052;722.032420600066;None;7;0;722.032420600066;None;;;;;;;;4;;;;;;;0.4705433000344783;723.582343300106;None;None;None;[];723.582343300106;None;['7'];[0.23239220003597438];723.582343300106;None;;;S11312;2022_Mar_23_1829;VideoMask;2021.1.2;120.0569550058914;
0.0;f;040_y_f_h_a.jpg;happy;9.0;sad_128.2.wmv;sad;7.0;incongruent;120.0;160.0;206.10005857915363;h_s;;;;;0;56;56;56;;;;;;;726.5823146000039;None;728.5070579000749;728.8238347000442;729.9570427001454;729.9739581001922;731.9569945000112;None;7;0;731.9569945000112;None;;;;;;;;4;;;;;;;0.3379741997923702;733.5070158001035;None;None;None;[];733.5070158001035;None;['7'];[0.28385280002839863];733.5070158001035;None;;;S11312;2022_Mar_23_1829;VideoMask;2021.1.2;120.0569550058914;
1.0;f;021_o_f_s_a.jpg;sad;7.0;sad_9.5ns.avi;sad;7.0;congruent;130.0;160.0;206.16642757875042;s_s;;;;;0;57;57;57;;;;;;;736.515353300143;None;738.4401036000345;738.7567985001951;739.93187950016;739.9485562001355;745.6151472001802;None;7;0;745.6151472001802;None;;;;;;;;2;;;;;;;0.38382230000570416;747.1649611000903;None;None;None;[];747.1649611000903;None;"['7', '7', '7']";"[0.2418376998975873, 0.5138913998380303, 1.2179719000123441]";747.1649611000903;None;;;S11312;2022_Mar_23_1829;VideoMask;2021.1.2;120.0569550058914;
1.0;f;021_o_f_h_a.jpg;happy;9.0;happy_12.1ns.avi;happy;9.0;congruent;120.0;150.0;132.59080005900228;h_h;;;;;0;58;58;58;;;;;;;750.1733125001192;None;751.4981564001646;751.8147025001235;753.0154115001205;753.0395987001248;760.5645732001867;None;9;0;760.5645732001867;None;;;;;;;;9;;;;;;;0.29835279984399676;762.1144852000289;None;None;None;[];762.1144852000289;None;"['9', '9', '9', '9']";"[0.08451870013959706, 0.3805707001592964, 0.6043601999990642, 0.8926147001329809]";762.1144852000289;None;;;S11312;2022_Mar_23_1829;VideoMask;2021.1.2;120.0569550058914;
3.0;m;013_y_m_s_a.jpg;sad;7.0;happy_56.2ns.avi;happy;9.0;incongruent;130.0;150.0;163.39234110935848;s_h;;;;;0;59;59;59;;;;;;;765.1145685000811;None;766.681080600014;766.997646200005;768.1476244002115;768.164279300021;773.1557722000871;None;9;0;773.1557722000871;None;;;;;;;;6;;;;;;;0.3549677999690175;774.730837300187;None;None;None;[];774.730837300187;None;['9'];[12.580306000076234];774.730837300187;None;;;S11312;2022_Mar_23_1829;VideoMask;2021.1.2;120.0569550058914;
;;;;;;;;;;;;;;;;;;;;;;;;;;;;;;;;;;;;;;;;;;;;;;;;;;;;;;;;;;;;;;;;;777.7057292000391;None;;;;;;
