primePerson;primeGender;prime;primeEmotion;corrAnsPrime;target;targetEmotion;corrAnsTar;Cond;ID_Primer;ID_Target;JitterTime;Condition;example.thisRepN;example.thisTrialN;example.thisN;example.thisIndex;study.thisRepN;study.thisTrialN;study.thisN;study.thisIndex;MR_trigger_time;MR_trigger_number;text_intro.started;text_intro.stopped;text_probe.started;text_probe.stopped;polygon_ISI.started;polygon_ISI.stopped;polygon.started;polygon.stopped;primerImage.started;primerImage.stopped;response.started;response.stopped;key_resp.keys;key_resp.corr;key_resp.rt;key_resp.started;key_resp.stopped;slider_Text.started;slider_Text.stopped;slider_ex.response;slider_ex.rt;slider_ex.history;slider_ex.started;slider_ex.stopped;Rating;slider_resp_response.keys;slider_resp_response.rt;slider_resp_response.started;slider_resp_response.stopped;text_start.started;text_start.stopped;text_slider.started;text_slider.stopped;slider_stud.response;slider_stud.rt;slider_stud.history;slider_stud.started;slider_stud.stopped;slider_resp_study.keys;slider_resp_study.rt;slider_resp_study.started;slider_resp_study.stopped;text_ende.started;text_ende.stopped;participant;date;expName;psychopyVersion;frameRate;
1111;m;1111_m_m_h_a.jpg;happy;9;example_30.4ns.avi;neutral;7;incongruent;120.0;170.0;189.5874364012288;;0;0;0;0;;;;;51.72798470011912;1;51.80530700017698;53.80543260020204;53.80543260020204;None;55.82212630007416;None;58.063456600066274;58.38022570009343;59.52193030016497;59.53860040009022;63.86370550002903;None;9;0;1.1900414999108762;63.86370550002903;None;65.42178350011818;None;None;None;[];65.42178350011818;None;7;"['9', '9']";"[1.640148000093177, 2.200015800073743]";65.42178350011818;None;;;;;;;;;;;;;;;;S10938;2021_Sep_30_1628;VideoMask;2021.1.2;119.99385649127257;
1113;f;1113_y_f_s_a.jpg;sad;7;example_30.3ns.avi;neutral;7;incongruent;130.0;170.0;229.02432995836998;;0;1;1;1;;;;;;;;;;;68.41338530019857;None;70.52978159999475;70.8467013000045;72.03824110003188;72.05486360006034;73.98821360012516;None;8;0;1.1139399001840502;73.98821360012516;None;75.5382069000043;None;None;None;[];75.5382069000043;None;5;"['9', '7']";"[0.8596805999986827, 1.5474692999850959]";75.5382069000043;None;;;;;;;;;;;;;;;;S10938;2021_Sep_30_1628;VideoMask;2021.1.2;119.99385649127257;
9.0;f;019_m_f_h_a.jpg;happy;9.0;sad_115.1.wmv;sad;7.0;incongruent;120.0;160.0;128.09063432376465;h_s;;;;;0;0;0;0;;;;;;;79.57136050006375;None;80.84615080012009;81.16283809999004;82.30431620008312;82.32100440002978;84.29606269998476;None;None;0;;84.29606269998476;None;;;;;;;;4;;;;;78.53812300018035;None;85.84612970007583;None;None;None;[];85.84612970007583;None;['7'];[1.6158213999588042];85.84612970007583;None;;;S10938;2021_Sep_30_1628;VideoMask;2021.1.2;119.99385649127257;
3.0;m;033_o_m_s_a.jpg;sad;7.0;sad_94.2ns.avi;sad;7.0;congruent;130.0;160.0;182.29120173647655;s_s;;;;;0;1;1;1;;;;;;;88.86289730016142;None;90.57922320021316;90.8959548000712;92.0708525001537;92.08759770006873;94.72076690010726;None;7;0;1.2529345001094043;94.72076690010726;None;;;;;;;;4;;;;;;;96.27074350020848;None;None;None;[];96.27074350020848;None;['7'];[1.0550751998089254];96.27074350020848;None;;;S10938;2021_Sep_30_1628;VideoMask;2021.1.2;119.99385649127257;
8.0;m;008_y_m_h_a.jpg;happy;9.0;happy_26.1ns.avi;happy;9.0;congruent;120.0;150.0;155.9437854594882;h_h;;;;;0;2;2;2;;;;;;;99.27080660010688;None;100.75385460001417;101.07068990007974;102.28726650006138;102.30391820007935;104.19563159998506;None;None;0;;104.19563159998506;None;;;;;;;;5;;;;;;;105.75392570020631;None;None;None;[];105.75392570020631;None;None;;105.75392570020631;None;;;S10938;2021_Sep_30_1628;VideoMask;2021.1.2;119.99385649127257;
0.0;f;040_y_f_h_a.jpg;happy;9.0;sad_138.1.wmv;sad;7.0;incongruent;120.0;160.0;133.99071306426532;h_s;;;;;0;3;3;3;;;;;;;108.77873500017449;None;110.09550060005859;110.41193170007318;111.53701189998537;111.55362710007466;113.54529900010675;None;8;0;0.5964423001278192;113.54529900010675;None;;;;;;;;5;;;;;;;115.09521659999155;None;None;None;[];115.09521659999155;None;None;;115.09521659999155;None;;;S10938;2021_Sep_30_1628;VideoMask;2021.1.2;119.99385649127257;
8.0;f;028_y_f_s_a.jpg;sad;7.0;sad_64.2ns.avi;sad;7.0;congruent;130.0;160.0;229.88540597086478;s_s;;;;;0;4;4;4;;;;;;;118.11163030005991;None;120.26147960009985;120.57832430000417;121.72037940006703;121.74504930013791;132.71143650007434;None;7;0;0.6066613998264074;132.71143650007434;None;;;;;;;;4;;;;;;;134.49459560005926;None;None;None;[];134.49459560005926;None;"['7', '7', '9']";"[0.743201500037685, 1.1030327000189573, 1.8553057999815792]";134.49459560005926;None;;;S10938;2021_Sep_30_1628;VideoMask;2021.1.2;119.99385649127257;
7.0;m;027_o_m_s_a.jpg;sad;7.0;sad_10.4ns.avi;sad;7.0;congruent;130.0;160.0;185.20129417468752;s_s;;;;;0;5;5;5;;;;;;;137.5030155000277;None;139.2442131000571;139.56129860016517;140.7194972001016;140.73608250007965;143.86110820015892;None;7;0;0.6962627999018878;143.86110820015892;None;;;;;;;;3;;;;;;;145.4108034002129;None;None;None;[];145.4108034002129;None;"['7', '7']";"[0.2508153999224305, 0.5068401999305934]";145.4108034002129;None;;;S10938;2021_Sep_30_1628;VideoMask;2021.1.2;119.99385649127257;
2.0;f;012_o_f_s_a.jpg;sad;7.0;sad_7.5ns.avi;sad;7.0;congruent;130.0;160.0;220.27842655424388;s_s;;;;;0;6;6;6;;;;;;;148.41930130007677;None;150.45228880015202;150.76899280003272;151.95247580017895;151.96897030016407;154.69404080021195;None;7;0;0.45584450010210276;154.69404080021195;None;;;;;;;;4;;;;;;;156.2439937000163;None;None;None;[];156.2439937000163;None;['7'];[1.1538167998660356];156.2439937000163;None;;;S10938;2021_Sep_30_1628;VideoMask;2021.1.2;119.99385649127257;
2.0;f;012_o_f_h_a.jpg;happy;9.0;happy_27.1ns.avi;happy;9.0;congruent;120.0;150.0;146.44967055810616;h_h;;;;;0;7;7;7;;;;;;;159.24400459998287;None;160.6687364000827;160.98526850016788;162.1434687001165;162.1602062000893;164.61047419998795;None;9;0;0.5151353999972343;164.61047419998795;None;;;;;;;;3;;;;;;;166.16859510005452;None;None;None;[];166.16859510005452;None;"['7', '7']";"[0.9490563001018018, 2.317412600154057]";166.16859510005452;None;;;S10938;2021_Sep_30_1628;VideoMask;2021.1.2;119.99385649127257;
8.0;f;028_y_f_h_a.jpg;happy;9.0;sad_119.1.wmv;sad;7.0;incongruent;120.0;160.0;148.71526953572538;h_s;;;;;0;8;8;8;;;;;;;169.16866020020097;None;170.61830570013262;170.9350618000608;172.0688784001395;172.0934264000971;174.13511100015603;None;7;0;1.4626684000249952;174.13511100015603;None;;;;;;;;4;;;;;;;176.1599371000193;None;None;None;[];176.1599371000193;None;['7'];[0.49413660005666316];176.1599371000193;None;;;S10938;2021_Sep_30_1628;VideoMask;2021.1.2;119.99385649127257;
6.0;m;016_y_m_s_a.jpg;sad;7.0;happy_60.4ns.avi;happy;9.0;incongruent;130.0;150.0;126.02367393611817;s_h;;;;;0;9;9;9;;;;;;;179.16817050008103;None;180.44299420015886;180.75974930007942;181.9347211001441;181.95145210018381;187.68471970013343;None;9;0;0.39285219996236265;187.68471970013343;None;;;;;;;;6;;;;;;;189.23455120017752;None;None;None;[];189.23455120017752;None;['9'];[0.48283450002782047];189.23455120017752;None;;;S10938;2021_Sep_30_1628;VideoMask;2021.1.2;119.99385649127257;
9.0;f;019_m_f_s_a.jpg;sad;7.0;sad_8.4ns.avi;sad;7.0;congruent;130.0;160.0;171.6633093155257;s_s;;;;;0;10;10;10;;;;;;;192.24289290001616;None;193.90934140002355;194.22603260003962;195.40925530018285;195.42601720010862;203.49252760014497;None;7;0;0.36092950007878244;203.49252760014497;None;;;;;;;;4;;;;;;;205.10910550015979;None;None;None;[];205.10910550015979;None;"['7', '7']";"[0.5364840000402182, 1.10474650003016]";205.10910550015979;None;;;S10938;2021_Sep_30_1628;VideoMask;2021.1.2;119.99385649127257;
4.0;m;004_o_m_h_a.jpg;happy;9.0;happy_1.1ns.avi;happy;9.0;congruent;120.0;150.0;203.50057144619865;h_h;;;;;0;11;11;11;;;;;;;208.10906390007585;None;210.0670782001689;210.38391260011122;211.50883590010926;211.52553370012902;226.00012320000678;None;None;0;;226.00012320000678;None;;;;;;;;6;;;;;;;227.54997130017728;None;None;None;[];227.54997130017728;None;['9'];[1.9517544000409544];227.54997130017728;None;;;S10938;2021_Sep_30_1628;VideoMask;2021.1.2;119.99385649127257;
7.0;m;027_o_m_h_a.jpg;happy;9.0;happy_20.1ns.avi;happy;9.0;congruent;120.0;150.0;152.91127178874285;h_h;;;;;0;12;12;12;;;;;;;230.55830730008893;None;232.04992940020747;232.36653470015153;233.52562420000322;233.54182750009932;236.5163989001885;None;8;0;1.0811015998478979;236.5163989001885;None;;;;;;;;6;;;;;;;238.0663695000112;None;None;None;[];238.0663695000112;None;['9'];[0.3550762999802828];238.0663695000112;None;;;S10938;2021_Sep_30_1628;VideoMask;2021.1.2;119.99385649127257;
0.0;f;040_y_f_s_a.jpg;sad;7.0;sad_94.3ns.avi;sad;7.0;congruent;130.0;160.0;155.27414203894395;s_s;;;;;0;13;13;13;;;;;;;241.07466160017066;None;242.56611480005085;242.88286160002463;244.04926870018244;244.0659755000379;246.64118040003814;None;7;0;1.0362811998929828;246.64118040003814;None;;;;;;;;4;;;;;;;248.19104400021024;None;None;None;[];248.19104400021024;None;['7'];[0.37451129988767207];248.19104400021024;None;;;S10938;2021_Sep_30_1628;VideoMask;2021.1.2;119.99385649127257;
0.0;f;030_o_f_s_a.jpg;sad;7.0;sad_68.1ns.avi;sad;7.0;congruent;130.0;160.0;158.9411396037211;s_s;;;;;0;14;14;14;;;;;;;251.19944390002638;None;252.7408106001094;253.05745990015566;254.2654944001697;254.28234230005182;261.6156892001163;None;7;0;1.0217617000453174;261.6156892001163;None;;;;;;;;3;;;;;;;263.1655914001167;None;None;None;[];263.1655914001167;None;"['7', '7']";"[0.6158846998587251, 0.999767999863252]";263.1655914001167;None;;;S10938;2021_Sep_30_1628;VideoMask;2021.1.2;119.99385649127257;
0.0;f;030_o_f_h_a.jpg;happy;9.0;sad_127.1.wmv;sad;7.0;incongruent;120.0;160.0;180.59976631384873;h_s;;;;;0;15;15;15;;;;;;;266.1739516002126;None;267.882067900151;268.1987239001319;269.3237882000394;269.34045860008337;271.33213670016266;None;7;0;0.7053843000903726;271.33213670016266;None;;;;;;;;4;;;;;;;272.88185330014676;None;None;None;[];272.88185330014676;None;"['7', '7']";"[0.22763630002737045, 0.747675099875778]";272.88185330014676;None;;;S10938;2021_Sep_30_1628;VideoMask;2021.1.2;119.99385649127257;
8.0;m;008_y_m_s_a.jpg;sad;7.0;happy_133.3.wmv;happy;9.0;incongruent;130.0;150.0;152.577966552593;s_h;;;;;0;16;16;16;;;;;;;275.8819753001444;None;277.36516700009815;277.6816746001132;278.80694400006905;278.8233981002122;280.8151716000866;None;None;0;;280.8151716000866;None;;;;;;;;6;;;;;;;282.3898202001583;None;None;None;[];282.3898202001583;None;['9'];[0.38397699990309775];282.3898202001583;None;;;S10938;2021_Sep_30_1628;VideoMask;2021.1.2;119.99385649127257;
3.0;m;033_o_m_h_a.jpg;happy;9.0;sad_128.1.wmv;sad;7.0;incongruent;120.0;160.0;171.0492454518585;h_s;;;;;0;17;17;17;;;;;;;285.38992400001734;None;287.0314352000132;287.34814720018767;288.48137619998306;288.4981039001141;290.4815233000554;None;7;0;0.619851800147444;290.4815233000554;None;;;;;;;;2;;;;;;;292.03128610015847;None;None;None;[];292.03128610015847;None;"['7', '7', '7', '7', '7']";"[0.37413879996165633, 0.646090199938044, 0.9100631000474095, 1.317955099977553, 1.694134899880737]";292.03128610015847;None;;;S10938;2021_Sep_30_1628;VideoMask;2021.1.2;119.99385649127257;
1.0;f;021_o_f_h_a.jpg;happy;9.0;sad_116.1.wmv;sad;7.0;incongruent;120.0;160.0;184.06847610053055;h_s;;;;;0;18;18;18;;;;;;;295.03156989999115;None;296.7810770000797;297.09781530010514;298.2392151001841;298.2561836000532;300.23139540012926;None;7;0;0.638000899925828;300.23139540012926;None;;;;;;;;3;;;;;;;301.78094660001807;None;None;None;[];301.78094660001807;None;"['7', '7']";"[0.19249700009822845, 0.44049639999866486]";301.78094660001807;None;;;S10938;2021_Sep_30_1628;VideoMask;2021.1.2;119.99385649127257;
4.0;m;004_o_m_s_a.jpg;sad;7.0;happy_28.1ns.avi;happy;9.0;incongruent;130.0;150.0;157.40741103039684;s_h;;;;;0;19;19;19;;;;;;;304.780998500064;None;306.2975091000553;306.6141726002097;307.8141173000913;307.83073290018365;312.1391069001984;None;9;0;0.33830900001339614;312.1391069001984;None;;;;;;;;8;;;;;;;313.6890208001714;None;None;None;[];313.6890208001714;None;"['9', '9', '9', '9', '9']";"[0.2285907999612391, 0.484736799960956, 0.7406160000246018, 1.0606398999225348, 1.4444726998917758]";313.6890208001714;None;;;S10938;2021_Sep_30_1628;VideoMask;2021.1.2;119.99385649127257;
8.0;f;028_y_f_s_a.jpg;sad;7.0;happy_122.3.wmv;happy;9.0;incongruent;130.0;150.0;171.8670540936116;s_h;;;;;0;20;20;20;;;;;;;316.6974131001625;None;318.33031550003216;318.64704750012606;319.7804975002073;319.79713860014454;321.78872810001485;None;9;0;0.5927740000188351;321.78872810001485;None;;;;;;;;7;;;;;;;323.3385926000774;None;None;None;[];323.3385926000774;None;"['9', '9', '9']";"[0.22686140006408095, 0.530611100140959, 1.2829838001634926]";323.3385926000774;None;;;S10938;2021_Sep_30_1628;VideoMask;2021.1.2;119.99385649127257;
8.0;m;008_y_m_s_a.jpg;sad;7.0;sad_6.5ns.avi;sad;7.0;congruent;130.0;160.0;170.39333839271438;s_s;;;;;0;21;21;21;;;;;;;326.33852050011046;None;327.95503300009295;328.2717964001931;329.4717720001936;329.4883229001425;334.4048977000639;None;7;0;0.40072120004333556;334.4048977000639;None;;;;;;;;4;;;;;;;335.9550309001934;None;None;None;[];335.9550309001934;None;['7'];[0.36236060014925897];335.9550309001934;None;;;S10938;2021_Sep_30_1628;VideoMask;2021.1.2;119.99385649127257;
8.0;f;028_y_f_h_a.jpg;happy;9.0;happy_23.1ns.avi;happy;9.0;congruent;120.0;150.0;225.70986890587952;h_h;;;;;0;22;22;22;;;;;;;338.9550811999943;None;341.0463423000183;341.36297450005077;342.52950710011646;342.54641310009174;347.0714088000823;None;9;0;0.2859393998514861;347.0714088000823;None;;;;;;;;8;;;;;;;348.6212136000395;None;None;None;[];348.6212136000395;None;"['9', '9', '9']";"[0.23241130006499588, 0.5360995999071747, 0.8559560000430793]";348.6212136000395;None;;;S10938;2021_Sep_30_1628;VideoMask;2021.1.2;119.99385649127257;
8.0;m;008_y_m_h_a.jpg;happy;9.0;sad_111.1.wmv;sad;7.0;incongruent;120.0;160.0;152.63076835312847;h_s;;;;;0;23;23;23;;;;;;;351.62967250007205;None;353.09589870017953;353.4127560001798;354.54609710001387;354.56272690021433;356.5460688001476;None;7;0;1.1311977000441402;356.5460688001476;None;;;;;;;;4;;;;;;;358.0959833001252;None;None;None;[];358.0959833001252;None;['7'];[0.5173887999262661];358.0959833001252;None;;;S10938;2021_Sep_30_1628;VideoMask;2021.1.2;119.99385649127257;
0.0;f;040_y_f_s_a.jpg;sad;7.0;sad_67.2ns.avi;sad;7.0;congruent;130.0;160.0;220.9892697323079;s_s;;;;;0;24;24;24;;;;;;;361.10436260001734;None;363.1623225000221;363.479173600208;364.62910830019973;364.64574220008217;373.8372522999998;None;7;0;0.5920615000650287;373.8372522999998;None;;;;;;;;2;;;;;;;375.4119351999834;None;None;None;[];375.4119351999834;None;"['7', '7', '7']";"[17.27736039995216, 0.49723939993418753, 0.8255545999854803]";375.4119351999834;None;;;S10938;2021_Sep_30_1628;VideoMask;2021.1.2;119.99385649127257;
8.0;m;008_y_m_s_a.jpg;sad;7.0;happy_29.1ns.avi;happy;9.0;incongruent;130.0;150.0;120.0316142834122;s_h;;;;;0;25;25;25;;;;;;;378.3871385001112;None;379.5868444000371;379.90358110005036;381.0533559001051;381.0701156000141;383.7285043001175;None;9;0;0.6206879001110792;383.7285043001175;None;;;;;;;;7;;;;;;;385.2784144000616;None;None;None;[];385.2784144000616;None;"['9', '9']";"[0.23900759988464415, 0.5027014999650419]";385.2784144000616;None;;;S10938;2021_Sep_30_1628;VideoMask;2021.1.2;119.99385649127257;
6.0;m;016_y_m_s_a.jpg;sad;7.0;sad_8.3ns.avi;sad;7.0;congruent;130.0;160.0;152.85371098242734;s_s;;;;;0;26;26;26;;;;;;;388.2866644000169;None;389.76987600000575;390.0865941999946;391.2697302000597;391.28641150007024;398.9783605001867;None;7;0;0.4189278001431376;398.9783605001867;None;;;;;;;;4;;;;;;;400.52795430016704;None;None;None;[];400.52795430016704;None;"['7', '9']";"[0.565703900065273, 2.6454670999664813]";400.52795430016704;None;;;S10938;2021_Sep_30_1628;VideoMask;2021.1.2;119.99385649127257;
6.0;m;016_y_m_h_a.jpg;happy;9.0;sad_114.1.wmv;sad;7.0;incongruent;120.0;160.0;136.20550699298644;h_s;;;;;0;27;27;27;;;;;;;403.5280472000595;None;404.86936770007014;405.1861247001216;406.3194306001533;406.3361419001594;408.31950530014;None;8;0;0.8698619001079351;408.31950530014;None;;;;;;;;5;;;;;;;409.9860017001629;None;None;None;[];409.9860017001629;None;None;;409.9860017001629;None;;;S10938;2021_Sep_30_1628;VideoMask;2021.1.2;119.99385649127257;
7.0;m;027_o_m_s_a.jpg;sad;7.0;happy_117.3.wmv;happy;9.0;incongruent;130.0;150.0;215.61964028550614;s_h;;;;;0;28;28;28;;;;;;;413.01921290019527;None;415.01069750008173;415.32740360009484;416.460835600039;416.4774725001771;418.46080280002207;None;None;0;;418.46080280002207;None;;;;;;;;7;;;;;;;420.0691071001347;None;None;None;[];420.0691071001347;None;"['9', '9', '9', '9']";"[0.3681235001422465, 1.7521752000320703, 2.088150800205767, 2.400281800189987]";420.0691071001347;None;;;S10938;2021_Sep_30_1628;VideoMask;2021.1.2;119.99385649127257;
6.0;m;016_y_m_h_a.jpg;happy;9.0;happy_9.2ns.avi;happy;9.0;congruent;120.0;150.0;130.52042428082717;h_h;;;;;0;29;29;29;;;;;;;423.08624990005046;None;424.40208230004646;424.7187984001357;425.91884220018983;425.9354861001484;431.79359370004386;None;9;0;0.4276668999809772;431.79359370004386;None;;;;;;;;7;;;;;;;433.34361740015447;None;None;None;[];433.34361740015447;None;"['9', '9', '9']";"[0.277617699932307, 0.7177295999135822, 1.6137993999291211]";433.34361740015447;None;;;S10938;2021_Sep_30_1628;VideoMask;2021.1.2;119.99385649127257;
0.0;f;040_y_f_s_a.jpg;sad;7.0;happy_127.3.wmv;happy;9.0;incongruent;130.0;150.0;131.7195455720239;s_h;;;;;0;30;30;30;;;;;;;436.34350310009904;None;437.6349101001397;437.9516891001258;439.08517260011286;439.10179059999064;441.15182650019415;None;None;0;;441.15182650019415;None;;;;;;;;7;;;;;;;442.70159190008417;None;None;None;[];442.70159190008417;None;"['9', '9', '9']";"[0.2876887999009341, 0.5434519997797906, 0.935486399801448]";442.70159190008417;None;;;S10938;2021_Sep_30_1628;VideoMask;2021.1.2;119.99385649127257;
0.0;f;030_o_f_s_a.jpg;sad;7.0;happy_125.3.wmv;happy;9.0;incongruent;130.0;150.0;220.51454909128134;s_h;;;;;0;31;31;31;;;;;;;445.7017322999891;None;447.7681582001969;448.08482460002415;449.21811710018665;449.23478840012103;451.2181700000074;None;None;0;;451.2181700000074;None;;;;;;;;5;;;;;;;452.76805360009894;None;None;None;[];452.76805360009894;None;None;;452.76805360009894;None;;;S10938;2021_Sep_30_1628;VideoMask;2021.1.2;119.99385649127257;
0.0;f;030_o_f_s_a.jpg;sad;7.0;sad_64.3ns.avi;sad;7.0;congruent;130.0;160.0;165.78667874766072;s_s;;;;;0;32;32;32;;;;;;;455.79300930001773;None;457.38439400005154;457.701116300188;458.851161000086;458.86777990008704;463.8592186002061;None;None;0;;463.8592186002061;None;;;;;;;;3;;;;;;;465.40909170010127;None;None;None;[];465.40909170010127;None;"['7', '7']";"[0.17207770003005862, 0.48400920000858605]";465.40909170010127;None;;;S10938;2021_Sep_30_1628;VideoMask;2021.1.2;119.99385649127257;
3.0;m;013_y_m_s_a.jpg;sad;7.0;sad_7.7ns.avi;sad;7.0;congruent;130.0;160.0;196.24182255763262;s_s;;;;;0;33;33;33;;;;;;;468.4175096000545;None;470.25899170013145;470.57570560020395;471.7255822001025;471.74240500014275;477.70879030018114;None;None;0;;477.70879030018114;None;;;;;;;;3;;;;;;;479.4255182000343;None;None;None;[];479.4255182000343;None;"['7', '7', '7']";"[0.21972259995527565, 0.47569989995099604, 0.7476613000035286]";479.4255182000343;None;;;S10938;2021_Sep_30_1628;VideoMask;2021.1.2;119.99385649127257;
3.0;m;013_y_m_h_a.jpg;happy;9.0;happy_9.1ns.avi;happy;9.0;congruent;120.0;150.0;165.1890303600433;h_h;;;;;0;34;34;34;;;;;;;482.4337121001445;None;484.0170623001177;484.33401530003175;485.5003548001405;485.51696430006996;488.69188840012066;None;9;0;0.473261000122875;488.69188840012066;None;;;;;;;;7;;;;;;;490.2418437001761;None;None;None;[];490.2418437001761;None;"['9', '9', '9', '9']";"[0.21143929986283183, 0.6354113998822868, 1.0994094000197947, 2.419458799995482]";490.2418437001761;None;;;S10938;2021_Sep_30_1628;VideoMask;2021.1.2;119.99385649127257;
4.0;m;004_o_m_h_a.jpg;happy;9.0;sad_95.1ns.avi;sad;7.0;incongruent;120.0;160.0;152.68270002069931;h_s;;;;;0;35;35;35;;;;;;;493.2501048000995;None;494.7581633999944;495.08418690017425;496.2333378000185;496.25001260009594;504.999722200213;None;7;0;0.38140289997681975;504.999722200213;None;;;;;;;;1;;;;;;;506.6330089000985;None;None;None;[];506.6330089000985;None;"['7', '7', '7', '7']";"[0.4759790999814868, 0.9479608999099582, 1.1800011999439448, 1.4919073998462409]";506.6330089000985;None;;;S10938;2021_Sep_30_1628;VideoMask;2021.1.2;119.99385649127257;
3.0;m;013_y_m_h_a.jpg;happy;9.0;sad_113.2.wmv;sad;7.0;incongruent;120.0;160.0;217.4973891947951;h_s;;;;;0;36;36;36;;;;;;;509.6336350000929;None;511.65769800008275;511.97446410008706;513.0995566002093;513.1160741001368;515.1078562000766;None;None;0;;515.1078562000766;None;;;;;;;;3;;;;;;;516.6577609002125;None;None;None;[];516.6577609002125;None;"['7', '7']";"[0.3474209001287818, 1.1072285000700504]";516.6577609002125;None;;;S10938;2021_Sep_30_1628;VideoMask;2021.1.2;119.99385649127257;
4.0;m;004_o_m_h_a.jpg;happy;9.0;happy_25.1ns.avi;happy;9.0;congruent;120.0;150.0;216.63044503818386;h_h;;;;;0;37;37;37;;;;;;;519.657621800201;None;521.657229000004;521.9741669001523;523.1408121001441;523.1581417000853;526.7990312001202;None;None;0;;526.7990312001202;None;;;;;;;;4;;;;;;;528.348917900119;None;None;None;[];528.348917900119;None;['7'];[1.4320863999892026];528.348917900119;None;;;S10938;2021_Sep_30_1628;VideoMask;2021.1.2;119.99385649127257;
4.0;m;004_o_m_s_a.jpg;sad;7.0;happy_131.2.wmv;happy;9.0;incongruent;130.0;150.0;181.38407540847405;s_h;;;;;0;38;38;38;;;;;;;531.3490419001319;None;533.0653508000541;533.382058700081;534.5151355001144;534.5319631001912;536.5157961000223;None;None;0;;536.5157961000223;None;;;;;;;;5;;;;;;;538.0568703000899;None;None;None;[];538.0568703000899;None;None;;538.0568703000899;None;;;S10938;2021_Sep_30_1628;VideoMask;2021.1.2;119.99385649127257;
0.0;f;040_y_f_h_a.jpg;happy;9.0;happy_24.3ns.avi;happy;9.0;congruent;120.0;150.0;213.25460698950434;h_h;;;;;0;39;39;39;;;;;;;541.0901635000482;None;543.0567322000861;543.3733547001611;544.5066565000452;544.523729900131;546.4319112000521;None;None;0;;546.4319112000521;None;;;;;;;;5;;;;;;;548.1150651001371;None;None;None;[];548.1150651001371;None;None;;548.1150651001371;None;;;S10938;2021_Sep_30_1628;VideoMask;2021.1.2;119.99385649127257;
2.0;f;012_o_f_s_a.jpg;sad;7.0;happy_139.1.wmv;happy;9.0;incongruent;130.0;150.0;162.31500468041804;s_h;;;;;0;40;40;40;;;;;;;551.1314328000881;None;552.6813960000873;552.9981089001521;554.1730803002138;554.1898856000043;556.1316307000816;None;9;0;0.32945149997249246;556.1316307000816;None;;;;;;;;7;;;;;;;557.6813284000382;None;None;None;[];557.6813284000382;None;"['9', '9']";"[0.27612329996190965, 0.7719560000114143]";557.6813284000382;None;;;S10938;2021_Sep_30_1628;VideoMask;2021.1.2;119.99385649127257;
0.0;f;030_o_f_h_a.jpg;happy;9.0;happy_24.1ns.avi;happy;9.0;congruent;120.0;150.0;168.36256624020774;h_h;;;;;0;41;41;41;;;;;;;560.6814455001149;None;562.2812410001643;562.5978186000139;563.772668500198;563.7894556000829;567.0563550000079;None;None;0;;567.0563550000079;None;;;;;;;;4;;;;;;;568.6058761000168;None;None;None;[];568.6058761000168;None;['7'];[0.3271608001086861];568.6058761000168;None;;;S10938;2021_Sep_30_1628;VideoMask;2021.1.2;119.99385649127257;
2.0;f;012_o_f_h_a.jpg;happy;9.0;sad_113.1.wmv;sad;7.0;incongruent;120.0;160.0;177.44551734737394;h_s;;;;;0;42;42;42;;;;;;;571.6144407000393;None;573.3057604001369;573.622419900028;574.755668300204;574.780828300165;576.755909500178;None;None;0;;576.755909500178;None;;;;;;;;3;;;;;;;578.3055861000903;None;None;None;[];578.3055861000903;None;"['7', '7', '7']";"[0.21943409997038543, 0.4672487999778241, 0.7232578999828547]";578.3055861000903;None;;;S10938;2021_Sep_30_1628;VideoMask;2021.1.2;119.99385649127257;
3.0;m;033_o_m_s_a.jpg;sad;7.0;sad_64.5ns.avi;sad;7.0;congruent;130.0;160.0;130.55717223801247;s_s;;;;;0;43;43;43;;;;;;;581.3058237000369;None;582.5971582001075;582.9138513000216;584.0888484001625;584.1061325999908;590.630361400079;None;None;0;;590.630361400079;None;;;;;;;;3;;;;;;;592.1804489002097;None;None;None;[];592.1804489002097;None;"['7', '7']";"[0.312709900084883, 1.216638500103727]";592.1804489002097;None;;;S10938;2021_Sep_30_1628;VideoMask;2021.1.2;119.99385649127257;
7.0;m;027_o_m_h_a.jpg;happy;9.0;sad_117.1.wmv;sad;7.0;incongruent;120.0;160.0;181.28665202824095;h_s;;;;;0;44;44;44;;;;;;;595.1802064001095;None;596.9052761001512;597.2217938001268;598.355140700005;598.3718082001433;600.3551754001528;None;7;0;1.4017785000614822;600.3551754001528;None;;;;;;;;2;;;;;;;601.9050083002076;None;None;None;[];601.9050083002076;None;"['7', '7', '7', '7']";"[0.4279481000266969, 1.2278722999617457, 1.8519927999004722, 2.292206399841234]";601.9050083002076;None;;;S10938;2021_Sep_30_1628;VideoMask;2021.1.2;119.99385649127257;
3.0;m;033_o_m_s_a.jpg;sad;7.0;happy_126.3.wmv;happy;9.0;incongruent;130.0;150.0;198.85252030535366;s_h;;;;;0;45;45;45;;;;;;;604.9049086000305;None;606.763120100135;607.0797640001401;608.2214091001078;608.2381090000272;610.2215020000003;None;None;0;;610.2215020000003;None;;;;;;;;6;;;;;;;611.78805260011;None;None;None;[];611.78805260011;None;['9'];[9.835744199808687];611.78805260011;None;;;S10938;2021_Sep_30_1628;VideoMask;2021.1.2;119.99385649127257;
3.0;m;033_o_m_h_a.jpg;happy;9.0;sad_136.1.wmv;sad;7.0;incongruent;120.0;160.0;176.97002883463455;h_s;;;;;0;46;46;46;;;;;;;614.7714502001181;None;616.4627655001823;616.7794778000098;617.9045924001839;617.9212001000997;619.9211536000948;None;7;0;1.292026799870655;619.9211536000948;None;;;;;;;;4;;;;;;;621.4710847001988;None;None;None;[];621.4710847001988;None;"['7', '7', '9']";"[0.37407509982585907, 0.669862899929285, 1.6619076998904347]";621.4710847001988;None;;;S10938;2021_Sep_30_1628;VideoMask;2021.1.2;119.99385649127257;
9.0;f;019_m_f_h_a.jpg;happy;9.0;happy_10.1ns.avi;happy;9.0;congruent;120.0;150.0;157.2463435658512;h_h;;;;;0;47;47;47;;;;;;;624.4710970001761;None;625.9958136000205;626.3124145001639;627.4796742000617;627.4958957000636;634.9039536002092;None;9;0;1.149217400001362;634.9039536002092;None;;;;;;;;6;;;;;;;636.6288358999882;None;None;None;[];636.6288358999882;None;['9'];[0.3920909999869764];636.6288358999882;None;;;S10938;2021_Sep_30_1628;VideoMask;2021.1.2;119.99385649127257;
2.0;f;012_o_f_h_a.jpg;happy;9.0;happy_2.2ns.avi;happy;9.0;congruent;120.0;150.0;206.34800317295262;h_h;;;;;0;48;48;48;;;;;;;639.637339600129;None;641.5952918000985;641.9119421001524;643.0787846001331;643.0954154999927;655.2535227001645;None;None;0;;655.2535227001645;None;;;;;;;;6;;;;;;;656.820064800093;None;None;None;[];656.820064800093;None;['9'];[0.30496430001221597];656.820064800093;None;;;S10938;2021_Sep_30_1628;VideoMask;2021.1.2;119.99385649127257;
3.0;m;033_o_m_h_a.jpg;happy;9.0;happy_24.2ns.avi;happy;9.0;congruent;120.0;150.0;167.9423847659953;h_h;;;;;0;49;49;49;;;;;;;659.820049200207;None;661.4113604000304;661.7280655000359;662.8614770001732;662.8781597001944;666.5864056001883;None;None;0;;666.5864056001883;None;;;;;;;;5;;;;;;;668.1361517000478;None;None;None;[];668.1361517000478;None;None;;668.1361517000478;None;;;S10938;2021_Sep_30_1628;VideoMask;2021.1.2;119.99385649127257;
1.0;f;021_o_f_s_a.jpg;sad;7.0;happy_61.2ns.avi;happy;9.0;incongruent;130.0;150.0;210.94664004826666;s_h;;;;;0;50;50;50;;;;;;;671.1695477000903;None;673.119358099997;673.4360341001302;674.5949117001146;674.6197994002141;679.0944054999854;None;9;0;1.0304832998663187;679.0944054999854;None;;;;;;;;6;;;;;;;680.9859349001199;None;None;None;[];680.9859349001199;None;"['9', '9']";"[0.22697669989429414, 1.099392500007525]";680.9859349001199;None;;;S10938;2021_Sep_30_1628;VideoMask;2021.1.2;119.99385649127257;
4.0;m;004_o_m_s_a.jpg;sad;7.0;sad_2.4ns.avi;sad;7.0;congruent;130.0;160.0;153.02079367163634;s_s;;;;;0;51;51;51;;;;;;;683.9857877001632;None;685.4772403000388;685.79394220002;686.9940550001338;687.010679300176;694.8938217000104;None;7;0;0.8788919001817703;694.8938217000104;None;;;;;;;;4;;;;;;;696.452067800099;None;None;None;[];696.452067800099;None;['7'];[0.3126238000113517];696.452067800099;None;;;S10938;2021_Sep_30_1628;VideoMask;2021.1.2;119.99385649127257;
8.0;m;008_y_m_h_a.jpg;happy;9.0;happy_1.2ns.avi;happy;9.0;congruent;120.0;150.0;210.98946429383824;h_h;;;;;0;52;52;52;;;;;;;699.4521192000248;None;701.4433815001976;701.7602917000186;702.8935781000182;702.9101011001039;715.6850517001003;None;None;0;;715.6850517001003;None;;;;;;;;4;;;;;;;717.2437128000893;None;None;None;[];717.2437128000893;None;['7'];[0.2571630000602454];717.2437128000893;None;;;S10938;2021_Sep_30_1628;VideoMask;2021.1.2;119.99385649127257;
2.0;f;012_o_f_s_a.jpg;sad;7.0;happy_52.2ns.avi;happy;9.0;incongruent;130.0;150.0;172.57202848318138;s_h;;;;;0;53;53;53;;;;;;;720.2430726001039;None;721.8760393001139;722.1928795001004;723.326238800073;723.3428708000574;726.8762257001363;None;None;0;;726.8762257001363;None;;;;;;;;4;;;;;;;728.4259024001658;None;None;None;[];728.4259024001658;None;['7'];[0.9391326999757439];728.4259024001658;None;;;S10938;2021_Sep_30_1628;VideoMask;2021.1.2;119.99385649127257;
9.0;f;019_m_f_s_a.jpg;sad;7.0;happy_61.1ns.avi;happy;9.0;incongruent;130.0;150.0;181.3003220572762;s_h;;;;;0;54;54;54;;;;;;;731.434321800014;None;733.1675124000758;733.4847824000753;734.6259178000037;734.642539500026;742.0090434001759;None;9;0;0.7558836999814957;742.0090434001759;None;;;;;;;;7;;;;;;;743.5673241000623;None;None;None;[];743.5673241000623;None;"['9', '9', '9']";"[0.2693618999328464, 0.6214836998842657, 0.9494033998344094]";743.5673241000623;None;;;S10938;2021_Sep_30_1628;VideoMask;2021.1.2;119.99385649127257;
0.0;f;030_o_f_h_a.jpg;happy;9.0;sad_133.1.wmv;sad;7.0;incongruent;120.0;160.0;198.86251500867985;h_s;;;;;0;55;55;55;;;;;;;746.5672143001575;None;748.4336255001836;748.7503291000612;749.8754599001259;749.892011700198;751.8837771001272;None;None;0;;751.8837771001272;None;;;;;;;;3;;;;;;;753.4338101001922;None;None;None;[];753.4338101001922;None;"['7', '7', '7']";"[0.22676170011982322, 0.6510924999602139, 2.067047599935904]";753.4338101001922;None;;;S10938;2021_Sep_30_1628;VideoMask;2021.1.2;119.99385649127257;
0.0;f;040_y_f_h_a.jpg;happy;9.0;sad_128.2.wmv;sad;7.0;incongruent;120.0;160.0;206.10005857915363;h_s;;;;;0;56;56;56;;;;;;;756.4335994001012;None;758.3666664001066;758.6833570001181;759.816607600078;759.8334693000652;761.8166894000024;None;None;0;;761.8166894000024;None;;;;;;;;3;;;;;;;763.3665947001427;None;None;None;[];763.3665947001427;None;"['7', '7']";"[0.3580098000820726, 2.3581414001528174]";763.3665947001427;None;;;S10938;2021_Sep_30_1628;VideoMask;2021.1.2;119.99385649127257;
1.0;f;021_o_f_s_a.jpg;sad;7.0;sad_9.5ns.avi;sad;7.0;congruent;130.0;160.0;206.16642757875042;s_s;;;;;0;57;57;57;;;;;;;766.3665767000057;None;768.2829116000794;768.5998420000542;769.7752000000328;769.7998233002145;775.4579008000437;None;None;0;;775.4579008000437;None;;;;;;;;4;;;;;;;777.0078829000704;None;None;None;[];777.0078829000704;None;['7'];[0.33301870012655854];777.0078829000704;None;;;S10938;2021_Sep_30_1628;VideoMask;2021.1.2;119.99385649127257;
1.0;f;021_o_f_h_a.jpg;happy;9.0;happy_12.1ns.avi;happy;9.0;congruent;120.0;150.0;132.59080005900228;h_h;;;;;0;58;58;58;;;;;;;780.0078801000491;None;781.3409047001041;781.6576113000046;782.8160577001981;782.832627300173;790.407421400072;None;9;0;0.2933402999769896;790.407421400072;None;;;;;;;;9;;;;;;;791.9574122000486;None;None;None;[];791.9574122000486;None;"['9', '9', '9', '9']";"[0.1991405999287963, 1.0151456999592483, 1.2552068999502808, 1.4712487999349833]";791.9574122000486;None;;;S10938;2021_Sep_30_1628;VideoMask;2021.1.2;119.99385649127257;
3.0;m;013_y_m_s_a.jpg;sad;7.0;happy_56.2ns.avi;happy;9.0;incongruent;130.0;150.0;163.39234110935848;s_h;;;;;0;59;59;59;;;;;;;794.9573441001121;None;796.5239560999908;796.8404484000057;798.0318978000432;798.0486881001852;802.9987506000325;None;None;0;;802.9987506000325;None;;;;;;;;6;;;;;;;804.5485077002086;None;None;None;[];804.5485077002086;None;['9'];[0.39247949980199337];804.5485077002086;None;;;S10938;2021_Sep_30_1628;VideoMask;2021.1.2;119.99385649127257;
;;;;;;;;;;;;;;;;;;;;;;;;;;;;;;;;;;;;;;;;;;;;;;;;;;;;;;;;;;;;;;;;;807.5570758001413;None;;;;;;
