primePerson;primeGender;prime;primeEmotion;corrAnsPrime;target;targetEmotion;corrAnsTar;Cond;ID_Primer;ID_Target;JitterTime;Condition;example.thisRepN;example.thisTrialN;example.thisN;example.thisIndex;study.thisRepN;study.thisTrialN;study.thisN;study.thisIndex;MR_trigger_time;MR_trigger_number;text_intro.started;text_intro.stopped;text_probe.started;text_probe.stopped;polygon_ISI.started;polygon_ISI.stopped;polygon.started;polygon.stopped;primerImage.started;primerImage.stopped;response.started;response.stopped;key_resp.keys;key_resp.corr;key_resp.started;key_resp.stopped;slider_Text.started;slider_Text.stopped;slider_ex.response;slider_ex.rt;slider_ex.history;slider_ex.started;slider_ex.stopped;Rating;slider_resp_response.keys;slider_resp_response.rt;slider_resp_response.started;slider_resp_response.stopped;key_resp.rt;text_start.started;text_start.stopped;text_slider.started;text_slider.stopped;slider_stud.response;slider_stud.rt;slider_stud.history;slider_stud.started;slider_stud.stopped;slider_resp_study.keys;slider_resp_study.rt;slider_resp_study.started;slider_resp_study.stopped;text_ende.started;text_ende.stopped;participant;date;expName;psychopyVersion;frameRate;
1111;m;1111_m_m_h_a.jpg;happy;9;example_30.4ns.avi;neutral;7;incongruent;120.0;170.0;189.5874364012288;;0;0;0;0;;;;;40.965031799976714;1;41.04253029997926;43.042718799901195;43.042718799901195;None;45.059885399998166;None;47.27676679997239;47.59252770000603;48.717523799976334;48.734133099904284;53.067445699940436;None;None;0;53.067445699940436;None;54.667041199980304;None;None;None;[];54.667041199980304;None;7;"['9', '9']";"[13.577568699955009, 2.1545544000109658]";54.667041199980304;None;;;;;;;;;;;;;;;;;S11174;2022_Jan_28_1621;VideoMask;2021.1.2;120.01113700654798;
1113;f;1113_y_f_s_a.jpg;sad;7;example_30.3ns.avi;neutral;7;incongruent;130.0;170.0;229.02432995836998;;0;1;1;1;;;;;;;;;;;57.650693099945784;None;59.758727099979296;60.07537959993351;61.21718449995387;61.23373949993402;63.2170956999762;None;8;0;63.2170956999762;None;64.76704849989619;None;None;None;[];64.76704849989619;None;5;None;;64.76704849989619;None;1.0364070000359789;;;;;;;;;;;;;;;;S11174;2022_Jan_28_1621;VideoMask;2021.1.2;120.01113700654798;
9.0;f;019_m_f_h_a.jpg;happy;9.0;sad_115.1.wmv;sad;7.0;incongruent;120.0;160.0;128.09063432376465;h_s;;;;;0;0;0;0;;;;;;;68.80029539996758;None;70.06673500000034;70.3834949999582;71.51675399998203;71.53345529991202;73.51681989990175;None;7;0;73.51681989990175;None;;;;;;;;3;;;;;0.8008645999943838;67.80031540000346;None;75.06667149998248;None;None;None;[];75.06667149998248;None;"['7', '7']";"[0.7630666999612004, 1.7470175999915227]";75.06667149998248;None;;;S11174;2022_Jan_28_1621;VideoMask;2021.1.2;120.01113700654798;
3.0;m;033_o_m_s_a.jpg;sad;7.0;sad_94.2ns.avi;sad;7.0;congruent;130.0;160.0;182.29120173647655;s_s;;;;;0;1;1;1;;;;;;;78.06673590000719;None;79.77478629990947;80.09151609998662;81.22474069998134;81.24156709993258;83.91650299995672;None;7;0;83.91650299995672;None;;;;;;;;4;;;;;0.6410565000260249;;;85.46643709996715;None;None;None;[];85.46643709996715;None;['7'];[0.9551277999999002];85.46643709996715;None;;;S11174;2022_Jan_28_1621;VideoMask;2021.1.2;120.01113700654798;
8.0;m;008_y_m_h_a.jpg;happy;9.0;happy_26.1ns.avi;happy;9.0;congruent;120.0;150.0;155.9437854594882;h_h;;;;;0;2;2;2;;;;;;;88.4748328999849;None;89.94943339994643;90.26621779997367;91.42463019990828;91.4411963999737;93.39117299998179;None;9;0;93.39117299998179;None;;;;;;;;7;;;;;0.622591600054875;;;94.94117199990433;None;None;None;[];94.94117199990433;None;"['9', '9']";"[0.5525446999818087, 1.1684595999540761]";94.94117199990433;None;;;S11174;2022_Jan_28_1621;VideoMask;2021.1.2;120.01113700654798;
0.0;f;040_y_f_h_a.jpg;happy;9.0;sad_138.1.wmv;sad;7.0;incongruent;120.0;160.0;133.99071306426532;h_s;;;;;0;3;3;3;;;;;;;97.94948519999161;None;99.26590529992245;99.58263049996458;100.70770439994521;100.72419949993491;102.72429069993086;None;8;0;102.72429069993086;None;;;;;;;;4;;;;;1.3932841999921948;;;104.27423449989874;None;None;None;[];104.27423449989874;None;['7'];[2.387419999926351];104.27423449989874;None;;;S11174;2022_Jan_28_1621;VideoMask;2021.1.2;120.01113700654798;
8.0;f;028_y_f_s_a.jpg;sad;7.0;sad_64.2ns.avi;sad;7.0;congruent;130.0;160.0;229.88540597086478;s_s;;;;;0;4;4;4;;;;;;;107.27409329998773;None;109.42388819996268;109.74066689994652;110.89107589994092;110.91567239991855;121.87362759991083;None;7;0;121.87362759991083;None;;;;;;;;4;;;;;0.7481359000084922;;;123.42364759999327;None;None;None;[];123.42364759999327;None;['7'];[1.0061137999873608];123.42364759999327;None;;;S11174;2022_Jan_28_1621;VideoMask;2021.1.2;120.01113700654798;
7.0;m;027_o_m_s_a.jpg;sad;7.0;sad_10.4ns.avi;sad;7.0;congruent;130.0;160.0;185.20129417468752;s_s;;;;;0;5;5;5;;;;;;;126.4234901999589;None;128.1566719999537;128.47343669994734;129.6565994999837;129.6732593999477;132.77338569995482;None;7;0;132.77338569995482;None;;;;;;;;5;;;;;0.9044383000582457;;;134.32324870000593;None;None;None;[];134.32324870000593;None;None;;134.32324870000593;None;;;S11174;2022_Jan_28_1621;VideoMask;2021.1.2;120.01113700654798;
2.0;f;012_o_f_s_a.jpg;sad;7.0;sad_7.5ns.avi;sad;7.0;congruent;130.0;160.0;220.27842655424388;s_s;;;;;0;6;6;6;;;;;;;137.33981559996027;None;139.36473249993287;139.6898750999244;140.89816389989574;140.91463419992942;143.60661339992657;None;7;0;143.60661339992657;None;;;;;;;;5;;;;;0.76694130001124;;;145.62297819997184;None;None;None;[];145.62297819997184;None;['7'];[2.526700200047344];145.62297819997184;None;;;S11174;2022_Jan_28_1621;VideoMask;2021.1.2;120.01113700654798;
2.0;f;012_o_f_h_a.jpg;happy;9.0;happy_27.1ns.avi;happy;9.0;congruent;120.0;150.0;146.44967055810616;h_h;;;;;0;7;7;7;;;;;;;148.62289739993867;None;150.03105119999964;150.3477656999603;151.48938899999484;151.50610739993863;153.97269450000022;None;9;0;153.97269450000022;None;;;;;;;;7;;;;;0.6810588999651372;;;155.52268619998358;None;None;None;[];155.52268619998358;None;"['9', '9', '9']";"[1.026976800058037, 1.5469845000188798, 2.130896299961023]";155.52268619998358;None;;;S11174;2022_Jan_28_1621;VideoMask;2021.1.2;120.01113700654798;
8.0;f;028_y_f_h_a.jpg;happy;9.0;sad_119.1.wmv;sad;7.0;incongruent;120.0;160.0;148.71526953572538;h_s;;;;;0;8;8;8;;;;;;;158.53107489994727;None;159.97242419992108;160.2891369999852;161.42291879991535;161.44749880000018;163.48915819998365;None;7;0;163.48915819998365;None;;;;;;;;3;;;;;0.476575699984096;;;165.03910349996295;None;None;None;[];165.03910349996295;None;"['7', '7']";"[0.5665256000356749, 1.7670270999660715]";165.03910349996295;None;;;S11174;2022_Jan_28_1621;VideoMask;2021.1.2;120.01113700654798;
6.0;m;016_y_m_s_a.jpg;sad;7.0;happy_60.4ns.avi;happy;9.0;incongruent;130.0;150.0;126.02367393611817;s_h;;;;;0;9;9;9;;;;;;;168.04745129996445;None;169.30549019994214;169.62218619999476;170.76392629998736;170.78056499990635;176.54714209993836;None;9;0;176.54714209993836;None;;;;;;;;6;;;;;0.6662871000589803;;;178.08867849991657;None;None;None;[];178.08867849991657;None;['9'];[0.5570812999503687];178.08867849991657;None;;;S11174;2022_Jan_28_1621;VideoMask;2021.1.2;120.01113700654798;
9.0;f;019_m_f_s_a.jpg;sad;7.0;sad_8.4ns.avi;sad;7.0;congruent;130.0;160.0;171.6633093155257;s_s;;;;;0;10;10;10;;;;;;;181.09696249989793;None;182.75502319994848;183.0717589999549;184.23855669994373;184.25521629990544;192.34674569999333;None;7;0;192.34674569999333;None;;;;;;;;4;;;;;0.8990044000092894;;;193.8965505999513;None;None;None;[];193.8965505999513;None;['7'];[0.7492957999929786];193.8965505999513;None;;;S11174;2022_Jan_28_1621;VideoMask;2021.1.2;120.01113700654798;
4.0;m;004_o_m_h_a.jpg;happy;9.0;happy_1.1ns.avi;happy;9.0;congruent;120.0;150.0;203.50057144619865;h_h;;;;;0;11;11;11;;;;;;;196.89648959995247;None;198.85444199992344;199.17142389994115;200.32137549994513;200.33799079991877;214.7874619999202;None;None;0;214.7874619999202;None;;;;;;;;5;;;;;;;;216.35410879994743;None;None;None;[];216.35410879994743;None;"['9', '7']";"[22.405295000062324, 1.500071999966167]";216.35410879994743;None;;;S11174;2022_Jan_28_1621;VideoMask;2021.1.2;120.01113700654798;
7.0;m;027_o_m_h_a.jpg;happy;9.0;happy_20.1ns.avi;happy;9.0;congruent;120.0;150.0;152.91127178874285;h_h;;;;;0;12;12;12;;;;;;;219.33762629993726;None;220.80385889997706;221.12067169998772;222.27901519997977;222.29578319995198;225.27083429996856;None;9;0;225.27083429996856;None;;;;;;;;6;;;;;0.710824100067839;;;226.82056699995883;None;None;None;[];226.82056699995883;None;"['9', '9']";"[2.161173800006509, 2.8651993999956176]";226.82056699995883;None;;;S11174;2022_Jan_28_1621;VideoMask;2021.1.2;120.01113700654798;
0.0;f;040_y_f_s_a.jpg;sad;7.0;sad_94.3ns.avi;sad;7.0;congruent;130.0;160.0;155.27414203894395;s_s;;;;;0;13;13;13;;;;;;;229.8204317999771;None;231.30360330000985;231.62036289996468;232.770390199963;232.78706879995298;235.3787059999304;None;7;0;235.3787059999304;None;;;;;;;;5;;;;;0.6830704000312835;;;236.92860839993227;None;None;None;[];236.92860839993227;None;None;;236.92860839993227;None;;;S11174;2022_Jan_28_1621;VideoMask;2021.1.2;120.01113700654798;
0.0;f;030_o_f_s_a.jpg;sad;7.0;sad_68.1ns.avi;sad;7.0;congruent;130.0;160.0;158.9411396037211;s_s;;;;;0;14;14;14;;;;;;;239.94512369995937;None;241.47821400000248;241.79503379995003;243.03676529997028;243.05337330000475;250.35336999990977;None;7;0;250.35336999990977;None;;;;;;;;3;;;;;0.5003733999328688;;;251.91148749995045;None;None;None;[];251.91148749995045;None;"['7', '7']";"[0.48621550004463643, 1.1900771000655368]";251.91148749995045;None;;;S11174;2022_Jan_28_1621;VideoMask;2021.1.2;120.01113700654798;
0.0;f;030_o_f_h_a.jpg;happy;9.0;sad_127.1.wmv;sad;7.0;incongruent;120.0;160.0;180.59976631384873;h_s;;;;;0;15;15;15;;;;;;;254.9115002999315;None;256.6362134999363;256.952951699961;258.0780671999091;258.09468879993074;260.094572699978;None;None;0;260.094572699978;None;;;;;;;;4;;;;;;;;261.6443539999891;None;None;None;[];261.6443539999891;None;['7'];[0.07348579994868487];261.6443539999891;None;;;S11174;2022_Jan_28_1621;VideoMask;2021.1.2;120.01113700654798;
8.0;m;008_y_m_s_a.jpg;sad;7.0;happy_133.3.wmv;happy;9.0;incongruent;130.0;150.0;152.577966552593;s_h;;;;;0;16;16;16;;;;;;;264.6446277999785;None;266.1276702999603;266.4444082999835;267.5694431999;267.58602299995255;269.5776173999766;None;9;0;269.5776173999766;None;;;;;;;;6;;;;;0.7723823999986053;;;271.11928689992055;None;None;None;[];271.11928689992055;None;['9'];[0.7508148000342771];271.11928689992055;None;;;S11174;2022_Jan_28_1621;VideoMask;2021.1.2;120.01113700654798;
3.0;m;033_o_m_h_a.jpg;happy;9.0;sad_128.1.wmv;sad;7.0;incongruent;120.0;160.0;171.0492454518585;h_s;;;;;0;17;17;17;;;;;;;274.1193151999032;None;275.75229859992396;276.0690351999365;277.21059219993185;277.22743789991364;279.2023678999394;None;7;0;279.2023678999394;None;;;;;;;;3;;;;;0.6433412000769749;;;280.7606301999185;None;None;None;[];280.7606301999185;None;"['7', '7']";"[0.6933440000284463, 1.5973125000018626]";280.7606301999185;None;;;S11174;2022_Jan_28_1621;VideoMask;2021.1.2;120.01113700654798;
1.0;f;021_o_f_h_a.jpg;happy;9.0;sad_116.1.wmv;sad;7.0;incongruent;120.0;160.0;184.06847610053055;h_s;;;;;0;18;18;18;;;;;;;283.7606722000055;None;285.50193819997367;285.8187287999317;286.99354769999627;287.0102173999185;288.960328899906;None;7;0;288.960328899906;None;;;;;;;;3;;;;;0.6216357999946922;;;290.5103461999679;None;None;None;[];290.5103461999679;None;"['7', '7']";"[0.7195576999802142, 2.287679100059904]";290.5103461999679;None;;;S11174;2022_Jan_28_1621;VideoMask;2021.1.2;120.01113700654798;
4.0;m;004_o_m_s_a.jpg;sad;7.0;happy_28.1ns.avi;happy;9.0;incongruent;130.0;150.0;157.40741103039684;s_h;;;;;0;19;19;19;;;;;;;293.5354632999515;None;295.0434295999585;295.3601218999829;296.551648399909;296.5685218999861;300.8851256999187;None;9;0;300.8851256999187;None;;;;;;;;8;;;;;0.6244733999483287;;;302.434952499927;None;None;None;[];302.434952499927;None;"['9', '9', '9']";"[0.43481080001220107, 0.9147606999613345, 1.3787565999664366]";302.434952499927;None;;;S11174;2022_Jan_28_1621;VideoMask;2021.1.2;120.01113700654798;
8.0;f;028_y_f_s_a.jpg;sad;7.0;happy_122.3.wmv;happy;9.0;incongruent;130.0;150.0;171.8670540936116;s_h;;;;;0;20;20;20;;;;;;;305.43498239992186;None;307.0680361998966;307.3848483999027;308.51819039997645;308.5354770999402;310.51815159991384;None;9;0;310.51815159991384;None;;;;;;;;7;;;;;0.7516211000038311;;;312.0679854999762;None;None;None;[];312.0679854999762;None;"['9', '9']";"[0.44186889997217804, 0.8580259999725968]";312.0679854999762;None;;;S11174;2022_Jan_28_1621;VideoMask;2021.1.2;120.01113700654798;
8.0;m;008_y_m_s_a.jpg;sad;7.0;sad_6.5ns.avi;sad;7.0;congruent;130.0;160.0;170.39333839271438;s_s;;;;;0;21;21;21;;;;;;;315.0679513999494;None;316.6928059000056;317.0095422999002;318.19286429998465;318.209537699935;323.1428442999022;None;7;0;323.1428442999022;None;;;;;;;;4;;;;;0.6548927999101579;;;324.6926413999172;None;None;None;[];324.6926413999172;None;['7'];[0.4973429999081418];324.6926413999172;None;;;S11174;2022_Jan_28_1621;VideoMask;2021.1.2;120.01113700654798;
8.0;f;028_y_f_h_a.jpg;happy;9.0;happy_23.1ns.avi;happy;9.0;congruent;120.0;150.0;225.70986890587952;h_h;;;;;0;22;22;22;;;;;;;327.6927267999854;None;329.76738139998633;330.0840360999573;331.2337899999693;331.25078349991236;335.7924222999718;None;9;0;335.7924222999718;None;;;;;;;;8;;;;;0.6212912000482902;;;337.3422844999004;None;None;None;[];337.3422844999004;None;"['9', '9', '9']";"[0.3757798000006005, 0.6634087999118492, 1.0477887999732047]";337.3422844999004;None;;;S11174;2022_Jan_28_1621;VideoMask;2021.1.2;120.01113700654798;
8.0;m;008_y_m_h_a.jpg;happy;9.0;sad_111.1.wmv;sad;7.0;incongruent;120.0;160.0;152.63076835312847;h_s;;;;;0;23;23;23;;;;;;;340.35063379991334;None;341.8253754999023;342.14206409989856;343.2754766999278;343.2920799999265;345.27532709995285;None;7;0;345.27532709995285;None;;;;;;;;3;;;;;0.7065561000490561;;;346.8253666999517;None;None;None;[];346.8253666999517;None;"['7', '7']";"[0.580530000035651, 1.7645978999789804]";346.8253666999517;None;;;S11174;2022_Jan_28_1621;VideoMask;2021.1.2;120.01113700654798;
0.0;f;040_y_f_s_a.jpg;sad;7.0;sad_67.2ns.avi;sad;7.0;congruent;130.0;160.0;220.9892697323079;s_s;;;;;0;24;24;24;;;;;;;349.8253721999936;None;351.88366619998123;352.20013599994127;353.4001776999794;353.4168541999534;362.56723689998034;None;7;0;362.56723689998034;None;;;;;;;;3;;;;;0.48645790002774447;;;364.2248271999415;None;None;None;[];364.2248271999415;None;"['7', '7']";"[0.4612734999973327, 0.8448218000121415]";364.2248271999415;None;;;S11174;2022_Jan_28_1621;VideoMask;2021.1.2;120.01113700654798;
8.0;m;008_y_m_s_a.jpg;sad;7.0;happy_29.1ns.avi;happy;9.0;incongruent;130.0;150.0;120.0316142834122;s_h;;;;;0;25;25;25;;;;;;;367.22481099993456;None;368.42451539996546;368.7412909999257;369.86597599997185;369.8829662000062;372.5663580999244;None;9;0;372.5663580999244;None;;;;;;;;7;;;;;0.42341290006879717;;;374.1162117999047;None;None;None;[];374.1162117999047;None;"['9', '9']";"[0.4977071000030264, 0.8416533999843523]";374.1162117999047;None;;;S11174;2022_Jan_28_1621;VideoMask;2021.1.2;120.01113700654798;
6.0;m;016_y_m_s_a.jpg;sad;7.0;sad_8.3ns.avi;sad;7.0;congruent;130.0;160.0;152.85371098242734;s_s;;;;;0;26;26;26;;;;;;;377.11618479993194;None;378.5993283999851;378.91607809998095;380.0575009000022;380.07429439993575;387.8074358999729;None;7;0;387.8074358999729;None;;;;;;;;5;;;;;0.47847299999557436;;;389.3574122999562;None;None;None;[];389.3574122999562;None;None;;389.3574122999562;None;;;S11174;2022_Jan_28_1621;VideoMask;2021.1.2;120.01113700654798;
6.0;m;016_y_m_h_a.jpg;happy;9.0;sad_114.1.wmv;sad;7.0;incongruent;120.0;160.0;136.20550699298644;h_s;;;;;0;27;27;27;;;;;;;392.38233709998894;None;393.7239746999694;394.0406021999661;395.1656779999612;395.1822441999102;397.17380309989676;None;7;0;397.17380309989676;None;;;;;;;;4;;;;;0.5679413999896497;;;398.72380659997;None;None;None;[];398.72380659997;None;['7'];[0.5298733999952674];398.72380659997;None;;;S11174;2022_Jan_28_1621;VideoMask;2021.1.2;120.01113700654798;
7.0;m;027_o_m_s_a.jpg;sad;7.0;happy_117.3.wmv;happy;9.0;incongruent;130.0;150.0;215.61964028550614;s_h;;;;;0;28;28;28;;;;;;;401.7237715999363;None;403.7151168999262;404.0319102999056;405.15696289995685;405.17366189998575;407.165334399906;None;9;0;407.165334399906;None;;;;;;;;6;;;;;0.5606281999498606;;;408.7151818999555;None;None;None;[];408.7151818999555;None;"['9', '9']";"[0.4185449000215158, 1.2431665000040084]";408.7151818999555;None;;;S11174;2022_Jan_28_1621;VideoMask;2021.1.2;120.01113700654798;
6.0;m;016_y_m_h_a.jpg;happy;9.0;happy_9.2ns.avi;happy;9.0;congruent;120.0;150.0;130.52042428082717;h_h;;;;;0;29;29;29;;;;;;;411.7235583999427;None;413.0315992999822;413.3483006999595;414.5400852999883;414.5567023999756;420.4066329000052;None;9;0;420.4066329000052;None;;;;;;;;6;;;;;0.8633076000260189;;;421.95644769992214;None;None;None;[];421.95644769992214;None;"['9', '9']";"[0.5054456999059767, 2.153548799920827]";421.95644769992214;None;;;S11174;2022_Jan_28_1621;VideoMask;2021.1.2;120.01113700654798;
0.0;f;040_y_f_s_a.jpg;sad;7.0;happy_127.3.wmv;happy;9.0;incongruent;130.0;150.0;131.7195455720239;s_h;;;;;0;30;30;30;;;;;;;424.9648121999344;None;426.2728664999595;426.58957009995356;427.71466850000434;427.73128439998254;429.79855559999123;None;9;0;429.79855559999123;None;;;;;;;;6;;;;;0.4874566999496892;;;431.48950439994223;None;None;None;[];431.48950439994223;None;['9'];[0.516926100011915];431.48950439994223;None;;;S11174;2022_Jan_28_1621;VideoMask;2021.1.2;120.01113700654798;
0.0;f;030_o_f_s_a.jpg;sad;7.0;happy_125.3.wmv;happy;9.0;incongruent;130.0;150.0;220.51454909128134;s_h;;;;;0;31;31;31;;;;;;;434.49778229999356;None;436.5475693999324;436.86427199991886;438.0060287999222;438.02240659995005;439.9976281999843;None;9;0;439.9976281999843;None;;;;;;;;7;;;;;0.8882818999700248;;;441.5475667999126;None;None;None;[];441.5475667999126;None;"['9', '9']";"[0.6826149999396876, 1.8984295999398455]";441.5475667999126;None;;;S11174;2022_Jan_28_1621;VideoMask;2021.1.2;120.01113700654798;
0.0;f;030_o_f_s_a.jpg;sad;7.0;sad_64.3ns.avi;sad;7.0;congruent;130.0;160.0;165.78667874766072;s_s;;;;;0;32;32;32;;;;;;;444.54741609992925;None;446.1305734999478;446.44737750000786;447.60576329997275;447.6223379999865;452.5812469999073;None;None;0;452.5812469999073;None;;;;;;;;5;;;;;;;;454.31366019998677;None;None;None;[];454.31366019998677;None;None;;454.31366019998677;None;;;S11174;2022_Jan_28_1621;VideoMask;2021.1.2;120.01113700654798;
3.0;m;013_y_m_s_a.jpg;sad;7.0;sad_7.7ns.avi;sad;7.0;congruent;130.0;160.0;196.24182255763262;s_s;;;;;0;33;33;33;;;;;;;457.3302782999817;None;459.1635661999462;459.48025799996685;460.6723504998954;460.69694079994224;466.6135835999157;None;7;0;466.6135835999157;None;;;;;;;;4;;;;;0.5283148000016809;;;468.1633977999445;None;None;None;[];468.1633977999445;None;['7'];[0.8823826999869198];468.1633977999445;None;;;S11174;2022_Jan_28_1621;VideoMask;2021.1.2;120.01113700654798;
3.0;m;013_y_m_h_a.jpg;happy;9.0;happy_9.1ns.avi;happy;9.0;congruent;120.0;150.0;165.1890303600433;h_h;;;;;0;34;34;34;;;;;;;471.1806245999178;None;472.75469829991926;473.07149449991994;474.21294199989643;474.22970099991653;477.4299200999085;None;9;0;477.4299200999085;None;;;;;;;;6;;;;;0.6238653000909835;;;478.9797677999595;None;None;None;[];478.9797677999595;None;['9'];[0.7463952000252903];478.9797677999595;None;;;S11174;2022_Jan_28_1621;VideoMask;2021.1.2;120.01113700654798;
4.0;m;004_o_m_h_a.jpg;happy;9.0;sad_95.1ns.avi;sad;7.0;incongruent;120.0;160.0;152.68270002069931;h_s;;;;;0;35;35;35;;;;;;;481.9879890999291;None;483.49617069994565;483.81287089991383;484.9628348998958;484.97956020000856;493.73783509992063;None;7;0;493.73783509992063;None;;;;;;;;2;;;;;0.46836549998261034;;;495.29594109999016;None;None;None;[];495.29594109999016;None;"['7', '7', '7']";"[0.3901492999866605, 0.733953999937512, 1.1577777999918908]";495.29594109999016;None;;;S11174;2022_Jan_28_1621;VideoMask;2021.1.2;120.01113700654798;
3.0;m;013_y_m_h_a.jpg;happy;9.0;sad_113.2.wmv;sad;7.0;incongruent;120.0;160.0;217.4973891947951;h_s;;;;;0;36;36;36;;;;;;;498.29583660000935;None;500.3207814999623;500.63734989997465;501.77071449998766;501.78740049991757;503.7706595999189;None;None;0;503.7706595999189;None;;;;;;;;5;;;;;;;;505.3206016999902;None;None;None;[];505.3206016999902;None;None;;505.3206016999902;None;;;S11174;2022_Jan_28_1621;VideoMask;2021.1.2;120.01113700654798;
4.0;m;004_o_m_h_a.jpg;happy;9.0;happy_25.1ns.avi;happy;9.0;congruent;120.0;150.0;216.63044503818386;h_h;;;;;0;37;37;37;;;;;;;508.3454860999482;None;510.3537965998985;510.6704054999864;511.85374960000627;511.8704393999651;515.4955559999216;None;9;0;515.4955559999216;None;;;;;;;;7;;;;;0.4381376000819728;;;517.0536299999803;None;None;None;[];517.0536299999803;None;"['9', '9']";"[0.584513199981302, 1.0805932000512257]";517.0536299999803;None;;;S11174;2022_Jan_28_1621;VideoMask;2021.1.2;120.01113700654798;
4.0;m;004_o_m_s_a.jpg;sad;7.0;happy_131.2.wmv;happy;9.0;incongruent;130.0;150.0;181.38407540847405;s_h;;;;;0;38;38;38;;;;;;;520.0620017999317;None;521.7783437999897;522.0950563999359;523.2287483999971;523.2533591999672;525.2283673000056;None;9;0;525.2283673000056;None;;;;;;;;6;;;;;0.8496538000181317;;;526.7783238999546;None;None;None;[];526.7783238999546;None;['9'];[0.3313266000477597];526.7783238999546;None;;;S11174;2022_Jan_28_1621;VideoMask;2021.1.2;120.01113700654798;
0.0;f;040_y_f_h_a.jpg;happy;9.0;happy_24.3ns.avi;happy;9.0;congruent;120.0;150.0;213.25460698950434;h_h;;;;;0;39;39;39;;;;;;;529.7866986999288;None;531.761354999966;532.078095600009;533.2365494999103;533.2531145999674;535.1364246999146;None;9;0;535.1364246999146;None;;;;;;;;6;;;;;0.7337850999319926;;;536.6864033999154;None;None;None;[];536.6864033999154;None;['9'];[0.7520070999162272];536.6864033999154;None;;;S11174;2022_Jan_28_1621;VideoMask;2021.1.2;120.01113700654798;
2.0;f;012_o_f_s_a.jpg;sad;7.0;happy_139.1.wmv;happy;9.0;incongruent;130.0;150.0;162.31500468041804;s_h;;;;;0;40;40;40;;;;;;;539.6947014000034;None;541.2527231998974;541.5694799999474;542.702836799901;542.7193623000057;544.7027840999654;None;9;0;544.7027840999654;None;;;;;;;;6;;;;;0.4631552000064403;;;546.2527502999874;None;None;None;[];546.2527502999874;None;['9'];[0.5452307000523433];546.2527502999874;None;;;S11174;2022_Jan_28_1621;VideoMask;2021.1.2;120.01113700654798;
0.0;f;030_o_f_h_a.jpg;happy;9.0;happy_24.1ns.avi;happy;9.0;congruent;120.0;150.0;168.36256624020774;h_h;;;;;0;41;41;41;;;;;;;549.2611513999291;None;550.8607894999441;551.1775061999215;552.3196314999368;552.344112199964;555.6359128999757;None;9;0;555.6359128999757;None;;;;;;;;7;;;;;0.6182140000164509;;;557.1857821999583;None;None;None;[];557.1857821999583;None;"['9', '9']";"[0.39633570006117225, 0.8203729999950156]";557.1857821999583;None;;;S11174;2022_Jan_28_1621;VideoMask;2021.1.2;120.01113700654798;
2.0;f;012_o_f_h_a.jpg;happy;9.0;sad_113.1.wmv;sad;7.0;incongruent;120.0;160.0;177.44551734737394;h_s;;;;;0;42;42;42;;;;;;;560.1941449999576;None;561.8854804999428;562.2021258999594;563.3439031000016;563.3606254999759;565.335410599946;None;None;0;565.335410599946;None;;;;;;;;5;;;;;;;;566.8852978999494;None;None;None;[];566.8852978999494;None;None;;566.8852978999494;None;;;S11174;2022_Jan_28_1621;VideoMask;2021.1.2;120.01113700654798;
3.0;m;033_o_m_s_a.jpg;sad;7.0;sad_64.5ns.avi;sad;7.0;congruent;130.0;160.0;130.55717223801247;s_s;;;;;0;43;43;43;;;;;;;569.9104076999938;None;571.2020135999192;571.5185865999665;572.685335499933;572.7019265999552;579.2519232999766;None;7;0;579.2519232999766;None;;;;;;;;1;;;;;0.3942528000334278;;;580.8100263999077;None;None;None;[];580.8100263999077;None;"['7', '7', '7', '7']";"[0.3482661999296397, 0.595919799990952, 0.8440336999483407, 1.6121432000072673]";580.8100263999077;None;;;S11174;2022_Jan_28_1621;VideoMask;2021.1.2;120.01113700654798;
7.0;m;027_o_m_h_a.jpg;happy;9.0;sad_117.1.wmv;sad;7.0;incongruent;120.0;160.0;181.28665202824095;h_s;;;;;0;44;44;44;;;;;;;583.8184326000046;None;585.5431368999416;585.8598343000049;587.0015216999454;587.01823279995;588.9931474999757;None;8;0;588.9931474999757;None;;;;;;;;5;;;;;1.245133399963379;;;590.543059199932;None;None;None;[];590.543059199932;None;None;;590.543059199932;None;;;S11174;2022_Jan_28_1621;VideoMask;2021.1.2;120.01113700654798;
3.0;m;033_o_m_s_a.jpg;sad;7.0;happy_126.3.wmv;happy;9.0;incongruent;130.0;150.0;198.85252030535366;s_h;;;;;0;45;45;45;;;;;;;593.5680512998952;None;595.4261670999695;595.7428753999993;596.8761814999161;596.8928994999733;598.8761841999367;None;9;0;598.8761841999367;None;;;;;;;;6;;;;;0.5699845000635833;;;600.4261346999556;None;None;None;[];600.4261346999556;None;"['9', '9', '9']";"[0.43605620006565005, 1.036137399962172, 1.8600020000012591]";600.4261346999556;None;;;S11174;2022_Jan_28_1621;VideoMask;2021.1.2;120.01113700654798;
3.0;m;033_o_m_h_a.jpg;happy;9.0;sad_136.1.wmv;sad;7.0;incongruent;120.0;160.0;176.97002883463455;h_s;;;;;0;46;46;46;;;;;;;603.4345159999793;None;605.1091463000048;605.4259217999643;606.551008899929;606.5676080998965;608.5592328999192;None;None;0;608.5592328999192;None;;;;;;;;4;;;;;;;;610.1258095999947;None;None;None;[];610.1258095999947;None;['7'];[2.0005680999020115];610.1258095999947;None;;;S11174;2022_Jan_28_1621;VideoMask;2021.1.2;120.01113700654798;
9.0;f;019_m_f_h_a.jpg;happy;9.0;happy_10.1ns.avi;happy;9.0;congruent;120.0;150.0;157.2463435658512;h_h;;;;;0;47;47;47;;;;;;;613.1259271999588;None;614.650686299894;614.9673057999462;616.0923626999138;616.1090157999424;623.5420368999476;None;9;0;623.5420368999476;None;;;;;;;;7;;;;;0.7200529000256211;;;625.0837241999106;None;None;None;[];625.0837241999106;None;"['9', '9']";"[0.4905927999643609, 1.3625546999974176]";625.0837241999106;None;;;S11174;2022_Jan_28_1621;VideoMask;2021.1.2;120.01113700654798;
2.0;f;012_o_f_h_a.jpg;happy;9.0;happy_2.2ns.avi;happy;9.0;congruent;120.0;150.0;206.34800317295262;h_h;;;;;0;48;48;48;;;;;;;628.0920149999438;None;630.0667581999442;630.3835331998998;631.5917211999185;631.608922299929;643.7248950999929;None;9;0;643.7248950999929;None;;;;;;;;6;;;;;0.5773098999634385;;;645.274828900001;None;None;None;[];645.274828900001;None;['9'];[0.5313724000006914];645.274828900001;None;;;S11174;2022_Jan_28_1621;VideoMask;2021.1.2;120.01113700654798;
3.0;m;033_o_m_h_a.jpg;happy;9.0;happy_24.2ns.avi;happy;9.0;congruent;120.0;150.0;167.9423847659953;h_h;;;;;0;49;49;49;;;;;;;648.2748014999088;None;649.8745965999551;650.1912643999094;651.3245859999442;651.341612799908;655.0496228999691;None;9;0;655.0496228999691;None;;;;;;;;7;;;;;0.49254940007813275;;;656.599464799976;None;None;None;[];656.599464799976;None;"['9', '9']";"[0.5987644999986514, 1.3827911999542266]";656.599464799976;None;;;S11174;2022_Jan_28_1621;VideoMask;2021.1.2;120.01113700654798;
1.0;f;021_o_f_s_a.jpg;sad;7.0;happy_61.2ns.avi;happy;9.0;incongruent;130.0;150.0;210.94664004826666;s_h;;;;;0;50;50;50;;;;;;;659.5994804999791;None;661.549161999952;661.8658980999608;663.032663699938;663.0492836999474;667.5331812999211;None;9;0;667.5331812999211;None;;;;;;;;5;;;;;0.6330493999412283;;;669.1823633000022;None;None;None;[];669.1823633000022;None;None;;669.1823633000022;None;;;S11174;2022_Jan_28_1621;VideoMask;2021.1.2;120.01113700654798;
4.0;m;004_o_m_s_a.jpg;sad;7.0;sad_2.4ns.avi;sad;7.0;congruent;130.0;160.0;153.02079367163634;s_s;;;;;0;51;51;51;;;;;;;672.215688199969;None;673.7237918999745;674.0405443999916;675.19874849997;675.2153719000053;683.1321808999637;None;7;0;683.1321808999637;None;;;;;;;;4;;;;;0.5700030999723822;;;685.131943599903;None;None;None;[];685.131943599903;None;['7'];[1.0742948999395594];685.131943599903;None;;;S11174;2022_Jan_28_1621;VideoMask;2021.1.2;120.01113700654798;
8.0;m;008_y_m_h_a.jpg;happy;9.0;happy_1.2ns.avi;happy;9.0;congruent;120.0;150.0;210.98946429383824;h_h;;;;;0;52;52;52;;;;;;;688.1407977999188;None;690.1316137999529;690.4484609999927;691.6400714999763;691.6567895999178;704.373023299966;None;9;0;704.373023299966;None;;;;;;;;6;;;;;1.041126299998723;;;705.9230392999016;None;None;None;[];705.9230392999016;None;['9'];[0.5632217000238597];705.9230392999016;None;;;S11174;2022_Jan_28_1621;VideoMask;2021.1.2;120.01113700654798;
2.0;f;012_o_f_s_a.jpg;sad;7.0;happy_52.2ns.avi;happy;9.0;incongruent;130.0;150.0;172.57202848318138;s_h;;;;;0;53;53;53;;;;;;;708.9312418999616;None;710.564410299994;710.8811273999745;712.097832200001;712.1144429999404;715.5644402999897;None;9;0;715.5644402999897;None;;;;;;;;6;;;;;0.713788399938494;;;717.6476728999987;None;None;None;[];717.6476728999987;None;['9'];[0.5986641999334097];717.6476728999987;None;;;S11174;2022_Jan_28_1621;VideoMask;2021.1.2;120.01113700654798;
9.0;f;019_m_f_s_a.jpg;sad;7.0;happy_61.1ns.avi;happy;9.0;incongruent;130.0;150.0;181.3003220572762;s_h;;;;;0;54;54;54;;;;;;;720.6477396999253;None;722.3890525999013;722.7058278999757;723.8808177999454;723.8974428999936;731.2304120999761;None;9;0;731.2304120999761;None;;;;;;;;6;;;;;0.7119784000096843;;;732.7722022999078;None;None;None;[];732.7722022999078;None;['9'];[0.5700496999779716];732.7722022999078;None;;;S11174;2022_Jan_28_1621;VideoMask;2021.1.2;120.01113700654798;
0.0;f;030_o_f_h_a.jpg;happy;9.0;sad_133.1.wmv;sad;7.0;incongruent;120.0;160.0;198.86251500867985;h_s;;;;;0;55;55;55;;;;;;;735.7721515999874;None;737.6554173999466;737.9805416999152;739.105402899906;739.1220281999558;741.1052086999407;None;7;0;741.1052086999407;None;;;;;;;;4;;;;;0.7972626000409946;;;742.6552677999716;None;None;None;[];742.6552677999716;None;"['7', '7']";"[0.4870712000411004, 1.711095800041221]";742.6552677999716;None;;;S11174;2022_Jan_28_1621;VideoMask;2021.1.2;120.01113700654798;
0.0;f;040_y_f_h_a.jpg;happy;9.0;sad_128.2.wmv;sad;7.0;incongruent;120.0;160.0;206.10005857915363;h_s;;;;;0;56;56;56;;;;;;;745.6551221999107;None;747.5882647999097;747.9049964000005;749.0550976999803;749.07181819994;751.0382544999011;None;7;0;751.0382544999011;None;;;;;;;;4;;;;;0.7922038999386132;;;752.588290899992;None;None;None;[];752.588290899992;None;['7'];[0.5540623000124469];752.588290899992;None;;;S11174;2022_Jan_28_1621;VideoMask;2021.1.2;120.01113700654798;
1.0;f;021_o_f_s_a.jpg;sad;7.0;sad_9.5ns.avi;sad;7.0;congruent;130.0;160.0;206.16642757875042;s_s;;;;;0;57;57;57;;;;;;;755.5966086999979;None;757.5213668999495;757.8380559999496;759.096221899963;759.1129702999024;764.6963421999244;None;7;0;764.6963421999244;None;;;;;;;;3;;;;;0.6859193999553099;;;766.2462240000023;None;None;None;[];766.2462240000023;None;"['7', '7', '7']";"[0.407950000022538, 0.9199463999830186, 1.8960486999712884]";766.2462240000023;None;;;S11174;2022_Jan_28_1621;VideoMask;2021.1.2;120.01113700654798;
1.0;f;021_o_f_h_a.jpg;happy;9.0;happy_12.1ns.avi;happy;9.0;congruent;120.0;150.0;132.59080005900228;h_h;;;;;0;58;58;58;;;;;;;769.2545522999717;None;770.5708463999908;770.8876681999536;772.0301024999935;772.0462127999635;779.637577699963;None;None;0;779.637577699963;None;;;;;;;;5;;;;;;;;781.2122289999388;None;None;None;[];781.2122289999388;None;None;;781.2122289999388;None;;;S11174;2022_Jan_28_1621;VideoMask;2021.1.2;120.01113700654798;
3.0;m;013_y_m_s_a.jpg;sad;7.0;happy_56.2ns.avi;happy;9.0;incongruent;130.0;150.0;163.39234110935848;s_h;;;;;0;59;59;59;;;;;;;784.2289104999509;None;785.7873253999278;786.104003299959;787.3204053000081;787.3370528999949;792.2622151999967;None;9;0;792.2622151999967;None;;;;;;;;5;;;;;1.048263999982737;;;793.812135099899;None;None;None;[];793.812135099899;None;None;;793.812135099899;None;;;S11174;2022_Jan_28_1621;VideoMask;2021.1.2;120.01113700654798;
;;;;;;;;;;;;;;;;;;;;;;;;;;;;;;;;;;;;;;;;;;;;;;;;;;;;;;;;;;;;;;;;;796.8370262999088;None;;;;;;
