primePerson;primeGender;prime;primeEmotion;corrAnsPrime;target;targetEmotion;corrAnsTar;Cond;ID_Primer;ID_Target;JitterTime;Condition;example.thisRepN;example.thisTrialN;example.thisN;example.thisIndex;study.thisRepN;study.thisTrialN;study.thisN;study.thisIndex;MR_trigger_time;MR_trigger_number;text_intro.started;text_intro.stopped;text_probe.started;text_probe.stopped;polygon_ISI.started;polygon_ISI.stopped;polygon.started;polygon.stopped;primerImage.started;primerImage.stopped;response.started;response.stopped;key_resp.keys;key_resp.corr;key_resp.rt;key_resp.started;key_resp.stopped;slider_Text.started;slider_Text.stopped;slider_ex.response;slider_ex.rt;slider_ex.history;slider_ex.started;slider_ex.stopped;Rating;slider_resp_response.keys;slider_resp_response.started;slider_resp_response.stopped;text_start.started;text_start.stopped;text_slider.started;text_slider.stopped;slider_stud.response;slider_stud.rt;slider_stud.history;slider_stud.started;slider_stud.stopped;slider_resp_study.keys;slider_resp_study.rt;slider_resp_study.started;slider_resp_study.stopped;text_ende.started;text_ende.stopped;participant;date;expName;psychopyVersion;frameRate;
1111;m;1111_m_m_h_a.jpg;happy;9;example_30.4ns.avi;neutral;7;incongruent;120.0;170.0;189.5874364012288;;0;0;0;0;;;;;44.66449370002374;1;44.75886430009268;46.75881540006958;46.75881540006958;None;48.79217520006932;None;50.87542779999785;51.20040230010636;52.36678720009513;52.38347080000676;56.66703060013242;None;8;0;0.6401042998768389;56.66703060013242;None;58.22519630007446;None;None;None;[];58.22519630007446;None;5;None;58.22519630007446;None;;;;;;;;;;;;;;;;S10886;2021_Sep_09_1253;VideoMask;2021.1.2;120.40272295452445;
1113;f;1113_y_f_s_a.jpg;sad;7;example_30.3ns.avi;neutral;7;incongruent;130.0;170.0;229.02432995836998;;0;1;1;1;;;;;;;;;;;61.23348719999194;None;63.35838120011613;63.675029600039124;64.8500024001114;64.86666790000163;66.80827410006896;None;8;0;0.5548282000236213;66.80827410006896;None;68.35818870016374;None;None;None;[];68.35818870016374;None;5;None;68.35818870016374;None;;;;;;;;;;;;;;;;S10886;2021_Sep_09_1253;VideoMask;2021.1.2;120.40272295452445;
9.0;f;019_m_f_h_a.jpg;happy;9.0;sad_115.1.wmv;sad;7.0;incongruent;120.0;160.0;128.09063432376465;h_s;;;;;0;0;0;0;;;;;;;72.39143940014765;None;73.67458890005946;73.99126710020937;75.13278360012919;75.14971740008332;77.13286890019663;None;7;0;0.750405500177294;77.13286890019663;None;;;;;;;;4;;;;71.39148960006423;None;78.6826761001721;None;None;None;[];78.6826761001721;None;['7'];[1.312675700057298];78.6826761001721;None;;;S10886;2021_Sep_09_1253;VideoMask;2021.1.2;120.40272295452445;
3.0;m;033_o_m_s_a.jpg;sad;7.0;sad_94.2ns.avi;sad;7.0;congruent;130.0;160.0;182.29120173647655;s_s;;;;;0;1;1;1;;;;;;;81.69125200016424;None;83.4244217001833;83.74095050012693;84.89942970010452;84.91606350010261;87.56603020010516;None;7;0;0.9892790000885725;87.56603020010516;None;;;;;;;;5;;;;;;89.52425320004113;None;None;None;[];89.52425320004113;None;None;;89.52425320004113;None;;;S10886;2021_Sep_09_1253;VideoMask;2021.1.2;120.40272295452445;
8.0;m;008_y_m_h_a.jpg;happy;9.0;happy_26.1ns.avi;happy;9.0;congruent;120.0;150.0;155.9437854594882;h_h;;;;;0;2;2;2;;;;;;;92.55751790013164;None;94.06568350014277;94.3825792002026;95.58238540007733;95.59906330006197;97.5079644001089;None;9;0;0.38323259982280433;97.5079644001089;None;;;;;;;;5;;;;;;99.05730079999194;None;None;None;[];99.05730079999194;None;None;;99.05730079999194;None;;;S10886;2021_Sep_09_1253;VideoMask;2021.1.2;120.40272295452445;
0.0;f;040_y_f_h_a.jpg;happy;9.0;sad_138.1.wmv;sad;7.0;incongruent;120.0;160.0;133.99071306426532;h_s;;;;;0;3;3;3;;;;;;;102.08231870015152;None;103.40762900002301;103.72395260003395;104.84885790012777;104.86539750010706;106.86554340017028;None;7;0;0.5777695998549461;106.86554340017028;None;;;;;;;;5;;;;;;108.41535130003467;None;None;None;[];108.41535130003467;None;None;;108.41535130003467;None;;;S10886;2021_Sep_09_1253;VideoMask;2021.1.2;120.40272295452445;
8.0;f;028_y_f_s_a.jpg;sad;7.0;sad_64.2ns.avi;sad;7.0;congruent;130.0;160.0;229.88540597086478;s_s;;;;;0;4;4;4;;;;;;;111.43175480002537;None;113.63182310014963;113.9484905002173;115.12388170021586;115.14854240021668;126.08160600019619;None;7;0;0.5854324998799711;126.08160600019619;None;;;;;;;;4;;;;;;127.63145360001363;None;None;None;[];127.63145360001363;None;['7'];[0.6759792000520974];127.63145360001363;None;;;S10886;2021_Sep_09_1253;VideoMask;2021.1.2;120.40272295452445;
7.0;m;027_o_m_s_a.jpg;sad;7.0;sad_10.4ns.avi;sad;7.0;congruent;130.0;160.0;185.20129417468752;s_s;;;;;0;5;5;5;;;;;;;130.63982810010202;None;132.42294430010952;132.73950590007007;133.9563647999894;133.9737921000924;137.05639929999597;None;7;0;0.6989472000859678;137.05639929999597;None;;;;;;;;4;;;;;;138.61448780004866;None;None;None;[];138.61448780004866;None;['7'];[1.1889867999125272];138.61448780004866;None;;;S10886;2021_Sep_09_1253;VideoMask;2021.1.2;120.40272295452445;
2.0;f;012_o_f_s_a.jpg;sad;7.0;sad_7.5ns.avi;sad;7.0;congruent;130.0;160.0;220.27842655424388;s_s;;;;;0;6;6;6;;;;;;;141.6143969001714;None;143.6475806001108;143.9643432002049;145.12257520016283;145.13925880007446;147.8894947001245;None;7;0;0.7775229001417756;147.8894947001245;None;;;;;;;;4;;;;;;149.56418190011755;None;None;None;[];149.56418190011755;None;['7'];[1.0231128998566419];149.56418190011755;None;;;S10886;2021_Sep_09_1253;VideoMask;2021.1.2;120.40272295452445;
2.0;f;012_o_f_h_a.jpg;happy;9.0;happy_27.1ns.avi;happy;9.0;congruent;120.0;150.0;146.44967055810616;h_h;;;;;0;7;7;7;;;;;;;152.56420840020292;None;153.98886150005274;154.3056962999981;155.5137746001128;155.53084580018185;157.93079140014015;None;9;0;0.5443937000818551;157.93079140014015;None;;;;;;;;6;;;;;;159.48051700019278;None;None;None;[];159.48051700019278;None;['9'];[1.0666944000404328];159.48051700019278;None;;;S10886;2021_Sep_09_1253;VideoMask;2021.1.2;120.40272295452445;
8.0;f;028_y_f_h_a.jpg;happy;9.0;sad_119.1.wmv;sad;7.0;incongruent;120.0;160.0;148.71526953572538;h_s;;;;;0;8;8;8;;;;;;;162.48064670013264;None;163.93045630003326;164.24707700009458;165.38042980013415;165.39706260012463;167.44706510007381;None;7;0;0.5643000998534262;167.44706510007381;None;;;;;;;;4;;;;;;169.19694140017964;None;None;None;[];169.19694140017964;None;['7'];[0.03836799995042384];169.19694140017964;None;;;S10886;2021_Sep_09_1253;VideoMask;2021.1.2;120.40272295452445;
6.0;m;016_y_m_s_a.jpg;sad;7.0;happy_60.4ns.avi;happy;9.0;incongruent;130.0;150.0;126.02367393611817;s_h;;;;;0;9;9;9;;;;;;;172.1969865001738;None;173.50514340004884;173.82172040012665;175.00511370017193;175.02177540003322;180.76343020005152;None;9;0;0.5119463999290019;180.76343020005152;None;;;;;;;;5;;;;;;182.34654470020905;None;None;None;[];182.34654470020905;None;None;;182.34654470020905;None;;;S10886;2021_Sep_09_1253;VideoMask;2021.1.2;120.40272295452445;
9.0;f;019_m_f_s_a.jpg;sad;7.0;sad_8.4ns.avi;sad;7.0;congruent;130.0;160.0;171.6633093155257;s_s;;;;;0;10;10;10;;;;;;;185.37151590012945;None;187.04635390010662;187.36300230002962;188.51289250003174;188.52949440013617;196.6300636001397;None;7;0;0.6533053999301046;196.6300636001397;None;;;;;;;;5;;;;;;198.18775500007905;None;None;None;[];198.18775500007905;None;None;;198.18775500007905;None;;;S10886;2021_Sep_09_1253;VideoMask;2021.1.2;120.40272295452445;
4.0;m;004_o_m_h_a.jpg;happy;9.0;happy_1.1ns.avi;happy;9.0;congruent;120.0;150.0;203.50057144619865;h_h;;;;;0;11;11;11;;;;;;;201.2124578000512;None;203.2040676001925;203.52105990005657;204.66262950003147;204.67985940002836;219.13714890019037;None;9;0;0.7781113998498768;219.13714890019037;None;;;;;;;;6;;;;;;220.68710570014082;None;None;None;[];220.68710570014082;None;['9'];[0.7080894999671727];220.68710570014082;None;;;S10886;2021_Sep_09_1253;VideoMask;2021.1.2;120.40272295452445;
7.0;m;027_o_m_h_a.jpg;happy;9.0;happy_20.1ns.avi;happy;9.0;congruent;120.0;150.0;152.91127178874285;h_h;;;;;0;12;12;12;;;;;;;223.68712660018355;None;225.17848870018497;225.49533120007254;226.62031750008464;226.6368272001855;229.64528390020132;None;9;0;0.7179707998875529;229.64528390020132;None;;;;;;;;5;;;;;;231.19514399999753;None;None;None;[];231.19514399999753;None;None;;231.19514399999753;None;;;S10886;2021_Sep_09_1253;VideoMask;2021.1.2;120.40272295452445;
0.0;f;040_y_f_s_a.jpg;sad;7.0;sad_94.3ns.avi;sad;7.0;congruent;130.0;160.0;155.27414203894395;s_s;;;;;0;13;13;13;;;;;;;234.22846480016597;None;235.72824510000646;236.0450340001844;237.26158390007913;237.27807450015098;239.80321929999627;None;8;0;1.1119681000709534;239.80321929999627;None;;;;;;;;5;;;;;;241.35303170001134;None;None;None;[];241.35303170001134;None;None;;241.35303170001134;None;;;S10886;2021_Sep_09_1253;VideoMask;2021.1.2;120.40272295452445;
0.0;f;030_o_f_s_a.jpg;sad;7.0;sad_68.1ns.avi;sad;7.0;congruent;130.0;160.0;158.9411396037211;s_s;;;;;0;14;14;14;;;;;;;244.37795450002886;None;245.94450390012935;246.26128190010786;247.56176950014196;247.5863634000998;254.8195035001263;None;7;0;0.7596997998189181;254.8195035001263;None;;;;;;;;5;;;;;;256.36942070000805;None;None;None;[];256.36942070000805;None;None;;256.36942070000805;None;;;S10886;2021_Sep_09_1253;VideoMask;2021.1.2;120.40272295452445;
0.0;f;030_o_f_h_a.jpg;happy;9.0;sad_127.1.wmv;sad;7.0;incongruent;120.0;160.0;180.59976631384873;h_s;;;;;0;15;15;15;;;;;;;259.40261250012554;None;261.1191575000994;261.4358460002113;262.5608678001445;262.57759370002896;264.56917430018075;None;7;0;0.8819573000073433;264.56917430018075;None;;;;;;;;5;;;;;;266.13578800018877;None;None;None;[];266.13578800018877;None;None;;266.13578800018877;None;;;S10886;2021_Sep_09_1253;VideoMask;2021.1.2;120.40272295452445;
8.0;m;008_y_m_s_a.jpg;sad;7.0;happy_133.3.wmv;happy;9.0;incongruent;130.0;150.0;152.577966552593;s_h;;;;;0;16;16;16;;;;;;;269.1604673000984;None;270.6438736000564;270.9608348000329;272.0856930001173;272.10230050003156;274.09398740017787;None;9;0;0.49324099998921156;274.09398740017787;None;;;;;;;;5;;;;;;275.6437641000375;None;None;None;[];275.6437641000375;None;None;;275.6437641000375;None;;;S10886;2021_Sep_09_1253;VideoMask;2021.1.2;120.40272295452445;
3.0;m;033_o_m_h_a.jpg;happy;9.0;sad_128.1.wmv;sad;7.0;incongruent;120.0;160.0;171.0492454518585;h_s;;;;;0;17;17;17;;;;;;;278.66876400006004;None;280.3186014001258;280.63534480007365;281.78571290010586;281.81014630012214;283.76873090001754;None;7;0;0.68255679984577;283.76873090001754;None;;;;;;;;5;;;;;;285.3185340000782;None;None;None;[];285.3185340000782;None;None;;285.3185340000782;None;;;S10886;2021_Sep_09_1253;VideoMask;2021.1.2;120.40272295452445;
1.0;f;021_o_f_h_a.jpg;happy;9.0;sad_116.1.wmv;sad;7.0;incongruent;120.0;160.0;184.06847610053055;h_s;;;;;0;18;18;18;;;;;;;288.3435496999882;None;290.0932828001678;290.41005240008235;291.54396890010685;291.5769425001927;293.54329650010914;None;7;0;0.499961799941957;293.54329650010914;None;;;;;;;;5;;;;;;295.0932758001145;None;None;None;[];295.0932758001145;None;None;;295.0932758001145;None;;;S10886;2021_Sep_09_1253;VideoMask;2021.1.2;120.40272295452445;
4.0;m;004_o_m_s_a.jpg;sad;7.0;happy_28.1ns.avi;happy;9.0;incongruent;130.0;150.0;157.40741103039684;s_h;;;;;0;19;19;19;;;;;;;298.11822950001806;None;299.65149790002033;299.9680610001087;301.1429761000909;301.1598106001038;305.4929350002203;None;9;0;0.606463500065729;305.4929350002203;None;;;;;;;;5;;;;;;307.0429339001421;None;None;None;[];307.0429339001421;None;['9'];[1.9523364999331534];307.0429339001421;None;;;S10886;2021_Sep_09_1253;VideoMask;2021.1.2;120.40272295452445;
8.0;f;028_y_f_s_a.jpg;sad;7.0;happy_122.3.wmv;happy;9.0;incongruent;130.0;150.0;171.8670540936116;s_h;;;;;0;20;20;20;;;;;;;310.05139360018075;None;311.7093396000564;312.0260639002081;313.1594554001931;313.1761392999906;315.1593573000282;None;9;0;0.6279105998110026;315.1593573000282;None;;;;;;;;5;;;;;;316.70931130019017;None;None;None;[];316.70931130019017;None;None;;316.70931130019017;None;;;S10886;2021_Sep_09_1253;VideoMask;2021.1.2;120.40272295452445;
8.0;m;008_y_m_s_a.jpg;sad;7.0;sad_6.5ns.avi;sad;7.0;congruent;130.0;160.0;170.39333839271438;s_s;;;;;0;21;21;21;;;;;;;319.7341957001481;None;321.38408500002697;321.7007487001829;322.92590010003187;322.94244730006903;327.8341148002073;None;7;0;0.51315479981713;327.8341148002073;None;;;;;;;;5;;;;;;329.37561880005524;None;None;None;[];329.37561880005524;None;None;;329.37561880005524;None;;;S10886;2021_Sep_09_1253;VideoMask;2021.1.2;120.40272295452445;
8.0;f;028_y_f_h_a.jpg;happy;9.0;happy_23.1ns.avi;happy;9.0;congruent;120.0;150.0;225.70986890587952;h_h;;;;;0;22;22;22;;;;;;;332.40869020018727;None;334.50037940009497;334.81711020017974;336.0001333002001;336.0168662001379;340.5253063000273;None;None;0;;340.5253063000273;None;;;;;;;;6;;;;;;342.0753548000939;None;None;None;[];342.0753548000939;None;['9'];[0.1679977998137474];342.0753548000939;None;;;S10886;2021_Sep_09_1253;VideoMask;2021.1.2;120.40272295452445;
8.0;m;008_y_m_h_a.jpg;happy;9.0;sad_111.1.wmv;sad;7.0;incongruent;120.0;160.0;152.63076835312847;h_s;;;;;0;23;23;23;;;;;;;345.07515990012325;None;346.55903290002607;346.8751173000783;348.0089175000321;348.02492410014383;350.00854800012894;None;7;0;0.7624986998271197;350.00854800012894;None;;;;;;;;5;;;;;;352.0915428001899;None;None;None;[];352.0915428001899;None;None;;352.0915428001899;None;;;S10886;2021_Sep_09_1253;VideoMask;2021.1.2;120.40272295452445;
0.0;f;040_y_f_s_a.jpg;sad;7.0;sad_67.2ns.avi;sad;7.0;congruent;130.0;160.0;220.9892697323079;s_s;;;;;0;24;24;24;;;;;;;355.1168536001351;None;357.19982139999047;357.51632699999027;358.74150230013765;358.75797230005264;367.87458000006154;None;7;0;0.5447239000350237;367.87458000006154;None;;;;;;;;3;;;;;;369.42445470020175;None;None;None;[];369.42445470020175;None;"['7', '7', '7', '7']";"[0.4349189999047667, 0.6989286998286843, 1.0027042999863625, 1.4512664000503719]";369.42445470020175;None;;;S10886;2021_Sep_09_1253;VideoMask;2021.1.2;120.40272295452445;
8.0;m;008_y_m_s_a.jpg;sad;7.0;happy_29.1ns.avi;happy;9.0;incongruent;130.0;150.0;120.0316142834122;s_h;;;;;0;25;25;25;;;;;;;372.42447170009837;None;373.649302800186;373.9659724000376;375.10768800019287;375.12429539998993;377.79088560002856;None;9;0;0.6445067999884486;377.79088560002856;None;;;;;;;;5;;;;;;379.3408160000108;None;None;None;[];379.3408160000108;None;None;;379.3408160000108;None;;;S10886;2021_Sep_09_1253;VideoMask;2021.1.2;120.40272295452445;
6.0;m;016_y_m_s_a.jpg;sad;7.0;sad_8.3ns.avi;sad;7.0;congruent;130.0;160.0;152.85371098242734;s_s;;;;;0;26;26;26;;;;;;;382.3740994001273;None;383.8990168001037;384.21566570014693;385.3654549000785;385.38228330016136;393.1070413000416;None;8;0;0.6723789998795837;393.1070413000416;None;;;;;;;;6;;;;;;394.6570717000868;None;None;None;[];394.6570717000868;None;['9'];[0.6183861999306828];394.6570717000868;None;;;S10886;2021_Sep_09_1253;VideoMask;2021.1.2;120.40272295452445;
6.0;m;016_y_m_h_a.jpg;happy;9.0;sad_114.1.wmv;sad;7.0;incongruent;120.0;160.0;136.20550699298644;h_s;;;;;0;27;27;27;;;;;;;397.6570736002177;None;398.9984852001071;399.3152338000946;400.440243100049;400.4568844002206;402.44850970013067;None;None;0;;402.44850970013067;None;;;;;;;;5;;;;;;403.9985128000844;None;None;None;[];403.9985128000844;None;None;;403.9985128000844;None;;;S10886;2021_Sep_09_1253;VideoMask;2021.1.2;120.40272295452445;
7.0;m;027_o_m_s_a.jpg;sad;7.0;happy_117.3.wmv;happy;9.0;incongruent;130.0;150.0;215.61964028550614;s_h;;;;;0;28;28;28;;;;;;;407.0316682001576;None;409.03144700010307;409.3482294001151;410.4816062999889;410.49826800008304;412.4815490001347;None;9;0;0.8497395999729633;412.4815490001347;None;;;;;;;;6;;;;;;414.24801680003293;None;None;None;[];414.24801680003293;None;['9'];[0.9714479001704603];414.24801680003293;None;;;S10886;2021_Sep_09_1253;VideoMask;2021.1.2;120.40272295452445;
6.0;m;016_y_m_h_a.jpg;happy;9.0;happy_9.2ns.avi;happy;9.0;congruent;120.0;150.0;130.52042428082717;h_h;;;;;0;29;29;29;;;;;;;417.2480619000271;None;418.56446280004457;418.88121770019643;420.0063313001301;420.02290730015375;425.93945840001106;None;9;0;0.49558149999938905;425.93945840001106;None;;;;;;;;6;;;;;;427.48921380005777;None;None;None;[];427.48921380005777;None;['9'];[0.5458385001402348];427.48921380005777;None;;;S10886;2021_Sep_09_1253;VideoMask;2021.1.2;120.40272295452445;
0.0;f;040_y_f_s_a.jpg;sad;7.0;happy_127.3.wmv;happy;9.0;incongruent;130.0;150.0;131.7195455720239;s_h;;;;;0;30;30;30;;;;;;;430.4893022000324;None;431.78919280017726;432.1058246002067;433.2308862002101;433.2474166001193;435.305828000186;None;9;0;0.5455513000488281;435.305828000186;None;;;;;;;;7;;;;;;436.855674700113;None;None;None;[];436.855674700113;None;"['9', '9']";"[0.3476740999612957, 0.675544299883768]";436.855674700113;None;;;S10886;2021_Sep_09_1253;VideoMask;2021.1.2;120.40272295452445;
0.0;f;030_o_f_s_a.jpg;sad;7.0;happy_125.3.wmv;happy;9.0;incongruent;130.0;150.0;220.51454909128134;s_h;;;;;0;31;31;31;;;;;;;439.85588000016287;None;442.35560740018263;442.67248160019517;443.83041739999317;443.84711650013924;445.80566180008464;None;9;0;0.7658661999739707;445.80566180008464;None;;;;;;;;5;;;;;;447.3554743002169;None;None;None;[];447.3554743002169;None;None;;447.3554743002169;None;;;S10886;2021_Sep_09_1253;VideoMask;2021.1.2;120.40272295452445;
0.0;f;030_o_f_s_a.jpg;sad;7.0;sad_64.3ns.avi;sad;7.0;congruent;130.0;160.0;165.78667874766072;s_s;;;;;0;32;32;32;;;;;;;450.38881090003997;None;451.9969354001805;452.31375860003754;453.4554322999902;453.4720004000701;458.44696700014174;None;7;0;0.6443886000197381;458.44696700014174;None;;;;;;;;3;;;;;;460.23848450020887;None;None;None;[];460.23848450020887;None;"['7', '7', '7']";"[0.42866770015098155, 0.6686448000837117, 1.2451333000790328]";460.23848450020887;None;;;S10886;2021_Sep_09_1253;VideoMask;2021.1.2;120.40272295452445;
3.0;m;013_y_m_s_a.jpg;sad;7.0;sad_7.7ns.avi;sad;7.0;congruent;130.0;160.0;196.24182255763262;s_s;;;;;0;33;33;33;;;;;;;463.2466630002018;None;465.1132464001421;465.42996300011873;466.67140220012516;466.6880895001814;472.56322460016236;None;7;0;0.8240771000273526;472.56322460016236;None;;;;;;;;4;;;;;;474.11295170011;None;None;None;[];474.11295170011;None;['7'];[0.37043779995292425];474.11295170011;None;;;S10886;2021_Sep_09_1253;VideoMask;2021.1.2;120.40272295452445;
3.0;m;013_y_m_h_a.jpg;happy;9.0;happy_9.1ns.avi;happy;9.0;congruent;120.0;150.0;165.1890303600433;h_h;;;;;0;34;34;34;;;;;;;477.1130671000574;None;478.7134903999977;479.0295111001469;480.16290090000257;480.17961079999804;483.38781000021845;None;9;0;0.6714977000374347;483.38781000021845;None;;;;;;;;5;;;;;;484.9377584999893;None;None;None;[];484.9377584999893;None;None;;484.9377584999893;None;;;S10886;2021_Sep_09_1253;VideoMask;2021.1.2;120.40272295452445;
4.0;m;004_o_m_h_a.jpg;happy;9.0;sad_95.1ns.avi;sad;7.0;incongruent;120.0;160.0;152.68270002069931;h_s;;;;;0;35;35;35;;;;;;;487.9541822001338;None;489.49599770014174;489.81260780012235;490.9793301001191;490.9959319999907;499.73742820019834;None;7;0;0.7538736998103559;499.73742820019834;None;;;;;;;;3;;;;;;501.2956557001453;None;None;None;[];501.2956557001453;None;"['7', '7']";"[0.45980249997228384, 0.7797242999076843]";501.2956557001453;None;;;S10886;2021_Sep_09_1253;VideoMask;2021.1.2;120.40272295452445;
3.0;m;013_y_m_h_a.jpg;happy;9.0;sad_113.2.wmv;sad;7.0;incongruent;120.0;160.0;217.4973891947951;h_s;;;;;0;36;36;36;;;;;;;504.3040122000966;None;506.3370126001537;506.6537370001897;507.7788889000658;507.7954443001654;509.787082800176;None;7;0;0.6883291001431644;509.787082800176;None;;;;;;;;5;;;;;;511.3370040000882;None;None;None;[];511.3370040000882;None;None;;511.3370040000882;None;;;S10886;2021_Sep_09_1253;VideoMask;2021.1.2;120.40272295452445;
4.0;m;004_o_m_h_a.jpg;happy;9.0;happy_25.1ns.avi;happy;9.0;congruent;120.0;150.0;216.63044503818386;h_h;;;;;0;37;37;37;;;;;;;514.353354900144;None;516.38690030016;516.7034382000566;517.9035403002053;517.920744900126;521.528457700042;None;9;0;0.6191577999852598;521.528457700042;None;;;;;;;;5;;;;;;523.0867409000639;None;None;None;[];523.0867409000639;None;None;;523.0867409000639;None;;;S10886;2021_Sep_09_1253;VideoMask;2021.1.2;120.40272295452445;
4.0;m;004_o_m_s_a.jpg;sad;7.0;happy_131.2.wmv;happy;9.0;incongruent;130.0;150.0;181.38407540847405;s_h;;;;;0;38;38;38;;;;;;;526.1030066001695;None;527.8196800001897;528.1363487001508;529.2696508001536;529.2862947999965;531.2695972002111;None;9;0;0.5578989998903126;531.2695972002111;None;;;;;;;;5;;;;;;532.8197616999969;None;None;None;[];532.8197616999969;None;None;;532.8197616999969;None;;;S10886;2021_Sep_09_1253;VideoMask;2021.1.2;120.40272295452445;
0.0;f;040_y_f_h_a.jpg;happy;9.0;happy_24.3ns.avi;happy;9.0;congruent;120.0;150.0;213.25460698950434;h_h;;;;;0;39;39;39;;;;;;;535.8529085000046;None;537.852781600086;538.1696780000348;539.3279060001951;539.3444922000635;541.2278092000633;None;None;0;;541.2278092000633;None;;;;;;;;5;;;;;;542.7783555001952;None;None;None;[];542.7783555001952;None;"['9', '7']";"[0.46501710009761155, 1.6088751000352204]";542.7783555001952;None;;;S10886;2021_Sep_09_1253;VideoMask;2021.1.2;120.40272295452445;
2.0;f;012_o_f_s_a.jpg;sad;7.0;happy_139.1.wmv;happy;9.0;incongruent;130.0;150.0;162.31500468041804;s_h;;;;;0;40;40;40;;;;;;;545.7778018000536;None;547.3441785001196;547.6608197002206;548.8026815000921;548.8192509000655;550.7941301001702;None;9;0;0.5053717000409961;550.7941301001702;None;;;;;;;;5;;;;;;552.3441695000511;None;None;None;[];552.3441695000511;None;None;;552.3441695000511;None;;;S10886;2021_Sep_09_1253;VideoMask;2021.1.2;120.40272295452445;
0.0;f;030_o_f_h_a.jpg;happy;9.0;happy_24.1ns.avi;happy;9.0;congruent;120.0;150.0;168.36256624020774;h_h;;;;;0;41;41;41;;;;;;;555.377481300151;None;557.0023482001852;557.3189193001017;558.5606463002041;558.5773344000336;561.7772530000657;None;9;0;0.40209229988977313;561.7772530000657;None;;;;;;;;5;;;;;;563.3188560002018;None;None;None;[];563.3188560002018;None;None;;563.3188560002018;None;;;S10886;2021_Sep_09_1253;VideoMask;2021.1.2;120.40272295452445;
2.0;f;012_o_f_h_a.jpg;happy;9.0;sad_113.1.wmv;sad;7.0;incongruent;120.0;160.0;177.44551734737394;h_s;;;;;0;42;42;42;;;;;;;566.352160200011;None;568.0352349001914;568.3519699000753;569.5101379000116;569.526747800177;571.4852737002075;None;7;0;0.6221620000433177;571.4852737002075;None;;;;;;;;5;;;;;;573.0768772000447;None;None;None;[];573.0768772000447;None;None;;573.0768772000447;None;;;S10886;2021_Sep_09_1253;VideoMask;2021.1.2;120.40272295452445;
3.0;m;033_o_m_s_a.jpg;sad;7.0;sad_64.5ns.avi;sad;7.0;congruent;130.0;160.0;130.55717223801247;s_s;;;;;0;43;43;43;;;;;;;576.0933112001512;None;577.4357567001134;577.751625200035;578.9603939000517;578.9765188000165;585.4681764000561;None;7;0;0.6392940999940038;585.4681764000561;None;;;;;;;;4;;;;;;587.0181346000172;None;None;None;[];587.0181346000172;None;['7'];[0.8173450999893248];587.0181346000172;None;;;S10886;2021_Sep_09_1253;VideoMask;2021.1.2;120.40272295452445;
7.0;m;027_o_m_h_a.jpg;happy;9.0;sad_117.1.wmv;sad;7.0;incongruent;120.0;160.0;181.28665202824095;h_s;;;;;0;44;44;44;;;;;;;590.0265947000589;None;591.7595453001559;592.0763059000019;593.2186160001438;593.2428682001773;595.2095724001992;None;9;0;1.0578146998304874;595.2095724001992;None;;;;;;;;5;;;;;;596.9428487000987;None;None;None;[];596.9428487000987;None;None;;596.9428487000987;None;;;S10886;2021_Sep_09_1253;VideoMask;2021.1.2;120.40272295452445;
3.0;m;033_o_m_s_a.jpg;sad;7.0;happy_126.3.wmv;happy;9.0;incongruent;130.0;150.0;198.85252030535366;s_h;;;;;0;45;45;45;;;;;;;599.9761146001983;None;601.8509322002064;602.167712500086;603.3092560002115;603.3260722002015;605.3093014000915;None;9;0;0.5582276999484748;605.3093014000915;None;;;;;;;;5;;;;;;606.8592362999916;None;None;None;[];606.8592362999916;None;None;;606.8592362999916;None;;;S10886;2021_Sep_09_1253;VideoMask;2021.1.2;120.40272295452445;
3.0;m;033_o_m_h_a.jpg;happy;9.0;sad_136.1.wmv;sad;7.0;incongruent;120.0;160.0;176.97002883463455;h_s;;;;;0;46;46;46;;;;;;;609.8925565001555;None;611.5672677000985;611.8839015001431;613.0090906000696;613.0256893001497;615.0180816000793;None;7;0;0.6893190001137555;615.0180816000793;None;;;;;;;;5;;;;;;616.5673449002206;None;None;None;[];616.5673449002206;None;None;;616.5673449002206;None;;;S10886;2021_Sep_09_1253;VideoMask;2021.1.2;120.40272295452445;
9.0;f;019_m_f_h_a.jpg;happy;9.0;happy_10.1ns.avi;happy;9.0;congruent;120.0;150.0;157.2463435658512;h_h;;;;;0;47;47;47;;;;;;;619.5923015000299;None;621.1505201000255;621.4670952002052;622.6254968000576;622.6420746000949;630.0502256001346;None;9;0;1.0893120002001524;630.0502256001346;None;;;;;;;;5;;;;;;631.6085179001093;None;None;None;[];631.6085179001093;None;None;;631.6085179001093;None;;;S10886;2021_Sep_09_1253;VideoMask;2021.1.2;120.40272295452445;
2.0;f;012_o_f_h_a.jpg;happy;9.0;happy_2.2ns.avi;happy;9.0;congruent;120.0;150.0;206.34800317295262;h_h;;;;;0;48;48;48;;;;;;;634.6416454000864;None;636.6167162000202;636.9333385000937;638.0584267000668;638.0750406000298;650.2666677001398;None;9;0;0.5927433001343161;650.2666677001398;None;;;;;;;;6;;;;;;651.824594900012;None;None;None;[];651.824594900012;None;"['9', '9']";"[0.42690679989755154, 1.4108986998908222]";651.824594900012;None;;;S10886;2021_Sep_09_1253;VideoMask;2021.1.2;120.40272295452445;
3.0;m;033_o_m_h_a.jpg;happy;9.0;happy_24.2ns.avi;happy;9.0;congruent;120.0;150.0;167.9423847659953;h_h;;;;;0;49;49;49;;;;;;;654.8246247000061;None;656.4327090000734;656.7494212000165;658.0327280000784;658.0494478000328;661.61591770011;None;9;0;0.6435390000697225;661.61591770011;None;;;;;;;;5;;;;;;663.1659274999984;None;None;None;[];663.1659274999984;None;None;;663.1659274999984;None;;;S10886;2021_Sep_09_1253;VideoMask;2021.1.2;120.40272295452445;
1.0;f;021_o_f_s_a.jpg;sad;7.0;happy_61.2ns.avi;happy;9.0;incongruent;130.0;150.0;210.94664004826666;s_h;;;;;0;50;50;50;;;;;;;666.1991777000949;None;668.1991418001708;668.5163304000162;669.6495057002176;669.6740559001919;674.1740680001676;None;9;0;0.6692888999823481;674.1740680001676;None;;;;;;;;7;;;;;;675.7239012999926;None;None;None;[];675.7239012999926;None;"['9', '9']";"[0.7598727999720722, 1.159709399798885]";675.7239012999926;None;;;S10886;2021_Sep_09_1253;VideoMask;2021.1.2;120.40272295452445;
4.0;m;004_o_m_s_a.jpg;sad;7.0;sad_2.4ns.avi;sad;7.0;congruent;130.0;160.0;153.02079367163634;s_s;;;;;0;51;51;51;;;;;;;678.7238633001689;None;680.2236409999896;680.5403156001121;681.6993947001174;681.7160094000865;689.6402159000281;None;8;0;1.259204600006342;689.6402159000281;None;;;;;;;;5;;;;;;691.1901134999935;None;None;None;[];691.1901134999935;None;None;;691.1901134999935;None;;;S10886;2021_Sep_09_1253;VideoMask;2021.1.2;120.40272295452445;
8.0;m;008_y_m_h_a.jpg;happy;9.0;happy_1.2ns.avi;happy;9.0;congruent;120.0;150.0;210.98946429383824;h_h;;;;;0;52;52;52;;;;;;;694.2150489001069;None;696.2483226000331;696.564916000003;697.7483161001;697.7649746001698;710.4896372000221;None;9;0;0.7539607000071555;710.4896372000221;None;;;;;;;;6;;;;;;712.0395077001303;None;None;None;[];712.0395077001303;None;['9'];[0.3560184999369085];712.0395077001303;None;;;S10886;2021_Sep_09_1253;VideoMask;2021.1.2;120.40272295452445;
2.0;f;012_o_f_s_a.jpg;sad;7.0;happy_52.2ns.avi;happy;9.0;incongruent;130.0;150.0;172.57202848318138;s_h;;;;;0;53;53;53;;;;;;;715.0478196002077;None;716.6979804001749;717.014206300024;718.2476950001437;718.2643579000141;721.70584900002;None;9;0;0.5455685998313129;721.70584900002;None;;;;;;;;5;;;;;;723.2558521002065;None;None;None;[];723.2558521002065;None;None;;723.2558521002065;None;;;S10886;2021_Sep_09_1253;VideoMask;2021.1.2;120.40272295452445;
9.0;f;019_m_f_s_a.jpg;sad;7.0;happy_61.1ns.avi;happy;9.0;incongruent;130.0;150.0;181.3003220572762;s_h;;;;;0;54;54;54;;;;;;;726.2807956000324;None;728.064026000211;728.3806064000819;729.5723668001592;729.5889900000766;736.905471400125;None;9;0;0.3860867000184953;736.905471400125;None;;;;;;;;6;;;;;;738.4554041000083;None;None;None;[];738.4554041000083;None;['9'];[1.1881176999304444];738.4554041000083;None;;;S10886;2021_Sep_09_1253;VideoMask;2021.1.2;120.40272295452445;
0.0;f;030_o_f_h_a.jpg;happy;9.0;sad_133.1.wmv;sad;7.0;incongruent;120.0;160.0;198.86251500867985;h_s;;;;;0;55;55;55;;;;;;;741.4553280000109;None;743.3218028000556;743.6385019000154;744.7718668000307;744.7885689001996;746.7718623999972;None;7;0;0.7275948999449611;746.7718623999972;None;;;;;;;;5;;;;;;748.3217418000568;None;None;None;[];748.3217418000568;None;None;;748.3217418000568;None;;;S10886;2021_Sep_09_1253;VideoMask;2021.1.2;120.40272295452445;
0.0;f;040_y_f_h_a.jpg;happy;9.0;sad_128.2.wmv;sad;7.0;incongruent;120.0;160.0;206.10005857915363;h_s;;;;;0;56;56;56;;;;;;;751.3550508001354;None;753.2798327000346;753.5965605000965;754.7297214001883;754.7466148000676;756.7300034000073;None;7;0;1.3215179000981152;756.7300034000073;None;;;;;;;;4;;;;;;758.2798395000864;None;None;None;[];758.2798395000864;None;['7'];[0.8677441000472754];758.2798395000864;None;;;S10886;2021_Sep_09_1253;VideoMask;2021.1.2;120.40272295452445;
1.0;f;021_o_f_s_a.jpg;sad;7.0;sad_9.5ns.avi;sad;7.0;congruent;130.0;160.0;206.16642757875042;s_s;;;;;0;57;57;57;;;;;;;761.2797389000189;None;763.2129122000188;763.5296132999938;764.7964284000918;764.8130049000029;770.3878193001729;None;7;0;0.5758748000953346;770.3878193001729;None;;;;;;;;5;;;;;;771.9377663000487;None;None;None;[];771.9377663000487;None;None;;771.9377663000487;None;;;S10886;2021_Sep_09_1253;VideoMask;2021.1.2;120.40272295452445;
1.0;f;021_o_f_h_a.jpg;happy;9.0;happy_12.1ns.avi;happy;9.0;congruent;120.0;150.0;132.59080005900228;h_h;;;;;0;58;58;58;;;;;;;774.9541375001427;None;776.3040287001058;776.6292902000714;777.8126550000161;777.8292480001692;785.3707082001492;None;9;0;0.5049364001024514;785.3707082001492;None;;;;;;;;5;;;;;;786.945643100189;None;None;None;[];786.945643100189;None;None;;786.945643100189;None;;;S10886;2021_Sep_09_1253;VideoMask;2021.1.2;120.40272295452445;
3.0;m;013_y_m_s_a.jpg;sad;7.0;happy_56.2ns.avi;happy;9.0;incongruent;130.0;150.0;163.39234110935848;s_h;;;;;0;59;59;59;;;;;;;789.9787865001708;None;791.5620589000173;791.8788869001437;793.0287479001563;793.0455025001429;798.0537568000145;None;9;0;0.7738165000919253;798.0537568000145;None;;;;;;;;5;;;;;;799.611901300028;None;None;None;[];799.611901300028;None;None;;799.611901300028;None;;;S10886;2021_Sep_09_1253;VideoMask;2021.1.2;120.40272295452445;
;;;;;;;;;;;;;;;;;;;;;;;;;;;;;;;;;;;;;;;;;;;;;;;;;;;;;;;;;;;;;;;;802.645288700005;None;;;;;;
