primePerson;primeGender;prime;primeEmotion;corrAnsPrime;target;targetEmotion;corrAnsTar;Cond;ID_Primer;ID_Target;JitterTime;Condition;example.thisRepN;example.thisTrialN;example.thisN;example.thisIndex;study.thisRepN;study.thisTrialN;study.thisN;study.thisIndex;MR_trigger_time;MR_trigger_number;text_intro.started;text_intro.stopped;text_probe.started;text_probe.stopped;polygon_ISI.started;polygon_ISI.stopped;polygon.started;polygon.stopped;primerImage.started;primerImage.stopped;response.started;response.stopped;key_resp.keys;key_resp.corr;key_resp.started;key_resp.stopped;slider_Text.started;slider_Text.stopped;slider_ex.response;slider_ex.rt;slider_ex.history;slider_ex.started;slider_ex.stopped;Rating;slider_resp_response.keys;slider_resp_response.rt;slider_resp_response.started;slider_resp_response.stopped;key_resp.rt;text_start.started;text_start.stopped;text_slider.started;text_slider.stopped;slider_stud.response;slider_stud.rt;slider_stud.history;slider_stud.started;slider_stud.stopped;slider_resp_study.keys;slider_resp_study.rt;slider_resp_study.started;slider_resp_study.stopped;text_ende.started;text_ende.stopped;participant;date;expName;psychopyVersion;frameRate;
1111;m;1111_m_m_h_a.jpg;happy;9;example_30.4ns.avi;neutral;7;incongruent;120.0;170.0;189.5874364012288;;0;0;0;0;;;;;110.62536869995529;1;110.7030403999961;112.7029901999631;112.7029901999631;None;114.72808359999908;None;116.95321609999519;117.26951379998354;118.4201022000052;118.43680829997174;122.74460209999233;None;None;0;122.74460209999233;None;124.29429099999834;None;None;None;[];124.29429099999834;None;4;['7'];[2.9248813000158407];124.29429099999834;None;;;;;;;;;;;;;;;;;S11388;2022_Apr_21_1839;VideoMask;2021.1.2;120.07728171190232;
1113;f;1113_y_f_s_a.jpg;sad;7;example_30.3ns.avi;neutral;7;incongruent;130.0;170.0;229.02432995836998;;0;1;1;1;;;;;;;;;;;127.2943179999711;None;129.41078249999555;129.72745790000772;130.86909180000657;130.88580190000357;132.86093039996922;None;8;0;132.86093039996922;None;134.76072739996016;None;None;None;[];134.76072739996016;None;5;None;;134.76072739996016;None;0.8062783000059426;;;;;;;;;;;;;;;;S11388;2022_Apr_21_1839;VideoMask;2021.1.2;120.07728171190232;
9.0;f;019_m_f_h_a.jpg;happy;9.0;sad_115.1.wmv;sad;7.0;incongruent;120.0;160.0;128.09063432376465;h_s;;;;;0;0;0;0;;;;;;;138.79395869997097;None;140.06891039997572;140.3854757999652;141.51868549996288;141.53551969997352;143.51899379998213;None;7;0;143.51899379998213;None;;;;;;;;3;;;;;1.1960167000070214;137.7939938000054;None;145.06863639998483;None;None;None;[];145.06863639998483;None;"['7', '7']";"[1.1426316000288352, 1.7589348999899812]";145.06863639998483;None;;;S11388;2022_Apr_21_1839;VideoMask;2021.1.2;120.07728171190232;
3.0;m;033_o_m_s_a.jpg;sad;7.0;sad_94.2ns.avi;sad;7.0;congruent;130.0;160.0;182.29120173647655;s_s;;;;;0;1;1;1;;;;;;;148.0854823999689;None;149.80185260000871;150.11855660000583;151.27691049996065;151.29337510000914;153.9435140999849;None;7;0;153.9435140999849;None;;;;;;;;3;;;;;0.7557201000163332;;;155.48514899995644;None;None;None;[];155.48514899995644;None;"['7', '7', '7']";"[0.7183080000104383, 1.3020205000066198, 2.149871199973859]";155.48514899995644;None;;;S11388;2022_Apr_21_1839;VideoMask;2021.1.2;120.07728171190232;
8.0;m;008_y_m_h_a.jpg;happy;9.0;happy_26.1ns.avi;happy;9.0;congruent;120.0;150.0;155.9437854594882;h_h;;;;;0;2;2;2;;;;;;;158.48510960000567;None;159.9681119999732;160.2848607999622;161.4683221000014;161.484878999996;163.40988449996803;None;9;0;163.40988449996803;None;;;;;;;;7;;;;;0.5532026000437327;;;164.95982589997584;None;None;None;[];164.95982589997584;None;"['9', '9']";"[0.6112623999943025, 1.0113821999984793]";164.95982589997584;None;;;S11388;2022_Apr_21_1839;VideoMask;2021.1.2;120.07728171190232;
0.0;f;040_y_f_h_a.jpg;happy;9.0;sad_138.1.wmv;sad;7.0;incongruent;120.0;160.0;133.99071306426532;h_s;;;;;0;3;3;3;;;;;;;167.95999509998364;None;169.2846177999745;169.60137499996927;170.72641609999118;170.74296579998918;172.73459079995519;None;8;0;172.73459079995519;None;;;;;;;;4;;;;;1.2605496000032872;;;174.2845505999867;None;None;None;[];174.2845505999867;None;"['7', '7']";"[0.718593800032977, 1.2628188999951817]";174.2845505999867;None;;;S11388;2022_Apr_21_1839;VideoMask;2021.1.2;120.07728171190232;
8.0;f;028_y_f_s_a.jpg;sad;7.0;sad_64.2ns.avi;sad;7.0;congruent;130.0;160.0;229.88540597086478;s_s;;;;;0;4;4;4;;;;;;;177.28452499996638;None;179.4427161999629;179.75933049997548;180.9596929999534;180.98501669999678;191.89234339998802;None;7;0;191.89234339998802;None;;;;;;;;2;;;;;0.39894189999904484;;;193.44231630000286;None;None;None;[];193.44231630000286;None;"['7', '7', '7']";"[0.31312360003357753, 0.6089722000178881, 0.9450039999792352]";193.44231630000286;None;;;S11388;2022_Apr_21_1839;VideoMask;2021.1.2;120.07728171190232;
7.0;m;027_o_m_s_a.jpg;sad;7.0;sad_10.4ns.avi;sad;7.0;congruent;130.0;160.0;185.20129417468752;s_s;;;;;0;5;5;5;;;;;;;196.45056769996881;None;198.20036789996084;198.51709419995314;199.6674359999597;199.69202630000655;202.82538840000052;None;7;0;202.82538840000052;None;;;;;;;;3;;;;;0.5059070999850519;;;204.37530359998345;None;None;None;[];204.37530359998345;None;"['7', '7']";"[0.5559794000000693, 0.9719046000391245]";204.37530359998345;None;;;S11388;2022_Apr_21_1839;VideoMask;2021.1.2;120.07728171190232;
2.0;f;012_o_f_s_a.jpg;sad;7.0;sad_7.5ns.avi;sad;7.0;congruent;130.0;160.0;220.27842655424388;s_s;;;;;0;6;6;6;;;;;;;207.3835728999693;None;209.41673699999228;209.733389800007;210.9498792999657;210.96685079997405;213.6588224999723;None;7;0;213.6588224999723;None;;;;;;;;3;;;;;0.3363097999827005;;;215.22495229996275;None;None;None;[];215.22495229996275;None;"['7', '7']";"[0.7463234000024386, 1.1863097999594174]";215.22495229996275;None;;;S11388;2022_Apr_21_1839;VideoMask;2021.1.2;120.07728171190232;
2.0;f;012_o_f_h_a.jpg;happy;9.0;happy_27.1ns.avi;happy;9.0;congruent;120.0;150.0;146.44967055810616;h_h;;;;;0;7;7;7;;;;;;;218.225264699955;None;219.64141169999493;219.9580883999588;221.15778439998394;221.17574569996214;223.58316869998816;None;9;0;223.58316869998816;None;;;;;;;;7;;;;;0.4042423000209965;;;225.13301369996043;None;None;None;[];225.13301369996043;None;"['9', '9']";"[0.6223473999998532, 0.974283599993214]";225.13301369996043;None;;;S11388;2022_Apr_21_1839;VideoMask;2021.1.2;120.07728171190232;
8.0;f;028_y_f_h_a.jpg;happy;9.0;sad_119.1.wmv;sad;7.0;incongruent;120.0;160.0;148.71526953572538;h_s;;;;;0;8;8;8;;;;;;;228.13297430000966;None;229.58273589995224;229.89943819999462;231.03295019996585;231.04941659996985;233.0993848000071;None;7;0;233.0993848000071;None;;;;;;;;4;;;;;0.6560164000256918;;;234.64945729996543;None;None;None;[];234.64945729996543;None;['7'];[0.8258336000144482];234.64945729996543;None;;;S11388;2022_Apr_21_1839;VideoMask;2021.1.2;120.07728171190232;
6.0;m;016_y_m_s_a.jpg;sad;7.0;happy_60.4ns.avi;happy;9.0;incongruent;130.0;150.0;126.02367393611817;s_h;;;;;0;9;9;9;;;;;;;237.65777240000898;None;238.93262809998123;239.24918769998476;240.39079789997777;240.4074993999675;246.174055499956;None;9;0;246.174055499956;None;;;;;;;;5;;;;;0.9332336999941617;;;247.72398099995917;None;None;None;[];247.72398099995917;None;None;;247.72398099995917;None;;;S11388;2022_Apr_21_1839;VideoMask;2021.1.2;120.07728171190232;
9.0;f;019_m_f_s_a.jpg;sad;7.0;sad_8.4ns.avi;sad;7.0;congruent;130.0;160.0;171.6633093155257;s_s;;;;;0;10;10;10;;;;;;;250.74042519996874;None;252.39862469997024;252.71545089996653;253.86539210000774;253.88216069998452;261.98185849998845;None;7;0;261.98185849998845;None;;;;;;;;3;;;;;0.41358480002963915;;;263.5318934000097;None;None;None;[];263.5318934000097;None;"['7', '7', '7']";"[0.31945459998678416, 0.7594282999634743, 1.0953544999938458]";263.5318934000097;None;;;S11388;2022_Apr_21_1839;VideoMask;2021.1.2;120.07728171190232;
4.0;m;004_o_m_h_a.jpg;happy;9.0;happy_1.1ns.avi;happy;9.0;congruent;120.0;150.0;203.50057144619865;h_h;;;;;0;11;11;11;;;;;;;266.5316787000047;None;268.4982192000025;268.8149723999668;269.98164939996786;269.99834759999067;284.4313582999748;None;8;0;284.4313582999748;None;;;;;;;;6;;;;;0.36387010000180453;;;285.98119510000106;None;None;None;[];285.98119510000106;None;['9'];[0.4622197999851778];285.98119510000106;None;;;S11388;2022_Apr_21_1839;VideoMask;2021.1.2;120.07728171190232;
7.0;m;027_o_m_h_a.jpg;happy;9.0;happy_20.1ns.avi;happy;9.0;congruent;120.0;150.0;152.91127178874285;h_h;;;;;0;12;12;12;;;;;;;288.9811284999596;None;290.4642778999987;290.78096579998964;291.9393744999543;291.9561015999643;294.9308397999848;None;8;0;294.9308397999848;None;;;;;;;;5;;;;;0.5286274999962188;;;296.4808604999562;None;None;None;[];296.4808604999562;None;None;;296.4808604999562;None;;;S11388;2022_Apr_21_1839;VideoMask;2021.1.2;120.07728171190232;
0.0;f;040_y_f_s_a.jpg;sad;7.0;sad_94.3ns.avi;sad;7.0;congruent;130.0;160.0;155.27414203894395;s_s;;;;;0;13;13;13;;;;;;;299.5058258000063;None;300.99743509996915;301.3140521000023;302.4971327999956;302.5138294000062;305.0723191999714;None;7;0;305.0723191999714;None;;;;;;;;3;;;;;0.4917149000102654;;;306.6555692999973;None;None;None;[];306.6555692999973;None;"['7', '7', '7']";"[0.6199087999993935, 1.1320246999966912, 1.5244128000340424]";306.6555692999973;None;;;S11388;2022_Apr_21_1839;VideoMask;2021.1.2;120.07728171190232;
0.0;f;030_o_f_s_a.jpg;sad;7.0;sad_68.1ns.avi;sad;7.0;congruent;130.0;160.0;158.9411396037211;s_s;;;;;0;14;14;14;;;;;;;309.6553979999735;None;311.21376660000533;311.5303569000098;312.71373079996556;312.7303209999809;320.08853760000784;None;7;0;320.08853760000784;None;;;;;;;;3;;;;;0.4588460000231862;;;321.6384249999537;None;None;None;[];321.6384249999537;None;"['7', '7']";"[0.308907900005579, 0.6210068999789655]";321.6384249999537;None;;;S11388;2022_Apr_21_1839;VideoMask;2021.1.2;120.07728171190232;
0.0;f;030_o_f_h_a.jpg;happy;9.0;sad_127.1.wmv;sad;7.0;incongruent;120.0;160.0;180.59976631384873;h_s;;;;;0;15;15;15;;;;;;;324.64659419999225;None;326.36332279996714;326.67991189996246;327.805018199957;327.8222821999807;329.8132192000048;None;7;0;329.8132192000048;None;;;;;;;;2;;;;;1.0622041000169702;;;331.36318379995646;None;None;None;[];331.36318379995646;None;"['7', '7', '7', '7']";"[0.6721846999716945, 1.2243544000084512, 1.512100299994927, 1.864076700003352]";331.36318379995646;None;;;S11388;2022_Apr_21_1839;VideoMask;2021.1.2;120.07728171190232;
8.0;m;008_y_m_s_a.jpg;sad;7.0;happy_133.3.wmv;happy;9.0;incongruent;130.0;150.0;152.577966552593;s_h;;;;;0;16;16;16;;;;;;;334.3632036999916;None;335.84625279996544;336.1630756999948;337.2880050999811;337.30464240000583;339.2962739999639;None;9;0;339.2962739999639;None;;;;;;;;7;;;;;0.42717919999267906;;;340.8628866999643;None;None;None;[];340.8628866999643;None;"['9', '9']";"[0.31639649998396635, 0.716412199952174]";340.8628866999643;None;;;S11388;2022_Apr_21_1839;VideoMask;2021.1.2;120.07728171190232;
3.0;m;033_o_m_h_a.jpg;happy;9.0;sad_128.1.wmv;sad;7.0;incongruent;120.0;160.0;171.0492454518585;h_s;;;;;0;17;17;17;;;;;;;343.8712349999696;None;345.51261589996284;345.82939319999423;346.9624760999577;346.97944899997674;348.97088099998655;None;7;0;348.97088099998655;None;;;;;;;;2;;;;;0.4405840000254102;;;350.52091009996366;None;None;None;[];350.52091009996366;None;"['7', '7', '7']";"[0.28263109998079017, 0.5863821000093594, 0.9384373999782838]";350.52091009996366;None;;;S11388;2022_Apr_21_1839;VideoMask;2021.1.2;120.07728171190232;
1.0;f;021_o_f_h_a.jpg;happy;9.0;sad_116.1.wmv;sad;7.0;incongruent;120.0;160.0;184.06847610053055;h_s;;;;;0;18;18;18;;;;;;;353.52092769998126;None;355.2790582999587;355.59561789996224;356.7296935999766;356.7626167999697;358.7291646999656;None;8;0;358.7291646999656;None;;;;;;;;4;;;;;0.4901817999780178;;;360.27885459997924;None;None;None;[];360.27885459997924;None;['7'];[0.5404723000247031];360.27885459997924;None;;;S11388;2022_Apr_21_1839;VideoMask;2021.1.2;120.07728171190232;
4.0;m;004_o_m_s_a.jpg;sad;7.0;happy_28.1ns.avi;happy;9.0;incongruent;130.0;150.0;157.40741103039684;s_h;;;;;0;19;19;19;;;;;;;363.2790081999847;None;364.79542749997927;365.1120776999742;366.32026919996133;366.337114199996;370.6370248000021;None;9;0;370.6370248000021;None;;;;;;;;6;;;;;0.39048070000717416;;;372.18685249995906;None;None;None;[];372.18685249995906;None;"['9', '9']";"[0.36065400001825765, 0.848862899991218]";372.18685249995906;None;;;S11388;2022_Apr_21_1839;VideoMask;2021.1.2;120.07728171190232;
8.0;f;028_y_f_s_a.jpg;sad;7.0;happy_122.3.wmv;happy;9.0;incongruent;130.0;150.0;171.8670540936116;s_h;;;;;0;20;20;20;;;;;;;375.1954229999683;None;376.83669749996625;377.1533480999642;378.28688979998697;378.3032719999901;380.28667219995987;None;9;0;380.28667219995987;None;;;;;;;;6;;;;;0.4766519999830052;;;381.83665349998046;None;None;None;[];381.83665349998046;None;['9'];[0.43874950002646074];381.83665349998046;None;;;S11388;2022_Apr_21_1839;VideoMask;2021.1.2;120.07728171190232;
8.0;m;008_y_m_s_a.jpg;sad;7.0;sad_6.5ns.avi;sad;7.0;congruent;130.0;160.0;170.39333839271438;s_s;;;;;0;21;21;21;;;;;;;384.83693809999386;None;386.46972339996137;386.7864258000045;387.98621699999785;388.00298889999976;392.9195952999871;None;7;0;392.9195952999871;None;;;;;;;;3;;;;;0.3719386999728158;;;394.46950690000085;None;None;None;[];394.46950690000085;None;"['7', '7']";"[0.38184330001240596, 0.6778998000081629]";394.46950690000085;None;;;S11388;2022_Apr_21_1839;VideoMask;2021.1.2;120.07728171190232;
8.0;f;028_y_f_h_a.jpg;happy;9.0;happy_23.1ns.avi;happy;9.0;congruent;120.0;150.0;225.70986890587952;h_h;;;;;0;22;22;22;;;;;;;397.46941560000414;None;399.5527839999995;399.86941549996845;401.027471599984;401.0443789999699;405.5775862999726;None;9;0;405.5775862999726;None;;;;;;;;5;;;;;0.5381842000060715;;;407.12753979995614;None;None;None;[];407.12753979995614;None;None;;407.12753979995614;None;;;S11388;2022_Apr_21_1839;VideoMask;2021.1.2;120.07728171190232;
8.0;m;008_y_m_h_a.jpg;happy;9.0;sad_111.1.wmv;sad;7.0;incongruent;120.0;160.0;152.63076835312847;h_s;;;;;0;23;23;23;;;;;;;410.14396109996596;None;411.62730200000806;411.94390650000423;413.08574670000235;413.10235379997175;415.07731480000075;None;7;0;415.07731480000075;None;;;;;;;;3;;;;;0.5821415000245906;;;416.6272576999618;None;None;None;[];416.6272576999618;None;"['7', '7']";"[0.28820939996512607, 0.6080526000005193]";416.6272576999618;None;;;S11388;2022_Apr_21_1839;VideoMask;2021.1.2;120.07728171190232;
0.0;f;040_y_f_s_a.jpg;sad;7.0;sad_67.2ns.avi;sad;7.0;congruent;130.0;160.0;220.9892697323079;s_s;;;;;0;24;24;24;;;;;;;419.6271870000055;None;421.69377419998636;422.01056989998324;423.2603658000007;423.27697209996404;432.3685374999768;None;7;0;432.3685374999768;None;;;;;;;;2;;;;;0.5710776000050828;;;433.91839780000737;None;None;None;[];433.91839780000737;None;"['7', '7', '7', '7']";"[0.26905529998475686, 0.5490119999740273, 0.8450123000075109, 1.196946099982597]";433.91839780000737;None;;;S11388;2022_Apr_21_1839;VideoMask;2021.1.2;120.07728171190232;
8.0;m;008_y_m_s_a.jpg;sad;7.0;happy_29.1ns.avi;happy;9.0;incongruent;130.0;150.0;120.0316142834122;s_h;;;;;0;25;25;25;;;;;;;436.9267584999907;None;438.1349290999933;438.45155669999076;439.6182236999739;439.63487700000405;442.276703099953;None;8;0;442.276703099953;None;;;;;;;;5;;;;;0.47875710000516847;;;443.82646690000547;None;None;None;[];443.82646690000547;None;None;;443.82646690000547;None;;;S11388;2022_Apr_21_1839;VideoMask;2021.1.2;120.07728171190232;
6.0;m;016_y_m_s_a.jpg;sad;7.0;sad_8.3ns.avi;sad;7.0;congruent;130.0;160.0;152.85371098242734;s_s;;;;;0;26;26;26;;;;;;;446.85123739996925;None;448.3513591999654;448.6678434999776;449.8178898000042;449.8345051999786;457.55932820000453;None;7;0;457.55932820000453;None;;;;;;;;4;;;;;0.3004077000077814;;;459.1093324999674;None;None;None;[];459.1093324999674;None;['7'];[0.36630270001478493];459.1093324999674;None;;;S11388;2022_Apr_21_1839;VideoMask;2021.1.2;120.07728171190232;
6.0;m;016_y_m_h_a.jpg;happy;9.0;sad_114.1.wmv;sad;7.0;incongruent;120.0;160.0;136.20550699298644;h_s;;;;;0;27;27;27;;;;;;;462.11760779999895;None;463.45914589997847;463.7757499999716;464.90918999997666;464.92579219996696;466.90907080000034;None;7;0;466.90907080000034;None;;;;;;;;3;;;;;0.6145596000133082;;;468.4590075999731;None;None;None;[];468.4590075999731;None;"['7', '7', '7']";"[0.28844229999231175, 0.5444431999931112, 0.8885575999738649]";468.4590075999731;None;;;S11388;2022_Apr_21_1839;VideoMask;2021.1.2;120.07728171190232;
7.0;m;027_o_m_s_a.jpg;sad;7.0;happy_117.3.wmv;happy;9.0;incongruent;130.0;150.0;215.61964028550614;s_h;;;;;0;28;28;28;;;;;;;471.4675874999957;None;473.4756054999889;473.7921713999822;474.9172232999699;474.93388159997994;476.925434099976;None;9;0;476.925434099976;None;;;;;;;;6;;;;;0.5503802999737673;;;478.4753909999854;None;None;None;[];478.4753909999854;None;['9'];[0.992255599994678];478.4753909999854;None;;;S11388;2022_Apr_21_1839;VideoMask;2021.1.2;120.07728171190232;
6.0;m;016_y_m_h_a.jpg;happy;9.0;happy_9.2ns.avi;happy;9.0;congruent;120.0;150.0;130.52042428082717;h_h;;;;;0;29;29;29;;;;;;;481.4754310999997;None;482.77516379998997;483.0918904999853;484.27526649995707;484.2919358999934;490.15021509997314;None;9;0;490.15021509997314;None;;;;;;;;6;;;;;0.40536950004752725;;;491.7000183999771;None;None;None;[];491.7000183999771;None;['9'];[0.4080095000099391];491.7000183999771;None;;;S11388;2022_Apr_21_1839;VideoMask;2021.1.2;120.07728171190232;
0.0;f;040_y_f_s_a.jpg;sad;7.0;happy_127.3.wmv;happy;9.0;incongruent;130.0;150.0;131.7195455720239;s_h;;;;;0;30;30;30;;;;;;;494.70009130000835;None;496.00812769995537;496.3248259999673;497.4499288999941;497.4665194999543;499.53312459995504;None;9;0;499.53312459995504;None;;;;;;;;5;;;;;0.3665434999857098;;;501.08316129999;None;None;None;[];501.08316129999;None;None;;501.08316129999;None;;;S11388;2022_Apr_21_1839;VideoMask;2021.1.2;120.07728171190232;
0.0;f;030_o_f_s_a.jpg;sad;7.0;happy_125.3.wmv;happy;9.0;incongruent;130.0;150.0;220.51454909128134;s_h;;;;;0;31;31;31;;;;;;;504.1163038999657;None;506.16611559997546;506.482781699975;507.61607150000054;507.6329216999584;509.61607819999335;None;8;0;509.61607819999335;None;;;;;;;;5;;;;;1.2675191999878734;;;511.1662500000093;None;None;None;[];511.1662500000093;None;None;;511.1662500000093;None;;;S11388;2022_Apr_21_1839;VideoMask;2021.1.2;120.07728171190232;
0.0;f;030_o_f_s_a.jpg;sad;7.0;sad_64.3ns.avi;sad;7.0;congruent;130.0;160.0;165.78667874766072;s_s;;;;;0;32;32;32;;;;;;;514.1908707999974;None;515.7826357999584;516.0992246000096;517.2908314999659;517.3076434999821;522.2323619999806;None;7;0;522.2323619999806;None;;;;;;;;3;;;;;0.47529720002785325;;;523.7823895000038;None;None;None;[];523.7823895000038;None;"['7', '7', '7']";"[0.3733490000013262, 0.6851326000178233, 1.1255099999834783]";523.7823895000038;None;;;S11388;2022_Apr_21_1839;VideoMask;2021.1.2;120.07728171190232;
3.0;m;013_y_m_s_a.jpg;sad;7.0;sad_7.7ns.avi;sad;7.0;congruent;130.0;160.0;196.24182255763262;s_s;;;;;0;33;33;33;;;;;;;526.7823488999857;None;528.6321786000044;528.9488454000093;530.0986647999962;530.1153310000082;536.0820490999613;None;7;0;536.0820490999613;None;;;;;;;;2;;;;;0.3936121999868192;;;537.6402868999867;None;None;None;[];537.6402868999867;None;"['7', '7', '7', '7']";"[0.3073879000148736, 0.6355429000104778, 0.9793142999988049, 1.3954113000072539]";537.6402868999867;None;;;S11388;2022_Apr_21_1839;VideoMask;2021.1.2;120.07728171190232;
3.0;m;013_y_m_h_a.jpg;happy;9.0;happy_9.1ns.avi;happy;9.0;congruent;120.0;150.0;165.1890303600433;h_h;;;;;0;34;34;34;;;;;;;540.6486456999555;None;542.2317491999711;542.5485152999754;543.723455099971;543.7401123999734;546.9068825999857;None;9;0;546.9068825999857;None;;;;;;;;6;;;;;0.4888162999995984;;;548.4566710999934;None;None;None;[];548.4566710999934;None;['9'];[0.29883139999583364];548.4566710999934;None;;;S11388;2022_Apr_21_1839;VideoMask;2021.1.2;120.07728171190232;
4.0;m;004_o_m_h_a.jpg;happy;9.0;sad_95.1ns.avi;sad;7.0;incongruent;120.0;160.0;152.68270002069931;h_s;;;;;0;35;35;35;;;;;;;551.4650130000082;None;552.9647168999654;553.2814718000009;554.4979455999564;554.5146224999917;563.2064794999897;None;7;0;563.2064794999897;None;;;;;;;;3;;;;;0.46123690000968054;;;564.7728400999913;None;None;None;[];564.7728400999913;None;"['7', '7', '7']";"[0.33483350003371015, 0.6949006000068039, 1.126866600010544]";564.7728400999913;None;;;S11388;2022_Apr_21_1839;VideoMask;2021.1.2;120.07728171190232;
3.0;m;013_y_m_h_a.jpg;happy;9.0;sad_113.2.wmv;sad;7.0;incongruent;120.0;160.0;217.4973891947951;h_s;;;;;0;36;36;36;;;;;;;567.7727175999898;None;569.7975565000088;570.1142257999745;571.2394096999778;571.2559385999921;573.2558035999537;None;8;0;573.2558035999537;None;;;;;;;;4;;;;;1.2678988999687135;;;574.8058514999575;None;None;None;[];574.8058514999575;None;['7'];[0.7897116999956779];574.8058514999575;None;;;S11388;2022_Apr_21_1839;VideoMask;2021.1.2;120.07728171190232;
4.0;m;004_o_m_h_a.jpg;happy;9.0;happy_25.1ns.avi;happy;9.0;congruent;120.0;150.0;216.63044503818386;h_h;;;;;0;37;37;37;;;;;;;577.81413720001;None;579.822342599975;580.1389540999662;581.2722971999901;581.2888168999925;584.9640211999649;None;9;0;584.9640211999649;None;;;;;;;;7;;;;;0.44000179995782673;;;586.5221971999854;None;None;None;[];586.5221971999854;None;"['9', '9', '9']";"[0.24139420001301914, 0.5854804000118747, 1.0414697999949567]";586.5221971999854;None;;;S11388;2022_Apr_21_1839;VideoMask;2021.1.2;120.07728171190232;
4.0;m;004_o_m_s_a.jpg;sad;7.0;happy_131.2.wmv;happy;9.0;incongruent;130.0;150.0;181.38407540847405;s_h;;;;;0;38;38;38;;;;;;;589.5306821999839;None;591.2554129000055;591.5720610999851;592.7227124999627;592.7554101999849;594.705266200006;None;9;0;594.705266200006;None;;;;;;;;6;;;;;0.6024536999757402;;;596.2551975999959;None;None;None;[];596.2551975999959;None;['9'];[0.30039220000617206];596.2551975999959;None;;;S11388;2022_Apr_21_1839;VideoMask;2021.1.2;120.07728171190232;
0.0;f;040_y_f_h_a.jpg;happy;9.0;happy_24.3ns.avi;happy;9.0;congruent;120.0;150.0;213.25460698950434;h_h;;;;;0;39;39;39;;;;;;;599.2551490999758;None;601.2299834999721;601.5466550999554;602.7131851000013;602.7298730000039;604.6050504999585;None;9;0;604.6050504999585;None;;;;;;;;7;;;;;0.7666997999767773;;;606.1549561999855;None;None;None;[];606.1549561999855;None;"['9', '9']";"[0.4168239000136964, 0.8969276000279933]";606.1549561999855;None;;;S11388;2022_Apr_21_1839;VideoMask;2021.1.2;120.07728171190232;
2.0;f;012_o_f_s_a.jpg;sad;7.0;happy_139.1.wmv;happy;9.0;incongruent;130.0;150.0;162.31500468041804;s_h;;;;;0;40;40;40;;;;;;;609.1548468999681;None;610.7213205999578;611.0380391000072;612.1712420999538;612.1879467999679;614.1712513999664;None;9;0;614.1712513999664;None;;;;;;;;6;;;;;0.3203571999911219;;;615.7213113000034;None;None;None;[];615.7213113000034;None;['9'];[0.32228020002366975];615.7213113000034;None;;;S11388;2022_Apr_21_1839;VideoMask;2021.1.2;120.07728171190232;
0.0;f;030_o_f_h_a.jpg;happy;9.0;happy_24.1ns.avi;happy;9.0;congruent;120.0;150.0;168.36256624020774;h_h;;;;;0;41;41;41;;;;;;;618.7213670999627;None;620.3293545999913;620.6460861999658;621.8209346999647;621.8377893999568;625.1044439999969;None;9;0;625.1044439999969;None;;;;;;;;7;;;;;0.6272590000298806;;;626.6544529999956;None;None;None;[];626.6544529999956;None;"['9', '9']";"[0.3253240000340156, 0.781430300034117]";626.6544529999956;None;;;S11388;2022_Apr_21_1839;VideoMask;2021.1.2;120.07728171190232;
2.0;f;012_o_f_h_a.jpg;happy;9.0;sad_113.1.wmv;sad;7.0;incongruent;120.0;160.0;177.44551734737394;h_s;;;;;0;42;42;42;;;;;;;629.6543197999708;None;631.3373469999642;631.6540681999759;632.7873515000101;632.8042343999841;634.787417399988;None;7;0;634.787417399988;None;;;;;;;;4;;;;;0.38432229997124523;;;636.3373227999546;None;None;None;[];636.3373227999546;None;['7'];[0.3062655999674462];636.3373227999546;None;;;S11388;2022_Apr_21_1839;VideoMask;2021.1.2;120.07728171190232;
3.0;m;033_o_m_s_a.jpg;sad;7.0;sad_64.5ns.avi;sad;7.0;congruent;130.0;160.0;130.55717223801247;s_s;;;;;0;43;43;43;;;;;;;639.3457650999771;None;640.6454578999546;640.9623054999975;642.1121199000045;642.1288422999787;648.6787424999638;None;7;0;648.6787424999638;None;;;;;;;;3;;;;;0.39699199999449775;;;650.2285727999988;None;None;None;[];650.2285727999988;None;"['7', '7']";"[0.23949870001524687, 0.5753801999962889]";650.2285727999988;None;;;S11388;2022_Apr_21_1839;VideoMask;2021.1.2;120.07728171190232;
7.0;m;027_o_m_h_a.jpg;happy;9.0;sad_117.1.wmv;sad;7.0;incongruent;120.0;160.0;181.28665202824095;h_s;;;;;0;44;44;44;;;;;;;653.2286403999897;None;654.953372399963;655.2702001999714;656.4034206999931;656.4201738999691;658.403412899992;None;8;0;658.403412899992;None;;;;;;;;4;;;;;1.0564290000475012;;;659.9533070999896;None;None;None;[];659.9533070999896;None;['7'];[1.01846300001489];659.9533070999896;None;;;S11388;2022_Apr_21_1839;VideoMask;2021.1.2;120.07728171190232;
3.0;m;033_o_m_s_a.jpg;sad;7.0;happy_126.3.wmv;happy;9.0;incongruent;130.0;150.0;198.85252030535366;s_h;;;;;0;45;45;45;;;;;;;662.9616906999727;None;664.8280868000002;665.1447570999735;666.2864069999778;666.3031597000081;668.2780743999756;None;9;0;668.2780743999756;None;;;;;;;;6;;;;;0.49368429998867214;;;669.8280437999638;None;None;None;[];669.8280437999638;None;['9'];[0.3837777999578975];669.8280437999638;None;;;S11388;2022_Apr_21_1839;VideoMask;2021.1.2;120.07728171190232;
3.0;m;033_o_m_h_a.jpg;happy;9.0;sad_136.1.wmv;sad;7.0;incongruent;120.0;160.0;176.97002883463455;h_s;;;;;0;46;46;46;;;;;;;672.8279186;None;674.5111060999916;674.827710499987;675.9528943999903;675.9694690000033;677.969395299966;None;8;0;677.969395299966;None;;;;;;;;4;;;;;1.3066222000052221;;;679.5194392999983;None;None;None;[];679.5194392999983;None;"['7', '7']";"[1.444356299994979, 2.004469599982258]";679.5194392999983;None;;;S11388;2022_Apr_21_1839;VideoMask;2021.1.2;120.07728171190232;
9.0;f;019_m_f_h_a.jpg;happy;9.0;happy_10.1ns.avi;happy;9.0;congruent;120.0;150.0;157.2463435658512;h_h;;;;;0;47;47;47;;;;;;;682.5277928999858;None;684.0608905999688;684.3775983999949;685.5107998999883;685.527359300002;692.9608718999662;None;9;0;692.9608718999662;None;;;;;;;;7;;;;;0.4668900000397116;;;694.5105697999825;None;None;None;[];694.5105697999825;None;"['9', '9']";"[0.3492963000317104, 0.877600000007078]";694.5105697999825;None;;;S11388;2022_Apr_21_1839;VideoMask;2021.1.2;120.07728171190232;
2.0;f;012_o_f_h_a.jpg;happy;9.0;happy_2.2ns.avi;happy;9.0;congruent;120.0;150.0;206.34800317295262;h_h;;;;;0;48;48;48;;;;;;;697.5105767999776;None;699.468770699983;699.7854016000056;700.985556199972;701.0021179000032;713.1269179999945;None;9;0;713.1269179999945;None;;;;;;;;7;;;;;0.42899689998012036;;;714.6850015000091;None;None;None;[];714.6850015000091;None;"['9', '9']";"[0.2468585000024177, 0.582817199989222]";714.6850015000091;None;;;S11388;2022_Apr_21_1839;VideoMask;2021.1.2;120.07728171190232;
3.0;m;033_o_m_h_a.jpg;happy;9.0;happy_24.2ns.avi;happy;9.0;congruent;120.0;150.0;167.9423847659953;h_h;;;;;0;49;49;49;;;;;;;717.6936293999897;None;719.2932169999694;719.609795299999;720.7764632999897;720.7931263999781;724.4681780999526;None;9;0;724.4681780999526;None;;;;;;;;7;;;;;0.4157284999964759;;;726.0179744999623;None;None;None;[];726.0179744999623;None;"['9', '9']";"[0.29014549998100847, 0.8098664999706671]";726.0179744999623;None;;;S11388;2022_Apr_21_1839;VideoMask;2021.1.2;120.07728171190232;
1.0;f;021_o_f_s_a.jpg;sad;7.0;happy_61.2ns.avi;happy;9.0;incongruent;130.0;150.0;210.94664004826666;s_h;;;;;0;50;50;50;;;;;;;729.017880600004;None;730.9844224999542;731.3010815999587;732.4761988999671;732.4927814999828;736.9592279999633;None;9;0;736.9592279999633;None;;;;;;;;5;;;;;0.3326875999919139;;;738.5091600999585;None;None;None;[];738.5091600999585;None;None;;738.5091600999585;None;;;S11388;2022_Apr_21_1839;VideoMask;2021.1.2;120.07728171190232;
4.0;m;004_o_m_s_a.jpg;sad;7.0;sad_2.4ns.avi;sad;7.0;congruent;130.0;160.0;153.02079367163634;s_s;;;;;0;51;51;51;;;;;;;741.5257987999939;None;743.0258707999601;743.342392099963;744.5424927999848;744.5590922999545;752.4343745000078;None;7;0;752.4343745000078;None;;;;;;;;4;;;;;0.39378670003497973;;;754.050467699999;None;None;None;[];754.050467699999;None;['7'];[0.28957960003754124];754.050467699999;None;;;S11388;2022_Apr_21_1839;VideoMask;2021.1.2;120.07728171190232;
8.0;m;008_y_m_h_a.jpg;happy;9.0;happy_1.2ns.avi;happy;9.0;congruent;120.0;150.0;210.98946429383824;h_h;;;;;0;52;52;52;;;;;;;757.0588848000043;None;759.0585197999608;759.3752537999535;760.5587398000062;760.5753140999586;773.2999040999566;None;9;0;773.2999040999566;None;;;;;;;;6;;;;;0.34401810000417754;;;774.8498918999685;None;None;None;[];774.8498918999685;None;['9'];[0.3141575999907218];774.8498918999685;None;;;S11388;2022_Apr_21_1839;VideoMask;2021.1.2;120.07728171190232;
2.0;f;012_o_f_s_a.jpg;sad;7.0;happy_52.2ns.avi;happy;9.0;incongruent;130.0;150.0;172.57202848318138;s_h;;;;;0;53;53;53;;;;;;;777.858206600009;None;779.4912609999883;779.8079954999848;781.0172156000044;781.041280400008;784.491158699966;None;9;0;784.491158699966;None;;;;;;;;5;;;;;0.5847601999994367;;;786.0410663000075;None;None;None;[];786.0410663000075;None;None;;786.0410663000075;None;;;S11388;2022_Apr_21_1839;VideoMask;2021.1.2;120.07728171190232;
9.0;f;019_m_f_s_a.jpg;sad;7.0;happy_61.1ns.avi;happy;9.0;incongruent;130.0;150.0;181.3003220572762;s_h;;;;;0;54;54;54;;;;;;;789.0576174999587;None;790.7993524000049;791.1159278999548;792.2576715999749;792.2743825999787;799.6407988999854;None;9;0;799.6407988999854;None;;;;;;;;6;;;;;0.4431299999705516;;;801.1907785999938;None;None;None;[];801.1907785999938;None;['9'];[1.29349509999156];801.1907785999938;None;;;S11388;2022_Apr_21_1839;VideoMask;2021.1.2;120.07728171190232;
0.0;f;030_o_f_h_a.jpg;happy;9.0;sad_133.1.wmv;sad;7.0;incongruent;120.0;160.0;198.86251500867985;h_s;;;;;0;55;55;55;;;;;;;804.1990865999833;None;806.0738353999914;806.3904772999813;807.5156823999714;807.5322383999592;809.5238588000066;None;7;0;809.5238588000066;None;;;;;;;;4;;;;;0.85613640001975;;;811.0737900999957;None;None;None;[];811.0737900999957;None;['7'];[0.4980820000055246];811.0737900999957;None;;;S11388;2022_Apr_21_1839;VideoMask;2021.1.2;120.07728171190232;
0.0;f;040_y_f_h_a.jpg;happy;9.0;sad_128.2.wmv;sad;7.0;incongruent;120.0;160.0;206.10005857915363;h_s;;;;;0;56;56;56;;;;;;;814.0736688000034;None;816.0151975000044;816.3318650999572;817.465117499989;817.4818185999757;819.4650715999887;None;7;0;819.4650715999887;None;;;;;;;;4;;;;;0.6748525000293739;;;821.0151785999769;None;None;None;[];821.0151785999769;None;['7'];[0.7167723000166006];821.0151785999769;None;;;S11388;2022_Apr_21_1839;VideoMask;2021.1.2;120.07728171190232;
1.0;f;021_o_f_s_a.jpg;sad;7.0;sad_9.5ns.avi;sad;7.0;congruent;130.0;160.0;206.16642757875042;s_s;;;;;0;57;57;57;;;;;;;824.0152072999626;None;825.9398443999817;826.2565472999704;827.3981247000047;827.4151034000097;833.1149724999559;None;7;0;833.1149724999559;None;;;;;;;;2;;;;;0.4809294000151567;;;834.6647638999857;None;None;None;[];834.6647638999857;None;"['7', '7', '7']";"[0.2516685000155121, 0.5871457000030205, 0.923087100032717]";834.6647638999857;None;;;S11388;2022_Apr_21_1839;VideoMask;2021.1.2;120.07728171190232;
1.0;f;021_o_f_h_a.jpg;happy;9.0;happy_12.1ns.avi;happy;9.0;congruent;120.0;150.0;132.59080005900228;h_h;;;;;0;58;58;58;;;;;;;837.6648082999745;None;839.0062282999861;839.3228734000004;840.4646401999635;840.4812987999758;848.072920400009;None;9;0;848.072920400009;None;;;;;;;;5;;;;;0.4111368000158109;;;849.6309069999843;None;None;None;[];849.6309069999843;None;None;;849.6309069999843;None;;;S11388;2022_Apr_21_1839;VideoMask;2021.1.2;120.07728171190232;
3.0;m;013_y_m_s_a.jpg;sad;7.0;happy_56.2ns.avi;happy;9.0;incongruent;130.0;150.0;163.39234110935848;s_h;;;;;0;59;59;59;;;;;;;852.6474582999945;None;854.2224500000011;854.5391518999822;855.6807066999609;855.6974669999909;860.6973829999915;None;9;0;860.6973829999915;None;;;;;;;;6;;;;;0.41868659999454394;;;862.2472608999815;None;None;None;[];862.2472608999815;None;['9'];[0.23671500000637025];862.2472608999815;None;;;S11388;2022_Apr_21_1839;VideoMask;2021.1.2;120.07728171190232;
;;;;;;;;;;;;;;;;;;;;;;;;;;;;;;;;;;;;;;;;;;;;;;;;;;;;;;;;;;;;;;;;;865.2558673999738;None;;;;;;
