primePerson;primeGender;prime;primeEmotion;corrAnsPrime;target;targetEmotion;corrAnsTar;Cond;ID_Primer;ID_Target;JitterTime;Condition;example.thisRepN;example.thisTrialN;example.thisN;example.thisIndex;study.thisRepN;study.thisTrialN;study.thisN;study.thisIndex;MR_trigger_time;MR_trigger_number;text_intro.started;text_intro.stopped;text_probe.started;text_probe.stopped;polygon_ISI.started;polygon_ISI.stopped;polygon.started;polygon.stopped;primerImage.started;primerImage.stopped;response.started;response.stopped;key_resp.keys;key_resp.corr;key_resp.started;key_resp.stopped;slider_Text.started;slider_Text.stopped;slider_ex.response;slider_ex.rt;slider_ex.history;slider_ex.started;slider_ex.stopped;Rating;slider_resp_response.keys;slider_resp_response.started;slider_resp_response.stopped;key_resp.rt;slider_resp_response.rt;text_start.started;text_start.stopped;text_slider.started;text_slider.stopped;slider_stud.response;slider_stud.rt;slider_stud.history;slider_stud.started;slider_stud.stopped;slider_resp_study.keys;slider_resp_study.rt;slider_resp_study.started;slider_resp_study.stopped;text_ende.started;text_ende.stopped;participant;date;expName;psychopyVersion;frameRate;
1111;m;1111_m_m_h_a.jpg;happy;9;example_30.4ns.avi;neutral;7;incongruent;120.0;170.0;189.5874364012288;;0;0;0;0;;;;;148.58549289999064;1;148.66300679999404;150.66313230001833;150.66313230001833;None;152.68032340001082;None;154.94658610003535;155.26351620000787;156.47113900003023;156.4878955000313;160.7378650000319;None;None;0;160.7378650000319;None;162.2875570000033;None;None;None;[];162.2875570000033;None;5;None;162.2875570000033;None;;;;;;;;;;;;;;;;;;S11231a;2022_Feb_21_1906;VideoMask;2021.1.2;120.45333815782308;
1113;f;1113_y_f_s_a.jpg;sad;7;example_30.3ns.avi;neutral;7;incongruent;130.0;170.0;229.02432995836998;;0;1;1;1;;;;;;;;;;;165.31270820001373;None;167.43764810002176;167.7540907000075;168.92092890001368;168.93751040002098;170.88813750003465;None;8;0;170.88813750003465;None;172.72903990000486;None;None;None;[];172.72903990000486;None;6;['9'];172.72903990000486;None;0.7133106999681331;[0.6722734000068158];;;;;;;;;;;;;;;;S11231a;2022_Feb_21_1906;VideoMask;2021.1.2;120.45333815782308;
9.0;f;019_m_f_h_a.jpg;happy;9.0;sad_115.1.wmv;sad;7.0;incongruent;120.0;160.0;128.09063432376465;h_s;;;;;0;0;0;0;;;;;;;176.7622724000248;None;178.0454696000088;178.3622148000286;179.51284400001168;179.5453855000087;181.50378770002862;None;7;0;181.50378770002862;None;;;;;;;;3;;;;1.2172001999570057;;175.7373747000238;None;183.0536195000168;None;None;None;[];183.0536195000168;None;"['7', '7', '7']";"[0.93959399999585, 1.4435820000362583, 1.9956806999980472]";183.0536195000168;None;;;S11231a;2022_Feb_21_1906;VideoMask;2021.1.2;120.45333815782308;
3.0;m;033_o_m_s_a.jpg;sad;7.0;sad_94.2ns.avi;sad;7.0;congruent;130.0;160.0;182.29120173647655;s_s;;;;;0;1;1;1;;;;;;;186.05390790000092;None;187.76172640000004;188.07850410003448;189.2619257000042;189.27857670001686;191.90347070002463;None;8;0;191.90347070002463;None;;;;;;;;4;;;;0.705560400034301;;;;193.894942599989;None;None;None;[];193.894942599989;None;['7'];[0.8660834999755025];193.894942599989;None;;;S11231a;2022_Feb_21_1906;VideoMask;2021.1.2;120.45333815782308;
8.0;m;008_y_m_h_a.jpg;happy;9.0;happy_26.1ns.avi;happy;9.0;congruent;120.0;150.0;155.9437854594882;h_h;;;;;0;2;2;2;;;;;;;196.89504110004054;None;198.37814670003718;198.69487340003252;199.84483190003084;199.86160659999587;201.81986680004047;None;9;0;201.81986680004047;None;;;;;;;;8;;;;1.0372388000250794;;;;203.36981080000987;None;None;None;[];203.36981080000987;None;"['9', '9', '9', '9']";"[0.5114368999493308, 0.8635911999735981, 1.3271859999513254, 2.023507099947892]";203.36981080000987;None;;;S11231a;2022_Feb_21_1906;VideoMask;2021.1.2;120.45333815782308;
0.0;f;040_y_f_h_a.jpg;happy;9.0;sad_138.1.wmv;sad;7.0;incongruent;120.0;160.0;133.99071306426532;h_s;;;;;0;3;3;3;;;;;;;206.36968080000952;None;207.69454130000668;208.01131219998933;209.1446187000256;209.1613376000314;211.14456350001274;None;7;0;211.14456350001274;None;;;;;;;;3;;;;1.3045605999650434;;;;212.6945110000088;None;None;None;[];212.6945110000088;None;"['7', '7', '7']";"[0.6107023999793455, 1.0191345000057481, 1.4746395999682136]";212.6945110000088;None;;;S11231a;2022_Feb_21_1906;VideoMask;2021.1.2;120.45333815782308;
8.0;f;028_y_f_s_a.jpg;sad;7.0;sad_64.2ns.avi;sad;7.0;congruent;130.0;160.0;229.88540597086478;s_s;;;;;0;4;4;4;;;;;;;215.6945027000038;None;217.8442059000372;218.16098970000166;219.29430160002084;219.3116660999949;230.29414870002074;None;7;0;230.29414870002074;None;;;;;;;;2;;;;0.7229560999548994;;;;231.8439073000336;None;None;None;[];231.8439073000336;None;"['7', '7', '7']";"[0.4131949000293389, 0.7733345000306144, 1.2213645000010729]";231.8439073000336;None;;;S11231a;2022_Feb_21_1906;VideoMask;2021.1.2;120.45333815782308;
7.0;m;027_o_m_s_a.jpg;sad;7.0;sad_10.4ns.avi;sad;7.0;congruent;130.0;160.0;185.20129417468752;s_s;;;;;0;5;5;5;;;;;;;234.8439521000255;None;236.58527060004417;236.91059210000094;238.07752200000687;238.10205010004574;241.21031300001778;None;7;0;241.21031300001778;None;;;;;;;;2;;;;0.9508227999904193;;;;242.76023950002855;None;None;None;[];242.76023950002855;None;"['7', '7', '7']";"[0.46496439998736605, 0.8087426000274718, 1.0969571000314318]";242.76023950002855;None;;;S11231a;2022_Feb_21_1906;VideoMask;2021.1.2;120.45333815782308;
2.0;f;012_o_f_s_a.jpg;sad;7.0;sad_7.5ns.avi;sad;7.0;congruent;130.0;160.0;220.27842655424388;s_s;;;;;0;6;6;6;;;;;;;245.76868050004123;None;247.793261600018;248.11000340001192;249.30172680004034;249.3184481000062;252.03536680003162;None;7;0;252.03536680003162;None;;;;;;;;3;;;;0.8456793000223115;;;;253.79324550001184;None;None;None;[];253.79324550001184;None;"['7', '7']";"[0.39195709995692596, 0.7197856999700889]";253.79324550001184;None;;;S11231a;2022_Feb_21_1906;VideoMask;2021.1.2;120.45333815782308;
2.0;f;012_o_f_h_a.jpg;happy;9.0;happy_27.1ns.avi;happy;9.0;congruent;120.0;150.0;146.44967055810616;h_h;;;;;0;7;7;7;;;;;;;256.801406899991;None;258.21801640000194;258.53467510000337;259.74292160000186;259.7597079999978;262.1596768000163;None;9;0;262.1596768000163;None;;;;;;;;9;;;;0.49724980001337826;;;;263.7012541000149;None;None;None;[];263.7012541000149;None;"['9', '9', '9', '9']";"[0.3318221000372432, 0.7242706000106409, 1.124046000011731, 1.4838364000315778]";263.7012541000149;None;;;S11231a;2022_Feb_21_1906;VideoMask;2021.1.2;120.45333815782308;
8.0;f;028_y_f_h_a.jpg;happy;9.0;sad_119.1.wmv;sad;7.0;incongruent;120.0;160.0;148.71526953572538;h_s;;;;;0;8;8;8;;;;;;;266.7011501000379;None;268.15102849999676;268.46769790002145;269.62614240002586;269.6425611000159;271.66768950002734;None;7;0;271.66768950002734;None;;;;;;;;1;;;;0.7975544000510126;;;;273.2176344000036;None;None;None;[];273.2176344000036;None;"['7', '7', '7', '7']";"[0.8395496999728493, 1.279456099960953, 1.767340799968224, 2.095396999968216]";273.2176344000036;None;;;S11231a;2022_Feb_21_1906;VideoMask;2021.1.2;120.45333815782308;
6.0;m;016_y_m_s_a.jpg;sad;7.0;happy_60.4ns.avi;happy;9.0;incongruent;130.0;150.0;126.02367393611817;s_h;;;;;0;9;9;9;;;;;;;276.21762360003777;None;277.48402590001933;277.8007474000333;278.9840423000278;279.0007508000126;284.72574070002884;None;9;0;284.72574070002884;None;;;;;;;;8;;;;0.7711575999855995;;;;286.2755050000269;None;None;None;[];286.2755050000269;None;"['9', '9', '9']";"[0.5415947000146843, 0.8374558999785222, 1.157713100023102]";286.2755050000269;None;;;S11231a;2022_Feb_21_1906;VideoMask;2021.1.2;120.45333815782308;
9.0;f;019_m_f_s_a.jpg;sad;7.0;sad_8.4ns.avi;sad;7.0;congruent;130.0;160.0;171.6633093155257;s_s;;;;;0;10;10;10;;;;;;;289.27550280001014;None;290.94200460001593;291.2586898000445;292.4087356000091;292.42527220002376;300.53351370000746;None;7;0;300.53351370000746;None;;;;;;;;2;;;;0.5556038999930024;;;;302.0834043000359;None;None;None;[];302.0834043000359;None;"['7', '7', '7', '7', '9']";"[0.3419776000082493, 0.6296169999986887, 0.9977874000323936, 1.8456655000336468, 2.6535614000167698]";302.0834043000359;None;;;S11231a;2022_Feb_21_1906;VideoMask;2021.1.2;120.45333815782308;
4.0;m;004_o_m_h_a.jpg;happy;9.0;happy_1.1ns.avi;happy;9.0;congruent;120.0;150.0;203.50057144619865;h_h;;;;;0;11;11;11;;;;;;;305.08331050002016;None;307.05813489999855;307.37470980000217;308.53321220004;308.5498812000151;322.99950130004436;None;9;0;322.99950130004436;None;;;;;;;;6;;;;0.8896479000104591;;;;324.7742553999997;None;None;None;[];324.7742553999997;None;['9'];[0.6107849999680184];324.7742553999997;None;;;S11231a;2022_Feb_21_1906;VideoMask;2021.1.2;120.45333815782308;
7.0;m;027_o_m_h_a.jpg;happy;9.0;happy_20.1ns.avi;happy;9.0;congruent;120.0;150.0;152.91127178874285;h_h;;;;;0;12;12;12;;;;;;;327.7833098000265;None;329.2740880000056;329.59086430002935;330.74086190003436;330.7575450000004;333.7407352000009;None;None;0;333.7407352000009;None;;;;;;;;7;;;;;;;;335.2905264000292;None;None;None;[];335.2905264000292;None;"['9', '9']";"[0.5425312999868765, 0.9027406999957748]";335.2905264000292;None;;;S11231a;2022_Feb_21_1906;VideoMask;2021.1.2;120.45333815782308;
0.0;f;040_y_f_s_a.jpg;sad;7.0;sad_94.3ns.avi;sad;7.0;congruent;130.0;160.0;155.27414203894395;s_s;;;;;0;13;13;13;;;;;;;338.29068299999926;None;339.78230369999073;340.09881160000805;341.2903492000187;341.307199700037;343.85710530000506;None;8;0;343.85710530000506;None;;;;;;;;5;;;;0.6960271999705583;;;;345.40702839998994;None;None;None;[];345.40702839998994;None;None;;345.40702839998994;None;;;S11231a;2022_Feb_21_1906;VideoMask;2021.1.2;120.45333815782308;
0.0;f;030_o_f_s_a.jpg;sad;7.0;sad_68.1ns.avi;sad;7.0;congruent;130.0;160.0;158.9411396037211;s_s;;;;;0;14;14;14;;;;;;;348.42344660003437;None;349.96520400000736;350.2818934000097;351.4899642000091;351.5068353000097;358.8398489000392;None;7;0;358.8398489000392;None;;;;;;;;1;;;;0.7212022999883629;;;;360.38993170001777;None;None;None;[];360.38993170001777;None;"['7', '7', '7', '7', '7', '7']";"[0.4831427000463009, 0.7949652000097558, 1.2512748000444844, 1.747380900022108, 2.0429632000159472, 2.6911987000494264]";360.38993170001777;None;;;S11231a;2022_Feb_21_1906;VideoMask;2021.1.2;120.45333815782308;
0.0;f;030_o_f_h_a.jpg;happy;9.0;sad_127.1.wmv;sad;7.0;incongruent;120.0;160.0;180.59976631384873;h_s;;;;;0;15;15;15;;;;;;;363.3981720000156;None;365.11468240001705;365.4314200000372;366.5814594000112;366.5980661000358;368.5731751000276;None;7;0;368.5731751000276;None;;;;;;;;3;;;;1.3641604000004008;;;;370.1312565000262;None;None;None;[];370.1312565000262;None;"['7', '7']";"[0.5418122000410222, 0.973647000035271]";370.1312565000262;None;;;S11231a;2022_Feb_21_1906;VideoMask;2021.1.2;120.45333815782308;
8.0;m;008_y_m_s_a.jpg;sad;7.0;happy_133.3.wmv;happy;9.0;incongruent;130.0;150.0;152.577966552593;s_h;;;;;0;16;16;16;;;;;;;373.13117310003145;None;374.6143211000017;374.9311265000142;376.0643882000004;376.081093100016;378.0643488999922;None;9;0;378.0643488999922;None;;;;;;;;7;;;;0.6566513000288978;;;;379.6143038000446;None;None;None;[];379.6143038000446;None;"['9', '9']";"[0.3549252999946475, 0.7228625999996439]";379.6143038000446;None;;;S11231a;2022_Feb_21_1906;VideoMask;2021.1.2;120.45333815782308;
3.0;m;033_o_m_h_a.jpg;happy;9.0;sad_128.1.wmv;sad;7.0;incongruent;120.0;160.0;171.0492454518585;h_s;;;;;0;17;17;17;;;;;;;382.6141891000443;None;384.2723640000331;384.5891123000183;385.72216530004516;385.7391658000415;387.72237490001135;None;7;0;387.72237490001135;None;;;;;;;;2;;;;0.5667382999672554;;;;389.27236390003236;None;None;None;[];389.27236390003236;None;"['7', '7', '7', '9']";"[0.48874220001744106, 0.8408367999945767, 1.344690099998843, 1.9767203000374138]";389.27236390003236;None;;;S11231a;2022_Feb_21_1906;VideoMask;2021.1.2;120.45333815782308;
1.0;f;021_o_f_h_a.jpg;happy;9.0;sad_116.1.wmv;sad;7.0;incongruent;120.0;160.0;184.06847610053055;h_s;;;;;0;18;18;18;;;;;;;392.2806983999908;None;394.0304465999943;394.34713140001986;395.48090100003174;395.50536170002306;397.4804440000444;None;7;0;397.4804440000444;None;;;;;;;;4;;;;0.6088292000349611;;;;399.0303835000377;None;None;None;[];399.0303835000377;None;"['7', '7']";"[0.3787016000133008, 1.0588173000141978]";399.0303835000377;None;;;S11231a;2022_Feb_21_1906;VideoMask;2021.1.2;120.45333815782308;
4.0;m;004_o_m_s_a.jpg;sad;7.0;happy_28.1ns.avi;happy;9.0;incongruent;130.0;150.0;157.40741103039684;s_h;;;;;0;19;19;19;;;;;;;402.03027550003026;None;403.54686270002276;403.8635656000115;405.02159890002804;405.0467442999943;409.3883896000334;None;9;0;409.3883896000334;None;;;;;;;;9;;;;0.580869099998381;;;;410.93835569999646;None;None;None;[];410.93835569999646;None;"['9', '9', '9', '9']";"[0.6225720999646001, 0.982598299975507, 1.3908954999642447, 2.0068704999866895]";410.93835569999646;None;;;S11231a;2022_Feb_21_1906;VideoMask;2021.1.2;120.45333815782308;
8.0;f;028_y_f_s_a.jpg;sad;7.0;happy_122.3.wmv;happy;9.0;incongruent;130.0;150.0;171.8670540936116;s_h;;;;;0;20;20;20;;;;;;;413.94665900000837;None;415.5881281000329;415.9047869000351;417.0385890000034;417.05524650000734;419.0382076000096;None;9;0;419.0382076000096;None;;;;;;;;8;;;;0.4988995000021532;;;;420.58803460001945;None;None;None;[];420.58803460001945;None;"['9', '9', '9']";"[0.4290980999940075, 0.7249224000261165, 1.01285470003495]";420.58803460001945;None;;;S11231a;2022_Feb_21_1906;VideoMask;2021.1.2;120.45333815782308;
8.0;m;008_y_m_s_a.jpg;sad;7.0;sad_6.5ns.avi;sad;7.0;congruent;130.0;160.0;170.39333839271438;s_s;;;;;0;21;21;21;;;;;;;423.5879437000258;None;425.2210716000409;425.53781330003403;426.7715208000154;426.79668339999625;431.6710861000465;None;7;0;431.6710861000465;None;;;;;;;;3;;;;0.4580355000216514;;;;433.22087170003215;None;None;None;[];433.22087170003215;None;"['7', '7']";"[0.5162364999996498, 0.9560588999884203]";433.22087170003215;None;;;S11231a;2022_Feb_21_1906;VideoMask;2021.1.2;120.45333815782308;
8.0;f;028_y_f_h_a.jpg;happy;9.0;happy_23.1ns.avi;happy;9.0;congruent;120.0;150.0;225.70986890587952;h_h;;;;;0;22;22;22;;;;;;;436.2210069000139;None;438.30402450001566;438.6207996000303;439.76233230001526;439.7798156000208;444.32909800001653;None;9;0;444.32909800001653;None;;;;;;;;9;;;;0.6401175999781117;;;;445.87898480001604;None;None;None;[];445.87898480001604;None;"['9', '9', '9', '9']";"[0.4581160999950953, 0.7458796999999322, 1.074247100041248, 1.3699802000191994]";445.87898480001604;None;;;S11231a;2022_Feb_21_1906;VideoMask;2021.1.2;120.45333815782308;
8.0;m;008_y_m_h_a.jpg;happy;9.0;sad_111.1.wmv;sad;7.0;incongruent;120.0;160.0;152.63076835312847;h_s;;;;;0;23;23;23;;;;;;;448.8871618999983;None;450.3703551000217;450.6869844000321;451.8284323000116;451.8454361000331;453.82035840000026;None;7;0;453.82035840000026;None;;;;;;;;4;;;;0.7244034999748692;;;;455.37029099999927;None;None;None;[];455.37029099999927;None;['7'];[0.06302399997366592];455.37029099999927;None;;;S11231a;2022_Feb_21_1906;VideoMask;2021.1.2;120.45333815782308;
0.0;f;040_y_f_s_a.jpg;sad;7.0;sad_67.2ns.avi;sad;7.0;congruent;130.0;160.0;220.9892697323079;s_s;;;;;0;24;24;24;;;;;;;458.3703566000331;None;460.43668230000185;460.7533671000274;461.945123100013;461.96182329999283;471.111468099989;None;7;0;471.111468099989;None;;;;;;;;2;;;;0.5536192000145093;;;;472.66141020000214;None;None;None;[];472.66141020000214;None;"['7', '7', '7']";"[0.46771699999226257, 0.71572819998255, 0.9717175999539904]";472.66141020000214;None;;;S11231a;2022_Feb_21_1906;VideoMask;2021.1.2;120.45333815782308;
8.0;m;008_y_m_s_a.jpg;sad;7.0;happy_29.1ns.avi;happy;9.0;incongruent;130.0;150.0;120.0316142834122;s_h;;;;;0;25;25;25;;;;;;;475.6698037000024;None;476.8694123000023;477.1863177000196;478.3778508999967;478.39449130004505;481.01123920001555;None;9;0;481.01123920001555;None;;;;;;;;8;;;;0.4938749000430107;;;;483.04435129999183;None;None;None;[];483.04435129999183;None;"['9', '9', '9', '9']";"[0.38841439998941496, 0.6686201000120491, 1.1807650999980979, 1.5565818999893963]";483.04435129999183;None;;;S11231a;2022_Feb_21_1906;VideoMask;2021.1.2;120.45333815782308;
6.0;m;016_y_m_s_a.jpg;sad;7.0;sad_8.3ns.avi;sad;7.0;congruent;130.0;160.0;152.85371098242734;s_s;;;;;0;26;26;26;;;;;;;486.0526758999913;None;487.54416260001017;487.8608547000331;489.0274124999996;489.04399500001455;496.75234599999385;None;7;0;496.75234599999385;None;;;;;;;;4;;;;1.0168708999990486;;;;498.3023137000273;None;None;None;[];498.3023137000273;None;['7'];[0.49082790000829846];498.3023137000273;None;;;S11231a;2022_Feb_21_1906;VideoMask;2021.1.2;120.45333815782308;
6.0;m;016_y_m_h_a.jpg;happy;9.0;sad_114.1.wmv;sad;7.0;incongruent;120.0;160.0;136.20550699298644;h_s;;;;;0;27;27;27;;;;;;;501.31059200002346;None;502.66040920000523;502.9770849000197;504.1021585999988;504.1188007000019;506.1187561000115;None;7;0;506.1187561000115;None;;;;;;;;2;;;;0.8025148999877274;;;;507.668674000015;None;None;None;[];507.668674000015;None;"['7', '7', '7', '7']";"[0.44447090005269274, 1.1327024000347592, 1.9883562000468373, 2.644255300052464]";507.668674000015;None;;;S11231a;2022_Feb_21_1906;VideoMask;2021.1.2;120.45333815782308;
7.0;m;027_o_m_s_a.jpg;sad;7.0;happy_117.3.wmv;happy;9.0;incongruent;130.0;150.0;215.61964028550614;s_h;;;;;0;28;28;28;;;;;;;510.6685708000441;None;512.6683942000382;512.9851655000239;514.1101640000124;514.1267561000423;516.118386999995;None;None;0;516.118386999995;None;;;;;;;;7;;;;;;;;517.6682242000243;None;None;None;[];517.6682242000243;None;"['9', '9']";"[0.18077470001298934, 0.9645708000170998]";517.6682242000243;None;;;S11231a;2022_Feb_21_1906;VideoMask;2021.1.2;120.45333815782308;
6.0;m;016_y_m_h_a.jpg;happy;9.0;happy_9.2ns.avi;happy;9.0;congruent;120.0;150.0;130.52042428082717;h_h;;;;;0;29;29;29;;;;;;;520.6683714000392;None;521.968127900036;522.2848354000016;523.4098807999981;523.426495200023;529.359662700037;None;9;0;529.359662700037;None;;;;;;;;8;;;;0.5054070000187494;;;;530.901215800026;None;None;None;[];530.901215800026;None;"['9', '9', '9']";"[0.7479521000059322, 1.027713900024537, 1.3958132000407204]";530.901215800026;None;;;S11231a;2022_Feb_21_1906;VideoMask;2021.1.2;120.45333815782308;
0.0;f;040_y_f_s_a.jpg;sad;7.0;happy_127.3.wmv;happy;9.0;incongruent;130.0;150.0;131.7195455720239;s_h;;;;;0;30;30;30;;;;;;;533.901165999996;None;535.2009977000416;535.5178166000405;536.6511878000456;536.6677596000372;538.7176946999971;None;9;0;538.7176946999971;None;;;;;;;;6;;;;0.723361800017301;;;;540.2676930000307;None;None;None;[];540.2676930000307;None;['9'];[0.5578205999918282];540.2676930000307;None;;;S11231a;2022_Feb_21_1906;VideoMask;2021.1.2;120.45333815782308;
0.0;f;030_o_f_s_a.jpg;sad;7.0;happy_125.3.wmv;happy;9.0;incongruent;130.0;150.0;220.51454909128134;s_h;;;;;0;31;31;31;;;;;;;543.2675418000435;None;545.317265700025;545.6340588000021;546.7681066000368;546.7927988000447;548.7673961000401;None;9;0;548.7673961000401;None;;;;;;;;7;;;;0.5374861999880522;;;;550.317369700002;None;None;None;[];550.317369700002;None;"['9', '9', '9', '9']";"[0.34754879999672994, 0.6515794000006281, 1.0277235999819823, 1.4916200999869034]";550.317369700002;None;;;S11231a;2022_Feb_21_1906;VideoMask;2021.1.2;120.45333815782308;
0.0;f;030_o_f_s_a.jpg;sad;7.0;sad_64.3ns.avi;sad;7.0;congruent;130.0;160.0;165.78667874766072;s_s;;;;;0;32;32;32;;;;;;;553.3172034000163;None;554.9087524000206;555.2254545000033;556.3671401000465;556.3838181000319;561.3588842000463;None;8;0;561.3588842000463;None;;;;;;;;4;;;;1.082197299983818;;;;562.9086393000325;None;None;None;[];562.9086393000325;None;['7'];[0.4443520000204444];562.9086393000325;None;;;S11231a;2022_Feb_21_1906;VideoMask;2021.1.2;120.45333815782308;
3.0;m;013_y_m_s_a.jpg;sad;7.0;sad_7.7ns.avi;sad;7.0;congruent;130.0;160.0;196.24182255763262;s_s;;;;;0;33;33;33;;;;;;;565.9086135000107;None;567.7668132000254;568.08336769999;569.2666124000098;569.2834261000389;575.2248763000243;None;8;0;575.2248763000243;None;;;;;;;;4;;;;0.7681138999760151;;;;576.7998451000312;None;None;None;[];576.7998451000312;None;['7'];[0.49689870001748204];576.7998451000312;None;;;S11231a;2022_Feb_21_1906;VideoMask;2021.1.2;120.45333815782308;
3.0;m;013_y_m_h_a.jpg;happy;9.0;happy_9.1ns.avi;happy;9.0;congruent;120.0;150.0;165.1890303600433;h_h;;;;;0;34;34;34;;;;;;;579.7998432000168;None;581.3912666999968;581.7078481999924;582.8994616999989;582.9162779999897;586.074513300031;None;9;0;586.074513300031;None;;;;;;;;7;;;;0.6225727999699302;;;;587.6244524000213;None;None;None;[];587.6244524000213;None;"['9', '9', '9', '7']";"[0.4966763000120409, 0.8004316000151448, 2.06459329999052, 2.440681800013408]";587.6244524000213;None;;;S11231a;2022_Feb_21_1906;VideoMask;2021.1.2;120.45333815782308;
4.0;m;004_o_m_h_a.jpg;happy;9.0;sad_95.1ns.avi;sad;7.0;incongruent;120.0;160.0;152.68270002069931;h_s;;;;;0;35;35;35;;;;;;;590.6329272000003;None;592.1327701000264;592.449179999996;593.5993391000084;593.6159382000333;602.3745488999994;None;7;0;602.3745488999994;None;;;;;;;;2;;;;0.8104816999984905;;;;603.9405880999984;None;None;None;[];603.9405880999984;None;"['7', '7', '7']";"[0.6843115999945439, 1.2363454999867827, 1.5161444999976084]";603.9405880999984;None;;;S11231a;2022_Feb_21_1906;VideoMask;2021.1.2;120.45333815782308;
3.0;m;013_y_m_h_a.jpg;happy;9.0;sad_113.2.wmv;sad;7.0;incongruent;120.0;160.0;217.4973891947951;h_s;;;;;0;36;36;36;;;;;;;606.9489783000317;None;608.9903043000377;609.3071658000117;610.4325454999926;610.4488229000126;612.4570992999943;None;7;0;612.4570992999943;None;;;;;;;;3;;;;0.9599364000023343;;;;614.0069886000128;None;None;None;[];614.0069886000128;None;"['7', '7']";"[0.4180733999819495, 0.7538262999732979]";614.0069886000128;None;;;S11231a;2022_Feb_21_1906;VideoMask;2021.1.2;120.45333815782308;
4.0;m;004_o_m_h_a.jpg;happy;9.0;happy_25.1ns.avi;happy;9.0;congruent;120.0;150.0;216.63044503818386;h_h;;;;;0;37;37;37;;;;;;;617.0152641000459;None;619.039972300001;619.3567725000321;620.5233555000159;620.5403972000349;624.1817902000039;None;9;0;624.1817902000039;None;;;;;;;;9;;;;0.6431731000193395;;;;625.7316295999917;None;None;None;[];625.7316295999917;None;"['9', '9', '9', '9']";"[0.5255882000201382, 0.9414382000104524, 1.5894638000172563, 2.013436899986118]";625.7316295999917;None;;;S11231a;2022_Feb_21_1906;VideoMask;2021.1.2;120.45333815782308;
4.0;m;004_o_m_s_a.jpg;sad;7.0;happy_131.2.wmv;happy;9.0;incongruent;130.0;150.0;181.38407540847405;s_h;;;;;0;38;38;38;;;;;;;628.7398940999992;None;630.4730546000064;630.7897945000441;631.9229544000118;631.9398298000451;633.9231193000451;None;9;0;633.9231193000451;None;;;;;;;;6;;;;0.5579189999843948;;;;635.4728294000379;None;None;None;[];635.4728294000379;None;"['9', '9', '7']";"[0.48031740001169965, 0.8561378999729641, 1.5922973999986425]";635.4728294000379;None;;;S11231a;2022_Feb_21_1906;VideoMask;2021.1.2;120.45333815782308;
0.0;f;040_y_f_h_a.jpg;happy;9.0;happy_24.3ns.avi;happy;9.0;congruent;120.0;150.0;213.25460698950434;h_h;;;;;0;39;39;39;;;;;;;638.4729529999895;None;640.4393774000346;640.7560823000385;641.9062762000249;641.922827500035;643.8144917000318;None;9;0;643.8144917000318;None;;;;;;;;8;;;;0.6345777999958955;;;;645.372708800016;None;None;None;[];645.372708800016;None;"['9', '9', '9']";"[0.40432019997388124, 0.7161618999671191, 2.620467699947767]";645.372708800016;None;;;S11231a;2022_Feb_21_1906;VideoMask;2021.1.2;120.45333815782308;
2.0;f;012_o_f_s_a.jpg;sad;7.0;happy_139.1.wmv;happy;9.0;incongruent;130.0;150.0;162.31500468041804;s_h;;;;;0;40;40;40;;;;;;;648.3725410000188;None;649.9308890000102;650.2474295000429;651.3896096000099;651.4141863000114;653.3808149000397;None;9;0;653.3808149000397;None;;;;;;;;6;;;;0.6922946000122465;;;;654.9307530000224;None;None;None;[];654.9307530000224;None;"['9', '9', '7']";"[0.6541556000011042, 1.2224611999699846, 2.0064785999711603]";654.9307530000224;None;;;S11231a;2022_Feb_21_1906;VideoMask;2021.1.2;120.45333815782308;
0.0;f;030_o_f_h_a.jpg;happy;9.0;happy_24.1ns.avi;happy;9.0;congruent;120.0;150.0;168.36256624020774;h_h;;;;;0;41;41;41;;;;;;;657.9391153000179;None;659.5473307000357;659.8638649000204;661.0054244000348;661.0222385000088;664.3221244000015;None;9;0;664.3221244000015;None;;;;;;;;8;;;;0.7028410999919288;;;;665.8720871999976;None;None;None;[];665.8720871999976;None;"['9', '9', '9']";"[0.4970814000116661, 0.7688745000050403, 1.0649958999711089]";665.8720871999976;None;;;S11231a;2022_Feb_21_1906;VideoMask;2021.1.2;120.45333815782308;
2.0;f;012_o_f_h_a.jpg;happy;9.0;sad_113.1.wmv;sad;7.0;incongruent;120.0;160.0;177.44551734737394;h_s;;;;;0;42;42;42;;;;;;;668.871978500043;None;670.5636280000326;670.8801890999894;672.0133721000166;672.0301650000038;674.0136124000419;None;None;0;674.0136124000419;None;;;;;;;;5;;;;;;;;675.5632593000191;None;None;None;[];675.5632593000191;None;['7'];[2.0618325999821536];675.5632593000191;None;;;S11231a;2022_Feb_21_1906;VideoMask;2021.1.2;120.45333815782308;
3.0;m;033_o_m_s_a.jpg;sad;7.0;sad_64.5ns.avi;sad;7.0;congruent;130.0;160.0;130.55717223801247;s_s;;;;;0;43;43;43;;;;;;;678.5723566000233;None;679.8714191000327;680.1882275000098;681.3632172000362;681.379917400016;687.9130699000088;None;7;0;687.9130699000088;None;;;;;;;;1;;;;0.5922181999776512;;;;689.4630255000084;None;None;None;[];689.4630255000084;None;"['7', '7', '7', '7']";"[0.2418469999684021, 0.49785599997267127, 0.7378982999944128, 1.0419038999825716]";689.4630255000084;None;;;S11231a;2022_Feb_21_1906;VideoMask;2021.1.2;120.45333815782308;
7.0;m;027_o_m_h_a.jpg;happy;9.0;sad_117.1.wmv;sad;7.0;incongruent;120.0;160.0;181.28665202824095;h_s;;;;;0;44;44;44;;;;;;;692.4630820000311;None;694.1877731000423;694.5043913000263;695.6378149000229;695.6544213000452;697.6377597000101;None;7;0;697.6377597000101;None;;;;;;;;4;;;;0.6913312000106089;;;;699.1876932000159;None;None;None;[];699.1876932000159;None;['7'];[0.3733170999912545];699.1876932000159;None;;;S11231a;2022_Feb_21_1906;VideoMask;2021.1.2;120.45333815782308;
3.0;m;033_o_m_s_a.jpg;sad;7.0;happy_126.3.wmv;happy;9.0;incongruent;130.0;150.0;198.85252030535366;s_h;;;;;0;45;45;45;;;;;;;702.1877116000396;None;704.054085300013;704.370776500029;705.5040204999968;705.5208583000349;707.5040931000258;None;9;0;707.5040931000258;None;;;;;;;;7;;;;0.6170026999898255;;;;709.0540500000352;None;None;None;[];709.0540500000352;None;"['9', '9']";"[0.35472300002584234, 0.6907461000373587]";709.0540500000352;None;;;S11231a;2022_Feb_21_1906;VideoMask;2021.1.2;120.45333815782308;
3.0;m;033_o_m_h_a.jpg;happy;9.0;sad_136.1.wmv;sad;7.0;incongruent;120.0;160.0;176.97002883463455;h_s;;;;;0;46;46;46;;;;;;;712.0541374000022;None;713.7287240000442;714.0455328000244;715.1706010000198;715.1871485000011;717.187845700013;None;7;0;717.187845700013;None;;;;;;;;4;;;;0.8608874999918044;;;;718.8121025;None;None;None;[];718.8121025;None;['7'];[0.32482050004182383];718.8121025;None;;;S11231a;2022_Feb_21_1906;VideoMask;2021.1.2;120.45333815782308;
9.0;f;019_m_f_h_a.jpg;happy;9.0;happy_10.1ns.avi;happy;9.0;congruent;120.0;150.0;157.2463435658512;h_h;;;;;0;47;47;47;;;;;;;721.8121421000105;None;723.3369197000284;723.6535259000375;724.8036677000346;724.8202616000199;732.2284762000199;None;9;0;732.2284762000199;None;;;;;;;;7;;;;1.0605307999649085;;;;733.7783167000161;None;None;None;[];733.7783167000161;None;"['9', '9']";"[0.43873459997121245, 0.8066230999538675]";733.7783167000161;None;;;S11231a;2022_Feb_21_1906;VideoMask;2021.1.2;120.45333815782308;
2.0;f;012_o_f_h_a.jpg;happy;9.0;happy_2.2ns.avi;happy;9.0;congruent;120.0;150.0;206.34800317295262;h_h;;;;;0;48;48;48;;;;;;;736.7782325000153;None;738.7363273000228;739.052952900005;740.1948236000026;740.2114222000237;752.386355100025;None;9;0;752.386355100025;None;;;;;;;;8;;;;0.5426056000287645;;;;753.9443155000336;None;None;None;[];753.9443155000336;None;"['9', '9', '9', '9']";"[0.36071109998738393, 0.6484467000118457, 1.0966999999945983, 2.1046956999925897]";753.9443155000336;None;;;S11231a;2022_Feb_21_1906;VideoMask;2021.1.2;120.45333815782308;
3.0;m;033_o_m_h_a.jpg;happy;9.0;happy_24.2ns.avi;happy;9.0;congruent;120.0;150.0;167.9423847659953;h_h;;;;;0;49;49;49;;;;;;;756.9443548000418;None;758.5357140999986;758.8523856000393;759.9856498000445;760.0028416000423;763.7273352000047;None;9;0;763.7273352000047;None;;;;;;;;8;;;;0.8736076999921352;;;;765.2857167000184;None;None;None;[];765.2857167000184;None;"['9', '9', '9']";"[0.3153780000284314, 0.6350788000272587, 0.971402199997101]";765.2857167000184;None;;;S11231a;2022_Feb_21_1906;VideoMask;2021.1.2;120.45333815782308;
1.0;f;021_o_f_s_a.jpg;sad;7.0;happy_61.2ns.avi;happy;9.0;incongruent;130.0;150.0;210.94664004826666;s_h;;;;;0;50;50;50;;;;;;;768.2940440000384;None;770.2520996000385;770.5686991999974;771.7435761000379;771.7604571999982;776.2269974999945;None;9;0;776.2269974999945;None;;;;;;;;8;;;;0.48580460000084713;;;;777.8019316000282;None;None;None;[];777.8019316000282;None;"['9', '9', '9']";"[0.41503209999063984, 0.6869896000134759, 0.9827820000355132]";777.8019316000282;None;;;S11231a;2022_Feb_21_1906;VideoMask;2021.1.2;120.45333815782308;
4.0;m;004_o_m_s_a.jpg;sad;7.0;sad_2.4ns.avi;sad;7.0;congruent;130.0;160.0;153.02079367163634;s_s;;;;;0;51;51;51;;;;;;;780.8018227000139;None;782.293341200042;782.6100501000183;783.7684077000013;783.7851242999895;791.7100838000188;None;7;0;791.7100838000188;None;;;;;;;;2;;;;0.5789203000022098;;;;793.2681331000058;None;None;None;[];793.2681331000058;None;"['7', '7', '7']";"[0.2768591999774799, 0.5806667999713682, 0.8686941999476403]";793.2681331000058;None;;;S11231a;2022_Feb_21_1906;VideoMask;2021.1.2;120.45333815782308;
8.0;m;008_y_m_h_a.jpg;happy;9.0;happy_1.2ns.avi;happy;9.0;congruent;120.0;150.0;210.98946429383824;h_h;;;;;0;52;52;52;;;;;;;796.2764497000026;None;798.2677698000334;798.584542000026;799.7346089000348;799.7512737000361;812.5092207000125;None;9;0;812.5092207000125;None;;;;;;;;7;;;;1.107852399989497;;;;814.0758183000144;None;None;None;[];814.0758183000144;None;"['9', '9']";"[0.42906020005466416, 0.7969854000257328]";814.0758183000144;None;;;S11231a;2022_Feb_21_1906;VideoMask;2021.1.2;120.45333815782308;
2.0;f;012_o_f_s_a.jpg;sad;7.0;happy_52.2ns.avi;happy;9.0;incongruent;130.0;150.0;172.57202848318138;s_h;;;;;0;53;53;53;;;;;;;817.0840288000181;None;818.7088434000034;819.0256135000382;820.1755522000021;820.1922721000155;823.7088478000369;None;9;0;823.7088478000369;None;;;;;;;;7;;;;0.3960644000326283;;;;825.2504724000464;None;None;None;[];825.2504724000464;None;"['9', '9', '9']";"[0.3106798999942839, 0.6704645999707282, 1.0463636000058614]";825.2504724000464;None;;;S11231a;2022_Feb_21_1906;VideoMask;2021.1.2;120.45333815782308;
9.0;f;019_m_f_s_a.jpg;sad;7.0;happy_61.1ns.avi;happy;9.0;incongruent;130.0;150.0;181.3003220572762;s_h;;;;;0;54;54;54;;;;;;;828.2505358000053;None;829.9834133000113;830.300174300035;831.4417442000122;831.4583985999925;838.825467800023;None;9;0;838.825467800023;None;;;;;;;;9;;;;0.5994789999676868;;;;840.3832770000445;None;None;None;[];840.3832770000445;None;"['9', '9', '9', '9']";"[0.47371049999492243, 0.7455884999944828, 1.0416623000055552, 1.681867700011935]";840.3832770000445;None;;;S11231a;2022_Feb_21_1906;VideoMask;2021.1.2;120.45333815782308;
0.0;f;030_o_f_h_a.jpg;happy;9.0;sad_133.1.wmv;sad;7.0;incongruent;120.0;160.0;198.86251500867985;h_s;;;;;0;55;55;55;;;;;;;843.3916731000063;None;845.258166900021;845.5747770000016;846.699915300007;846.716398300021;848.7081882000202;None;7;0;848.7081882000202;None;;;;;;;;2;;;;1.124961900000926;;;;850.2664550000336;None;None;None;[];850.2664550000336;None;"['7', '7', '7', '7', '7', '7']";"[0.4865752999903634, 0.7983923000283539, 1.1502833000267856, 1.4783135000034235, 1.9024926000274718, 2.374423100030981]";850.2664550000336;None;;;S11231a;2022_Feb_21_1906;VideoMask;2021.1.2;120.45333815782308;
0.0;f;040_y_f_h_a.jpg;happy;9.0;sad_128.2.wmv;sad;7.0;incongruent;120.0;160.0;206.10005857915363;h_s;;;;;0;56;56;56;;;;;;;853.2578339999891;None;855.182730600005;855.4994510000106;856.6410087000113;856.6578236999922;858.6327101000352;None;7;0;858.6327101000352;None;;;;;;;;3;;;;0.5284435000503436;;;;860.1827338000294;None;None;None;[];860.1827338000294;None;"['7', '7']";"[0.2985385000356473, 0.6100422000163235]";860.1827338000294;None;;;S11231a;2022_Feb_21_1906;VideoMask;2021.1.2;120.45333815782308;
1.0;f;021_o_f_s_a.jpg;sad;7.0;sad_9.5ns.avi;sad;7.0;congruent;130.0;160.0;206.16642757875042;s_s;;;;;0;57;57;57;;;;;;;863.1909238999942;None;865.1240617000149;865.440803400008;866.6075015999959;866.6248543999973;872.2991634000209;None;7;0;872.2991634000209;None;;;;;;;;2;;;;0.5338424000074156;;;;873.8489388000453;None;None;None;[];873.8489388000453;None;"['7', '7', '7']";"[0.384062199969776, 0.7200202000094578, 1.031824100005906]";873.8489388000453;None;;;S11231a;2022_Feb_21_1906;VideoMask;2021.1.2;120.45333815782308;
1.0;f;021_o_f_h_a.jpg;happy;9.0;happy_12.1ns.avi;happy;9.0;congruent;120.0;150.0;132.59080005900228;h_h;;;;;0;58;58;58;;;;;;;876.8571876999922;None;878.1904931000317;878.5070340000093;879.6735493000015;879.6902106000343;887.256869600038;None;None;0;887.256869600038;None;;;;;;;;8;;;;;;;;888.8149676999892;None;None;None;[];888.8149676999892;None;"['9', '9', '9']";"[0.034131099993828684, 0.5860189999802969, 1.2179306999896653]";888.8149676999892;None;;;S11231a;2022_Feb_21_1906;VideoMask;2021.1.2;120.45333815782308;
3.0;m;013_y_m_s_a.jpg;sad;7.0;happy_56.2ns.avi;happy;9.0;incongruent;130.0;150.0;163.39234110935848;s_h;;;;;0;59;59;59;;;;;;;891.8149632000132;None;893.3899037000374;893.7065273000044;894.8731135000126;894.8899933000212;899.8650060000364;None;9;0;899.8650060000364;None;;;;;;;;8;;;;0.6877462000120431;;;;901.4147623000317;None;None;None;[];901.4147623000317;None;"['9', '9', '9', '9']";"[0.4982766000321135, 0.8021118000033312, 1.177992400014773, 1.5861800000420772]";901.4147623000317;None;;;S11231a;2022_Feb_21_1906;VideoMask;2021.1.2;120.45333815782308;
;;;;;;;;;;;;;;;;;;;;;;;;;;;;;;;;;;;;;;;;;;;;;;;;;;;;;;;;;;;;;;;;;904.4231521000038;None;;;;;;
