primePerson;primeGender;prime;primeEmotion;corrAnsPrime;target;targetEmotion;corrAnsTar;Cond;ID_Primer;ID_Target;JitterTime;Condition;example.thisRepN;example.thisTrialN;example.thisN;example.thisIndex;study.thisRepN;study.thisTrialN;study.thisN;study.thisIndex;MR_trigger_time;MR_trigger_number;text_intro.started;text_intro.stopped;text_probe.started;text_probe.stopped;polygon_ISI.started;polygon_ISI.stopped;polygon.started;polygon.stopped;primerImage.started;primerImage.stopped;response.started;response.stopped;key_resp.keys;key_resp.corr;key_resp.started;key_resp.stopped;slider_Text.started;slider_Text.stopped;slider_ex.response;slider_ex.rt;slider_ex.history;slider_ex.started;slider_ex.stopped;Rating;slider_resp_response.keys;slider_resp_response.started;slider_resp_response.stopped;text_start.started;text_start.stopped;key_resp.rt;text_slider.started;text_slider.stopped;slider_stud.response;slider_stud.rt;slider_stud.history;slider_stud.started;slider_stud.stopped;slider_resp_study.keys;slider_resp_study.rt;slider_resp_study.started;slider_resp_study.stopped;text_ende.started;text_ende.stopped;participant;date;expName;psychopyVersion;frameRate;
1111;m;1111_m_m_h_a.jpg;happy;9;example_30.4ns.avi;neutral;7;incongruent;120.0;170.0;189.5874364012288;;0;0;0;0;;;;;63.571712700184435;1;63.64944309997372;65.65779300010763;65.65779300010763;None;67.69165659998544;None;69.90769080002792;70.23263190011494;71.39164800010622;71.40748449997045;75.71589660015889;None;None;0;75.71589660015889;None;77.28232700005174;None;None;None;[];77.28232700005174;None;5;None;77.28232700005174;None;;;;;;;;;;;;;;;;;S11485;2022_May_27_1408;VideoMask;2021.1.2;119.96319540243684;
1113;f;1113_y_f_s_a.jpg;sad;7;example_30.3ns.avi;neutral;7;incongruent;130.0;170.0;229.02432995836998;;0;1;1;1;;;;;;;;;;;80.29041640018113;None;82.41541430004872;82.73211070010439;83.89055280014873;83.90714920009486;85.86547329998575;None;None;0;85.86547329998575;None;87.41541839996353;None;None;None;[];87.41541839996353;None;5;None;87.41541839996353;None;;;;;;;;;;;;;;;;;S11485;2022_May_27_1408;VideoMask;2021.1.2;119.96319540243684;
9.0;f;019_m_f_h_a.jpg;happy;9.0;sad_115.1.wmv;sad;7.0;incongruent;120.0;160.0;128.09063432376465;h_s;;;;;0;0;0;0;;;;;;;91.46531400014646;None;92.74008500017226;93.0568016001489;94.19004700006917;94.20663890009746;96.19856240018271;None;7;0;96.19856240018271;None;;;;;;;;2;;;;90.44030970009044;None;0.857752799987793;97.82344139995985;None;None;None;[];97.82344139995985;None;"['7', '7', '7']";"[2.0171960999723524, 2.377004100009799, 2.840979800093919]";97.82344139995985;None;;;S11485;2022_May_27_1408;VideoMask;2021.1.2;119.96319540243684;
3.0;m;033_o_m_s_a.jpg;sad;7.0;sad_94.2ns.avi;sad;7.0;congruent;130.0;160.0;182.29120173647655;s_s;;;;;0;1;1;1;;;;;;;100.81502550002187;None;102.53971130005084;102.85643619997427;104.00686850002967;104.02324600005522;106.68146330001764;None;7;0;106.68146330001764;None;;;;;;;;3;;;;;;0.8227438000030816;108.2313844000455;None;None;None;[];108.2313844000455;None;"['7', '7', '7']";"[0.7289098999463022, 1.1769743000622839, 1.6087435998488218]";108.2313844000455;None;;;S11485;2022_May_27_1408;VideoMask;2021.1.2;119.96319540243684;
8.0;m;008_y_m_h_a.jpg;happy;9.0;happy_26.1ns.avi;happy;9.0;congruent;120.0;150.0;155.9437854594882;h_h;;;;;0;2;2;2;;;;;;;111.231380000012;None;112.7228022001218;113.03950450010598;114.2395172000397;114.25627920008264;116.1645673001185;None;9;0;116.1645673001185;None;;;;;;;;9;;;;;;1.1475657001137733;117.83112750016153;None;None;None;[];117.83112750016153;None;"['9', '9', '9', '9']";"[0.6891354001127183, 1.1132239000871778, 1.47346520004794, 1.8892936001066118]";117.83112750016153;None;;;S11485;2022_May_27_1408;VideoMask;2021.1.2;119.96319540243684;
0.0;f;040_y_f_h_a.jpg;happy;9.0;sad_138.1.wmv;sad;7.0;incongruent;120.0;160.0;133.99071306426532;h_s;;;;;0;3;3;3;;;;;;;120.83120480016805;None;122.16417170013301;122.48087800014764;123.60599509999156;123.62252780003473;125.61421450017951;None;7;0;125.61421450017951;None;;;;;;;;3;;;;;;1.1700676998589188;127.16417340002954;None;None;None;[];127.16417340002954;None;"['7', '7']";"[0.5160221999976784, 1.17223499994725]";127.16417340002954;None;;;S11485;2022_May_27_1408;VideoMask;2021.1.2;119.96319540243684;
8.0;f;028_y_f_s_a.jpg;sad;7.0;sad_64.2ns.avi;sad;7.0;congruent;130.0;160.0;229.88540597086478;s_s;;;;;0;4;4;4;;;;;;;130.17253520013765;None;132.38128440012224;132.69725290010683;133.83067529997788;133.8473026000429;144.83022010000423;None;7;0;144.83022010000423;None;;;;;;;;2;;;;;;0.8099777000024915;146.38020390016027;None;None;None;[];146.38020390016027;None;"['7', '7', '7']";"[0.4120791000314057, 0.9002340999431908, 1.3161277999170125]";146.38020390016027;None;;;S11485;2022_May_27_1408;VideoMask;2021.1.2;119.96319540243684;
7.0;m;027_o_m_s_a.jpg;sad;7.0;sad_10.4ns.avi;sad;7.0;congruent;130.0;160.0;185.20129417468752;s_s;;;;;0;5;5;5;;;;;;;149.38857010006905;None;151.15492490003817;151.4716004000511;152.6382053999696;152.65488440007903;155.77151920017786;None;7;0;155.77151920017786;None;;;;;;;;1;;;;;;0.9488129999954253;157.32152140000835;None;None;None;[];157.32152140000835;None;"['7', '7', '7', '7', '7', '7']";"[0.44693029997870326, 0.8066741998773068, 1.1346783998887986, 1.5029043999966234, 1.8549601000268012, 2.254699599929154]";157.32152140000835;None;;;S11485;2022_May_27_1408;VideoMask;2021.1.2;119.96319540243684;
2.0;f;012_o_f_s_a.jpg;sad;7.0;sad_7.5ns.avi;sad;7.0;congruent;130.0;160.0;220.27842655424388;s_s;;;;;0;6;6;6;;;;;;;160.3299752001185;None;162.3629501000978;162.67965649999678;163.84673140011728;163.86287980014458;166.6050383001566;None;7;0;166.6050383001566;None;;;;;;;;4;;;;;;0.5396054000593722;168.17956340010278;None;None;None;[];168.17956340010278;None;['7'];[0.7167891000863165];168.17956340010278;None;;;S11485;2022_May_27_1408;VideoMask;2021.1.2;119.96319540243684;
2.0;f;012_o_f_h_a.jpg;happy;9.0;happy_27.1ns.avi;happy;9.0;congruent;120.0;150.0;146.44967055810616;h_h;;;;;0;7;7;7;;;;;;;171.17956489999779;None;172.604324700078;172.92087430018;174.07944200001657;174.09589770017192;176.54596500005573;None;9;0;176.54596500005573;None;;;;;;;;9;;;;;;0.9264385998249054;178.0959356999956;None;None;None;[];178.0959356999956;None;"['9', '9', '9', '9', '9']";"[0.6083404999226332, 0.9923578999005258, 1.3445262999739498, 1.7362872997764498, 2.1205026998650283]";178.0959356999956;None;;;S11485;2022_May_27_1408;VideoMask;2021.1.2;119.96319540243684;
8.0;f;028_y_f_h_a.jpg;happy;9.0;sad_119.1.wmv;sad;7.0;incongruent;120.0;160.0;148.71526953572538;h_s;;;;;0;8;8;8;;;;;;;181.09585260017775;None;182.5372333000414;182.8541045000311;183.98745790007524;184.00406710011885;186.05404300009832;None;7;0;186.05404300009832;None;;;;;;;;1;;;;;;0.6902458998374641;187.6039724999573;None;None;None;[];187.6039724999573;None;"['7', '7', '7', '7', '7']";"[0.30058269994333386, 0.6603061999194324, 0.9482309999875724, 1.3565061998087913, 1.8203505999408662]";187.6039724999573;None;;;S11485;2022_May_27_1408;VideoMask;2021.1.2;119.96319540243684;
6.0;m;016_y_m_s_a.jpg;sad;7.0;happy_60.4ns.avi;happy;9.0;incongruent;130.0;150.0;126.02367393611817;s_h;;;;;0;9;9;9;;;;;;;190.61222190014087;None;191.90361710009165;192.22045510006137;193.37038890016265;193.38696829997934;199.1452816000674;None;9;0;199.1452816000674;None;;;;;;;;7;;;;;;0.9831809001043439;200.69522360013798;None;None;None;[];200.69522360013798;None;"['9', '9']";"[0.7132003998849541, 1.3531327999662608]";200.69522360013798;None;;;S11485;2022_May_27_1408;VideoMask;2021.1.2;119.96319540243684;
9.0;f;019_m_f_s_a.jpg;sad;7.0;sad_8.4ns.avi;sad;7.0;congruent;130.0;160.0;171.6633093155257;s_s;;;;;0;10;10;10;;;;;;;203.6951601000037;None;205.369882900035;205.68675840017386;206.84487530007027;206.86162760015577;214.95326880016364;None;7;0;214.95326880016364;None;;;;;;;;3;;;;;;0.8231002001557499;216.5031447999645;None;None;None;[];216.5031447999645;None;"['7', '7']";"[0.48915189993567765, 1.305322099942714]";216.5031447999645;None;;;S11485;2022_May_27_1408;VideoMask;2021.1.2;119.96319540243684;
4.0;m;004_o_m_h_a.jpg;happy;9.0;happy_1.1ns.avi;happy;9.0;congruent;120.0;150.0;203.50057144619865;h_h;;;;;0;11;11;11;;;;;;;219.50309889996424;None;221.4944056000095;221.81119340006262;222.98625280009583;223.00287840003148;237.42760569998063;None;9;0;237.42760569998063;None;;;;;;;;7;;;;;;1.0046794000081718;238.97738930000924;None;None;None;[];238.97738930000924;None;"['9', '9']";"[0.5988738001324236, 0.9830232001841068]";238.97738930000924;None;;;S11485;2022_May_27_1408;VideoMask;2021.1.2;119.96319540243684;
7.0;m;027_o_m_h_a.jpg;happy;9.0;happy_20.1ns.avi;happy;9.0;congruent;120.0;150.0;152.91127178874285;h_h;;;;;0;12;12;12;;;;;;;241.97744980012067;None;243.4687954999972;243.78557309997268;244.91892349999398;244.93553510005586;247.93558800010942;None;7;0;247.93558800010942;None;;;;;;;;7;;;;;;0.8891070999670774;249.48540380015038;None;None;None;[];249.48540380015038;None;"['7', '9', '9', '9']";"[0.4989175000227988, 1.3148954000789672, 1.6028307999949902, 1.9468588000163436]";249.48540380015038;None;;;S11485;2022_May_27_1408;VideoMask;2021.1.2;119.96319540243684;
0.0;f;040_y_f_s_a.jpg;sad;7.0;sad_94.3ns.avi;sad;7.0;congruent;130.0;160.0;155.27414203894395;s_s;;;;;0;13;13;13;;;;;;;252.48541780002415;None;253.98512930003926;254.30187500012107;255.460042900173;255.47671400010586;258.0602365999948;None;7;0;258.0602365999948;None;;;;;;;;4;;;;;;1.2840493998955935;259.618429900147;None;None;None;[];259.618429900147;None;['7'];[0.5580795998685062];259.618429900147;None;;;S11485;2022_May_27_1408;VideoMask;2021.1.2;119.96319540243684;
0.0;f;030_o_f_s_a.jpg;sad;7.0;sad_68.1ns.avi;sad;7.0;congruent;130.0;160.0;158.9411396037211;s_s;;;;;0;14;14;14;;;;;;;262.6184382000938;None;264.1681717999745;264.48479360016063;265.68478869996034;265.7014423001092;273.04310760018416;None;7;0;273.04310760018416;None;;;;;;;;3;;;;;;0.9972473999951035;274.5929278000258;None;None;None;[];274.5929278000258;None;"['7', '7']";"[0.45541130006313324, 0.8633630000986159]";274.5929278000258;None;;;S11485;2022_May_27_1408;VideoMask;2021.1.2;119.96319540243684;
0.0;f;030_o_f_h_a.jpg;happy;9.0;sad_127.1.wmv;sad;7.0;incongruent;120.0;160.0;180.59976631384873;h_s;;;;;0;15;15;15;;;;;;;277.59302260004915;None;279.3009904001374;279.61773689999245;280.74281530012377;280.7594681000337;282.75106579996645;None;7;0;282.75106579996645;None;;;;;;;;4;;;;;;1.1775313999969512;284.3009580001235;None;None;None;[];284.3009580001235;None;['7'];[0.5556501001119614];284.3009580001235;None;;;S11485;2022_May_27_1408;VideoMask;2021.1.2;119.96319540243684;
8.0;m;008_y_m_s_a.jpg;sad;7.0;happy_133.3.wmv;happy;9.0;incongruent;130.0;150.0;152.577966552593;s_h;;;;;0;16;16;16;;;;;;;287.3093579001725;None;288.7924514999613;289.1091165000107;290.23427200014703;290.2507848001551;292.2424564000685;None;9;0;292.2424564000685;None;;;;;;;;7;;;;;;0.958010499831289;293.80080420011654;None;None;None;[];293.80080420011654;None;"['9', '9']";"[0.4397317999973893, 0.7675741999410093]";293.80080420011654;None;;;S11485;2022_May_27_1408;VideoMask;2021.1.2;119.96319540243684;
3.0;m;033_o_m_h_a.jpg;happy;9.0;sad_128.1.wmv;sad;7.0;incongruent;120.0;160.0;171.0492454518585;h_s;;;;;0;17;17;17;;;;;;;296.792534600012;None;298.4421322999988;298.75882190000266;299.89206530014053;299.90885110013187;301.8922715000808;None;7;0;301.8922715000808;None;;;;;;;;3;;;;;;0.8042248000856489;303.4419861000497;None;None;None;[];303.4419861000497;None;"['7', '7']";"[0.4623954000417143, 1.2303641999606043]";303.4419861000497;None;;;S11485;2022_May_27_1408;VideoMask;2021.1.2;119.96319540243684;
1.0;f;021_o_f_h_a.jpg;happy;9.0;sad_116.1.wmv;sad;7.0;incongruent;120.0;160.0;184.06847610053055;h_s;;;;;0;18;18;18;;;;;;;306.45046079996973;None;308.208477600012;308.52510199998505;309.6589367999695;309.68396860011853;311.6585807001684;None;7;0;311.6585807001684;None;;;;;;;;4;;;;;;0.9177379000466317;313.3251153000165;None;None;None;[];313.3251153000165;None;['7'];[0.5394925998989493];313.3251153000165;None;;;S11485;2022_May_27_1408;VideoMask;2021.1.2;119.96319540243684;
4.0;m;004_o_m_s_a.jpg;sad;7.0;happy_28.1ns.avi;happy;9.0;incongruent;130.0;150.0;157.40741103039684;s_h;;;;;0;19;19;19;;;;;;;316.3251903001219;None;317.8499734001234;318.16655710013583;319.34165109996684;319.35827330010943;323.6915327999741;None;9;0;323.6915327999741;None;;;;;;;;9;;;;;;0.9328324999660254;325.2414029999636;None;None;None;[];325.2414029999636;None;"['9', '9', '9', '9']";"[0.4148629999253899, 0.7510460999328643, 1.0710692999418825, 1.3908965999726206]";325.2414029999636;None;;;S11485;2022_May_27_1408;VideoMask;2021.1.2;119.96319540243684;
8.0;f;028_y_f_s_a.jpg;sad;7.0;happy_122.3.wmv;happy;9.0;incongruent;130.0;150.0;171.8670540936116;s_h;;;;;0;20;20;20;;;;;;;328.2414153001737;None;329.89118240005337;330.2079333001748;331.3494001000654;331.3662356999703;333.34118540002964;None;9;0;333.34118540002964;None;;;;;;;;7;;;;;;1.1394376000389457;334.8910915001761;None;None;None;[];334.8910915001761;None;"['9', '9']";"[0.48529349989257753, 1.2773461998440325]";334.8910915001761;None;;;S11485;2022_May_27_1408;VideoMask;2021.1.2;119.96319540243684;
8.0;m;008_y_m_s_a.jpg;sad;7.0;sad_6.5ns.avi;sad;7.0;congruent;130.0;160.0;170.39333839271438;s_s;;;;;0;21;21;21;;;;;;;337.89113250002265;None;339.5241531000938;339.84088320005685;341.0492219000589;341.06593140005134;345.98262670007534;None;7;0;345.98262670007534;None;;;;;;;;4;;;;;;0.6736878000665456;347.53245140006766;None;None;None;[];347.53245140006766;None;['7'];[0.4199414998292923];347.53245140006766;None;;;S11485;2022_May_27_1408;VideoMask;2021.1.2;119.96319540243684;
8.0;f;028_y_f_h_a.jpg;happy;9.0;happy_23.1ns.avi;happy;9.0;congruent;120.0;150.0;225.70986890587952;h_h;;;;;0;22;22;22;;;;;;;350.54074980015866;None;352.62374150007963;352.9404639999848;354.10755730001256;354.13225020002574;358.6487298000138;None;9;0;358.6487298000138;None;;;;;;;;9;;;;;;0.8480228001717478;360.1986742001027;None;None;None;[];360.1986742001027;None;"['9', '9', '9', '9', '9', '9', '9', '9']";"[0.42587070004083216, 0.7856746001634747, 1.1937641000840813, 1.5776132000610232, 1.9056324001867324, 2.249734700191766, 2.569856100017205, 2.945812900085002]";360.1986742001027;None;;;S11485;2022_May_27_1408;VideoMask;2021.1.2;119.96319540243684;
8.0;m;008_y_m_h_a.jpg;happy;9.0;sad_111.1.wmv;sad;7.0;incongruent;120.0;160.0;152.63076835312847;h_s;;;;;0;23;23;23;;;;;;;363.19857290014625;None;364.67339070001617;364.99015720002353;366.13158680009656;366.1484875001479;368.1234722000081;None;7;0;368.1234722000081;None;;;;;;;;4;;;;;;0.8288948000408709;369.77340349997394;None;None;None;[];369.77340349997394;None;"['7', '7']";"[0.4349998999387026, 0.9710258999839425]";369.77340349997394;None;;;S11485;2022_May_27_1408;VideoMask;2021.1.2;119.96319540243684;
0.0;f;040_y_f_s_a.jpg;sad;7.0;sad_67.2ns.avi;sad;7.0;congruent;130.0;160.0;220.9892697323079;s_s;;;;;0;24;24;24;;;;;;;372.7735227001831;None;374.8563471001107;375.173089500051;376.30636580009013;376.3235347000882;385.5313308001496;None;7;0;385.5313308001496;None;;;;;;;;4;;;;;;1.0290911998599768;387.0812163001392;None;None;None;[];387.0812163001392;None;['7'];[0.5593904000706971];387.0812163001392;None;;;S11485;2022_May_27_1408;VideoMask;2021.1.2;119.96319540243684;
8.0;m;008_y_m_s_a.jpg;sad;7.0;happy_29.1ns.avi;happy;9.0;incongruent;130.0;150.0;120.0316142834122;s_h;;;;;0;25;25;25;;;;;;;390.08934770012274;None;391.29754790011793;391.61417090008035;392.7643120000139;392.7822959001642;395.43939350009896;None;9;0;395.43939350009896;None;;;;;;;;6;;;;;;0.9850182000081986;396.9892033999786;None;None;None;[];396.9892033999786;None;['9'];[0.571159599814564];396.9892033999786;None;;;S11485;2022_May_27_1408;VideoMask;2021.1.2;119.96319540243684;
6.0;m;016_y_m_s_a.jpg;sad;7.0;sad_8.3ns.avi;sad;7.0;congruent;130.0;160.0;152.85371098242734;s_s;;;;;0;26;26;26;;;;;;;399.98929230007343;None;401.5140796001069;401.8306275000796;402.98892639996484;403.0057765999809;410.7220227001235;None;8;0;410.7220227001235;None;;;;;;;;5;;;;;;0.886309000197798;412.2720042001456;None;None;None;[];412.2720042001456;None;None;;412.2720042001456;None;;;S11485;2022_May_27_1408;VideoMask;2021.1.2;119.96319540243684;
6.0;m;016_y_m_h_a.jpg;happy;9.0;sad_114.1.wmv;sad;7.0;incongruent;120.0;160.0;136.20550699298644;h_s;;;;;0;27;27;27;;;;;;;415.29696459998377;None;416.63844640017487;416.955129200127;418.0803004000336;418.09690060000867;420.0886405999772;None;8;0;420.0886405999772;None;;;;;;;;5;;;;;;1.0397479999810457;421.6384638999589;None;None;None;[];421.6384638999589;None;None;;421.6384638999589;None;;;S11485;2022_May_27_1408;VideoMask;2021.1.2;119.96319540243684;
7.0;m;027_o_m_s_a.jpg;sad;7.0;happy_117.3.wmv;happy;9.0;incongruent;130.0;150.0;215.61964028550614;s_h;;;;;0;28;28;28;;;;;;;424.65492490003817;None;426.6548336001579;426.97156219999306;428.13816590001807;428.15496270009317;430.10502470005304;None;9;0;430.10502470005304;None;;;;;;;;7;;;;;;0.9993717998731881;431.64650649996474;None;None;None;[];431.64650649996474;None;"['9', '9', '9']";"[0.6902650999836624, 1.1937778000719845, 1.5379554000683129]";431.64650649996474;None;;;S11485;2022_May_27_1408;VideoMask;2021.1.2;119.96319540243684;
6.0;m;016_y_m_h_a.jpg;happy;9.0;happy_9.2ns.avi;happy;9.0;congruent;120.0;150.0;130.52042428082717;h_h;;;;;0;29;29;29;;;;;;;434.646425700048;None;435.97137130005285;436.28790120012127;437.4880220000632;437.5046294000931;443.34616770013236;None;9;0;443.34616770013236;None;;;;;;;;8;;;;;;1.006162199890241;444.88775560003705;None;None;None;[];444.88775560003705;None;"['9', '9', '9']";"[0.4967239999677986, 0.880545899970457, 1.2326340000145137]";444.88775560003705;None;;;S11485;2022_May_27_1408;VideoMask;2021.1.2;119.96319540243684;
0.0;f;040_y_f_s_a.jpg;sad;7.0;happy_127.3.wmv;happy;9.0;incongruent;130.0;150.0;131.7195455720239;s_h;;;;;0;30;30;30;;;;;;;447.8878385000862;None;449.18746570008807;449.5042571001686;450.6293005000334;450.64579870016314;452.71248310012743;None;9;0;452.71248310012743;None;;;;;;;;6;;;;;;1.375904600135982;454.2707956000231;None;None;None;[];454.2707956000231;None;"['9', '9']";"[0.5937355000060052, 1.04970350000076]";454.2707956000231;None;;;S11485;2022_May_27_1408;VideoMask;2021.1.2;119.96319540243684;
0.0;f;030_o_f_s_a.jpg;sad;7.0;happy_125.3.wmv;happy;9.0;incongruent;130.0;150.0;220.51454909128134;s_h;;;;;0;31;31;31;;;;;;;457.2791885000188;None;459.3288080000784;459.64558710018173;460.77890390018;460.79558559996076;462.778837100137;None;None;0;462.778837100137;None;;;;;;;;5;;;;;;;464.32865500007756;None;None;None;[];464.32865500007756;None;None;;464.32865500007756;None;;;S11485;2022_May_27_1408;VideoMask;2021.1.2;119.96319540243684;
0.0;f;030_o_f_s_a.jpg;sad;7.0;sad_64.3ns.avi;sad;7.0;congruent;130.0;160.0;165.78667874766072;s_s;;;;;0;32;32;32;;;;;;;467.34525310015306;None;468.96188560011797;469.27858300018124;470.436992400093;470.4536391000729;475.41185470018536;None;7;0;475.41185470018536;None;;;;;;;;3;;;;;;1.0684710000641644;476.96163440006785;None;None;None;[];476.96163440006785;None;"['7', '7']";"[0.6627416000701487, 1.3910056999884546]";476.96163440006785;None;;;S11485;2022_May_27_1408;VideoMask;2021.1.2;119.96319540243684;
3.0;m;013_y_m_s_a.jpg;sad;7.0;sad_7.7ns.avi;sad;7.0;congruent;130.0;160.0;196.24182255763262;s_s;;;;;0;33;33;33;;;;;;;479.96174670010805;None;481.82814790005796;482.1448513001669;483.2781813000329;483.2948764001485;489.27805149997585;None;7;0;489.27805149997585;None;;;;;;;;2;;;;;;1.074395699892193;490.828004400013;None;None;None;[];490.828004400013;None;"['7', '7', '7']";"[0.46846650005318224, 0.828341200016439, 1.204481900203973]";490.828004400013;None;;;S11485;2022_May_27_1408;VideoMask;2021.1.2;119.96319540243684;
3.0;m;013_y_m_h_a.jpg;happy;9.0;happy_9.1ns.avi;happy;9.0;congruent;120.0;150.0;165.1890303600433;h_h;;;;;0;34;34;34;;;;;;;493.8278891001828;None;495.4279504001606;495.74448340013623;497.0115384000819;497.0281609001104;500.1109929999802;None;9;0;500.1109929999802;None;;;;;;;;7;;;;;;1.185591499786824;501.652686299989;None;None;None;[];501.652686299989;None;"['9', '9']";"[0.7559132999740541, 1.339962099911645]";501.652686299989;None;;;S11485;2022_May_27_1408;VideoMask;2021.1.2;119.96319540243684;
4.0;m;004_o_m_h_a.jpg;happy;9.0;sad_95.1ns.avi;sad;7.0;incongruent;120.0;160.0;152.68270002069931;h_s;;;;;0;35;35;35;;;;;;;504.6609488001559;None;506.21902259998024;506.53574500000104;507.72750929999165;507.74479950009845;516.4607520001009;None;7;0;516.4607520001009;None;;;;;;;;1;;;;;;1.2837110999971628;518.0188549000304;None;None;None;[];518.0188549000304;None;"['7', '7', '7', '7']";"[0.4616166001651436, 0.8295472001191229, 1.237701800186187, 2.2056477000005543]";518.0188549000304;None;;;S11485;2022_May_27_1408;VideoMask;2021.1.2;119.96319540243684;
3.0;m;013_y_m_h_a.jpg;happy;9.0;sad_113.2.wmv;sad;7.0;incongruent;120.0;160.0;217.4973891947951;h_s;;;;;0;36;36;36;;;;;;;521.027124500135;None;523.0601912001148;523.3769419000018;524.5019178001676;524.5184834999964;526.5103082000278;None;8;0;526.5103082000278;None;;;;;;;;5;;;;;;1.0100241000764072;528.0601464000065;None;None;None;[];528.0601464000065;None;None;;528.0601464000065;None;;;S11485;2022_May_27_1408;VideoMask;2021.1.2;119.96319540243684;
4.0;m;004_o_m_h_a.jpg;happy;9.0;happy_25.1ns.avi;happy;9.0;congruent;120.0;150.0;216.63044503818386;h_h;;;;;0;37;37;37;;;;;;;531.0934487001505;None;533.1098281999584;533.4354404001497;534.6265630000271;534.6435183000285;538.2517670001835;None;9;0;538.2517670001835;None;;;;;;;;8;;;;;;1.164673199877143;539.8013729001395;None;None;None;[];539.8013729001395;None;"['9', '9', '9']";"[0.447007899871096, 0.8311750998254865, 1.2310363999567926]";539.8013729001395;None;;;S11485;2022_May_27_1408;VideoMask;2021.1.2;119.96319540243684;
4.0;m;004_o_m_s_a.jpg;sad;7.0;happy_131.2.wmv;happy;9.0;incongruent;130.0;150.0;181.38407540847405;s_h;;;;;0;38;38;38;;;;;;;542.8014871999621;None;544.5262360000052;544.8429348000791;546.0179357000161;546.0346956001595;547.9762238999829;None;9;0;547.9762238999829;None;;;;;;;;7;;;;;;1.168200699845329;549.5262091001496;None;None;None;[];549.5262091001496;None;"['9', '9', '9', '9']";"[0.6022184998728335, 0.9862827998585999, 1.3941933000460267, 1.8261839000042528]";549.5262091001496;None;;;S11485;2022_May_27_1408;VideoMask;2021.1.2;119.96319540243684;
0.0;f;040_y_f_h_a.jpg;happy;9.0;happy_24.3ns.avi;happy;9.0;congruent;120.0;150.0;213.25460698950434;h_h;;;;;0;39;39;39;;;;;;;552.5262540001422;None;554.5259120999835;554.8426240000408;556.0426630000584;556.0592887999956;557.9009351001587;None;9;0;557.9009351001587;None;;;;;;;;9;;;;;;0.8194793998263776;559.4507891000248;None;None;None;[];559.4507891000248;None;"['9', '9', '9', '9', '9']";"[0.5417315999511629, 0.9097753998357803, 1.269566799979657, 1.6698149000294507, 2.0456120998132974]";559.4507891000248;None;;;S11485;2022_May_27_1408;VideoMask;2021.1.2;119.96319540243684;
2.0;f;012_o_f_s_a.jpg;sad;7.0;happy_139.1.wmv;happy;9.0;incongruent;130.0;150.0;162.31500468041804;s_h;;;;;0;40;40;40;;;;;;;562.459734500153;None;564.0338349000085;564.3506621001288;565.4844602001831;565.5090352001134;567.4839352001436;None;9;0;567.4839352001436;None;;;;;;;;6;;;;;;1.04451739997603;569.0338421000633;None;None;None;[];569.0338421000633;None;['9'];[0.4388652998022735];569.0338421000633;None;;;S11485;2022_May_27_1408;VideoMask;2021.1.2;119.96319540243684;
0.0;f;030_o_f_h_a.jpg;happy;9.0;happy_24.1ns.avi;happy;9.0;congruent;120.0;150.0;168.36256624020774;h_h;;;;;0;41;41;41;;;;;;;572.0339405999985;None;573.6586448999587;573.9753972000908;575.1087862001732;575.1254696999677;578.4337614001706;None;9;0;578.4337614001706;None;;;;;;;;9;;;;;;0.8866991999093443;579.9836004001554;None;None;None;[];579.9836004001554;None;"['9', '9', '9', '9', '9']";"[0.5850774000864476, 1.0089267999865115, 1.4248628001660109, 1.8169215000234544, 2.2408609001431614]";579.9836004001554;None;;;S11485;2022_May_27_1408;VideoMask;2021.1.2;119.96319540243684;
2.0;f;012_o_f_h_a.jpg;happy;9.0;sad_113.1.wmv;sad;7.0;incongruent;120.0;160.0;177.44551734737394;h_s;;;;;0;42;42;42;;;;;;;582.9835080001503;None;584.6833236000966;584.9999945999589;586.1415520000737;586.1667375001125;588.1333058001474;None;7;0;588.1333058001474;None;;;;;;;;4;;;;;;1.0911888000555336;589.6833107001148;None;None;None;[];589.6833107001148;None;['7'];[0.6371038001962006];589.6833107001148;None;;;S11485;2022_May_27_1408;VideoMask;2021.1.2;119.96319540243684;
3.0;m;033_o_m_s_a.jpg;sad;7.0;sad_64.5ns.avi;sad;7.0;congruent;130.0;160.0;130.55717223801247;s_s;;;;;0;43;43;43;;;;;;;592.683322600089;None;594.0165447001345;594.3330819001421;595.5164887001738;595.5331497001462;602.0497195001226;None;7;0;602.0497195001226;None;;;;;;;;3;;;;;;1.4228139000479132;603.5995499000419;None;None;None;[];603.5995499000419;None;"['7', '7', '7']";"[0.752885099966079, 1.2328774000052363, 1.681186500005424]";603.5995499000419;None;;;S11485;2022_May_27_1408;VideoMask;2021.1.2;119.96319540243684;
7.0;m;027_o_m_h_a.jpg;happy;9.0;sad_117.1.wmv;sad;7.0;incongruent;120.0;160.0;181.28665202824095;h_s;;;;;0;44;44;44;;;;;;;606.6077950000763;None;608.3492554000113;608.6658767000772;609.7997310999781;609.8243521000259;611.8076645999681;None;None;0;611.8076645999681;None;;;;;;;;5;;;;;;;613.34902900015;None;None;None;[];613.34902900015;None;None;;613.34902900015;None;;;S11485;2022_May_27_1408;VideoMask;2021.1.2;119.96319540243684;
3.0;m;033_o_m_s_a.jpg;sad;7.0;happy_126.3.wmv;happy;9.0;incongruent;130.0;150.0;198.85252030535366;s_h;;;;;0;45;45;45;;;;;;;616.3822544000577;None;618.2489954000339;618.5656686001457;619.6987989000045;619.715690900106;621.7073445001151;None;9;0;621.7073445001151;None;;;;;;;;7;;;;;;1.0050945999100804;623.257156800013;None;None;None;[];623.257156800013;None;"['9', '9']";"[0.5756379999220371, 0.9834928999189287]";623.257156800013;None;;;S11485;2022_May_27_1408;VideoMask;2021.1.2;119.96319540243684;
3.0;m;033_o_m_h_a.jpg;happy;9.0;sad_136.1.wmv;sad;7.0;incongruent;120.0;160.0;176.97002883463455;h_s;;;;;0;46;46;46;;;;;;;626.2656110001262;None;627.9402909001801;628.2569460000377;629.3820627999958;629.3985813001636;631.3903185999952;None;7;0;631.3903185999952;None;;;;;;;;3;;;;;;1.0262065001297742;632.9402896000538;None;None;None;[];632.9402896000538;None;"['7', '7', '7', '7']";"[0.43615439999848604, 1.020257200114429, 2.116120600141585, 2.524176800157875]";632.9402896000538;None;;;S11485;2022_May_27_1408;VideoMask;2021.1.2;119.96319540243684;
9.0;f;019_m_f_h_a.jpg;happy;9.0;happy_10.1ns.avi;happy;9.0;congruent;120.0;150.0;157.2463435658512;h_h;;;;;0;47;47;47;;;;;;;635.9401832001749;None;637.4985064000357;637.8149978001602;638.9651522999629;638.9816686999984;646.3899964999873;None;9;0;646.3899964999873;None;;;;;;;;7;;;;;;0.8265688999090344;647.9314968001563;None;None;None;[];647.9314968001563;None;"['9', '9']";"[0.5731534000951797, 0.9411514000967145]";647.9314968001563;None;;;S11485;2022_May_27_1408;VideoMask;2021.1.2;119.96319540243684;
2.0;f;012_o_f_h_a.jpg;happy;9.0;happy_2.2ns.avi;happy;9.0;congruent;120.0;150.0;206.34800317295262;h_h;;;;;0;48;48;48;;;;;;;650.9315492000896;None;652.9062159999739;653.2228274999652;654.3479935000651;654.3646423001774;666.5561216000933;None;9;0;666.5561216000933;None;;;;;;;;8;;;;;;1.044329399941489;668.1142190999817;None;None;None;[];668.1142190999817;None;"['9', '9', '9']";"[0.6303084997925907, 1.0063072999473661, 1.438229599967599]";668.1142190999817;None;;;S11485;2022_May_27_1408;VideoMask;2021.1.2;119.96319540243684;
3.0;m;033_o_m_h_a.jpg;happy;9.0;happy_24.2ns.avi;happy;9.0;congruent;120.0;150.0;167.9423847659953;h_h;;;;;0;49;49;49;;;;;;;671.1225570000242;None;672.7389253000729;673.0556610000785;674.2224089000374;674.2390095000155;677.9305622000247;None;9;0;677.9305622000247;None;;;;;;;;8;;;;;;1.285965799819678;679.4805642000865;None;None;None;[];679.4805642000865;None;"['9', '9', '9', '9', '9']";"[0.45587639999575913, 0.799972599837929, 1.1279694999102503, 1.5678879998158664, 2.0321197998709977]";679.4805642000865;None;;;S11485;2022_May_27_1408;VideoMask;2021.1.2;119.96319540243684;
1.0;f;021_o_f_s_a.jpg;sad;7.0;happy_61.2ns.avi;happy;9.0;incongruent;130.0;150.0;210.94664004826666;s_h;;;;;0;50;50;50;;;;;;;682.4891063000541;None;684.4804080000613;684.7970241999719;685.9384320001118;685.9553045001812;690.4552468000911;None;9;0;690.4552468000911;None;;;;;;;;7;;;;;;0.8652669999282807;692.0051808001008;None;None;None;[];692.0051808001008;None;"['9', '9']";"[0.555316099897027, 0.9713427000679076]";692.0051808001008;None;;;S11485;2022_May_27_1408;VideoMask;2021.1.2;119.96319540243684;
4.0;m;004_o_m_s_a.jpg;sad;7.0;sad_2.4ns.avi;sad;7.0;congruent;130.0;160.0;153.02079367163634;s_s;;;;;0;51;51;51;;;;;;;695.013570100069;None;696.5132198000792;696.8298969999887;698.0300001001451;698.0466513000429;705.9216126000974;None;8;0;705.9216126000974;None;;;;;;;;5;;;;;;1.4868986001238227;707.4795413000975;None;None;None;[];707.4795413000975;None;None;;707.4795413000975;None;;;S11485;2022_May_27_1408;VideoMask;2021.1.2;119.96319540243684;
8.0;m;008_y_m_h_a.jpg;happy;9.0;happy_1.2ns.avi;happy;9.0;congruent;120.0;150.0;210.98946429383824;h_h;;;;;0;52;52;52;;;;;;;710.5045994999819;None;712.5543106000405;712.8711002999917;714.0301123000681;714.0467545001302;726.7957223001868;None;9;0;726.7957223001868;None;;;;;;;;7;;;;;;1.0448589001316577;728.3457027000841;None;None;None;[];728.3457027000841;None;"['9', '9', '9']";"[1.390918499790132, 1.7027741000056267, 2.134998800000176]";728.3457027000841;None;;;S11485;2022_May_27_1408;VideoMask;2021.1.2;119.96319540243684;
2.0;f;012_o_f_s_a.jpg;sad;7.0;happy_52.2ns.avi;happy;9.0;incongruent;130.0;150.0;172.57202848318138;s_h;;;;;0;53;53;53;;;;;;;731.3540358999744;None;733.0037587000988;733.3204638001043;734.4792381001171;734.4957996001467;738.012116300175;None;None;0;738.012116300175;None;;;;;;;;6;;;;;;;739.5619510000106;None;None;None;[];739.5619510000106;None;['9'];[0.28663280000910163];739.5619510000106;None;;;S11485;2022_May_27_1408;VideoMask;2021.1.2;119.96319540243684;
9.0;f;019_m_f_s_a.jpg;sad;7.0;happy_61.1ns.avi;happy;9.0;incongruent;130.0;150.0;181.3003220572762;s_h;;;;;0;54;54;54;;;;;;;742.561998500023;None;744.3284702000674;744.6451048001181;745.811759600183;745.8284787000157;753.1702348000836;None;8;0;753.1702348000836;None;;;;;;;;5;;;;;;0.6702906000427902;754.7282204001676;None;None;None;[];754.7282204001676;None;None;;754.7282204001676;None;;;S11485;2022_May_27_1408;VideoMask;2021.1.2;119.96319540243684;
0.0;f;030_o_f_h_a.jpg;happy;9.0;sad_133.1.wmv;sad;7.0;incongruent;120.0;160.0;198.86251500867985;h_s;;;;;0;55;55;55;;;;;;;757.7615587001201;None;759.6363425001036;759.9530734999571;761.0781060000882;761.0947223000694;763.0863262000494;None;7;0;763.0863262000494;None;;;;;;;;3;;;;;;0.5461732000112534;764.6779098999687;None;None;None;[];764.6779098999687;None;"['7', '7']";"[0.4268164997920394, 0.7945702997967601]";764.6779098999687;None;;;S11485;2022_May_27_1408;VideoMask;2021.1.2;119.96319540243684;
0.0;f;040_y_f_h_a.jpg;happy;9.0;sad_128.2.wmv;sad;7.0;incongruent;120.0;160.0;206.10005857915363;h_s;;;;;0;56;56;56;;;;;;;767.6778345999774;None;769.6026318001095;769.919336900115;771.0610128999688;771.0777211000677;773.0526705000084;None;7;0;773.0526705000084;None;;;;;;;;3;;;;;;0.6922159001696855;774.660936600063;None;None;None;[];774.660936600063;None;"['7', '7']";"[0.579642100026831, 1.5317265999037772]";774.660936600063;None;;;S11485;2022_May_27_1408;VideoMask;2021.1.2;119.96319540243684;
1.0;f;021_o_f_s_a.jpg;sad;7.0;sad_9.5ns.avi;sad;7.0;congruent;130.0;160.0;206.16642757875042;s_s;;;;;0;57;57;57;;;;;;;777.6693456000648;None;779.6022340999916;779.9189625000581;781.0938820000738;781.1189044001512;786.7772270999849;None;7;0;786.7772270999849;None;;;;;;;;1;;;;;;0.6313396999612451;788.3271848000586;None;None;None;[];788.3271848000586;None;"['7', '7', '7', '7', '7']";"[0.4098099998664111, 0.777304399991408, 1.161448499886319, 1.5533223999664187, 1.9055669999215752]";788.3271848000586;None;;;S11485;2022_May_27_1408;VideoMask;2021.1.2;119.96319540243684;
1.0;f;021_o_f_h_a.jpg;happy;9.0;happy_12.1ns.avi;happy;9.0;congruent;120.0;150.0;132.59080005900228;h_h;;;;;0;58;58;58;;;;;;;791.3353892001323;None;792.6853269999847;793.0019196001813;794.1267866999842;794.1436640000902;801.7517650001682;None;None;0;801.7517650001682;None;;;;;;;;6;;;;;;;803.3016614001244;None;None;None;[];803.3016614001244;None;['9'];[0.0028086998499929905];803.3016614001244;None;;;S11485;2022_May_27_1408;VideoMask;2021.1.2;119.96319540243684;
3.0;m;013_y_m_s_a.jpg;sad;7.0;happy_56.2ns.avi;happy;9.0;incongruent;130.0;150.0;163.39234110935848;s_h;;;;;0;59;59;59;;;;;;;806.3099838001654;None;807.9014369000215;808.2181494000833;809.3681928000879;809.3848493001424;814.3765224001836;None;9;0;814.3765224001836;None;;;;;;;;6;;;;;;0.8880253999959677;815.9263436000329;None;None;None;[];815.9263436000329;None;['9'];[0.45821060007438064];815.9263436000329;None;;;S11485;2022_May_27_1408;VideoMask;2021.1.2;119.96319540243684;
;;;;;;;;;;;;;;;;;;;;;;;;;;;;;;;;;;;;;;;;;;;;;;;;;;;;;;;;;;;;;;;;818.9263305000495;None;;;;;;
