primePerson;primeGender;prime;primeEmotion;corrAnsPrime;target;targetEmotion;corrAnsTar;Cond;ID_Primer;ID_Target;JitterTime;Condition;example.thisRepN;example.thisTrialN;example.thisN;example.thisIndex;study.thisRepN;study.thisTrialN;study.thisN;study.thisIndex;MR_trigger_time;MR_trigger_number;text_intro.started;text_intro.stopped;text_probe.started;text_probe.stopped;polygon_ISI.started;polygon_ISI.stopped;polygon.started;polygon.stopped;primerImage.started;primerImage.stopped;response.started;response.stopped;key_resp.keys;key_resp.corr;key_resp.rt;key_resp.started;key_resp.stopped;slider_Text.started;slider_Text.stopped;slider_ex.response;slider_ex.rt;slider_ex.history;slider_ex.started;slider_ex.stopped;Rating;slider_resp_response.keys;slider_resp_response.rt;slider_resp_response.started;slider_resp_response.stopped;text_start.started;text_start.stopped;text_slider.started;text_slider.stopped;slider_stud.response;slider_stud.rt;slider_stud.history;slider_stud.started;slider_stud.stopped;slider_resp_study.keys;slider_resp_study.rt;slider_resp_study.started;slider_resp_study.stopped;text_ende.started;text_ende.stopped;participant;date;expName;psychopyVersion;frameRate;
1111;m;1111_m_m_h_a.jpg;happy;9;example_30.4ns.avi;neutral;7;incongruent;120.0;170.0;189.5874364012288;;0;0;0;0;;;;;47.37596550001763;1;47.45343059999868;49.453653199831024;49.453653199831024;None;51.470238300040364;None;53.678340199869126;53.99505149992183;55.12005040002987;55.13673059991561;59.47008979995735;None;9;0;1.229980800068006;59.47008979995735;None;61.028409499907866;None;None;None;[];61.028409499907866;None;9;"['9', '9', '9', '9']";"[1.319840099895373, 1.5914012000430375, 1.8557239000219852, 2.5998800999950618]";61.028409499907866;None;;;;;;;;;;;;;;;;S10883;2021_Sep_08_1631;VideoMask;2021.1.2;120.11434861193517;
1113;f;1113_y_f_s_a.jpg;sad;7;example_30.3ns.avi;neutral;7;incongruent;130.0;170.0;229.02432995836998;;0;1;1;1;;;;;;;;;;;64.01976199983619;None;66.14479419984855;66.46137709985487;67.59473400004208;67.6113505999092;69.59459279989824;None;9;0;0.6575400000438094;69.59459279989824;None;71.1695921998471;None;None;None;[];71.1695921998471;None;9;"['9', '9', '9', '9', '9', '9']";"[0.7546902999747545, 0.9943375999573618, 1.2505689000245184, 1.7946063000708818, 2.4107119000982493, 2.850726299919188]";71.1695921998471;None;;;;;;;;;;;;;;;;S10883;2021_Sep_08_1631;VideoMask;2021.1.2;120.11434861193517;
9.0;f;019_m_f_h_a.jpg;happy;9.0;sad_115.1.wmv;sad;7.0;incongruent;120.0;160.0;128.09063432376465;h_s;;;;;0;0;0;0;;;;;;;75.20275279995985;None;76.47767259995453;76.79444810003042;77.92756709991954;77.94442359986715;79.93606560002081;None;7;0;1.0440354999154806;79.93606560002081;None;;;;;;;;1;;;;;74.16957070003264;None;81.48586919996887;None;None;None;[];81.48586919996887;None;"['7', '7', '7', '7']";"[0.1824967002030462, 0.8304460002109408, 1.5346868000924587, 1.9582027001306415]";81.48586919996887;None;;;S10883;2021_Sep_08_1631;VideoMask;2021.1.2;120.11434861193517;
3.0;m;033_o_m_s_a.jpg;sad;7.0;sad_94.2ns.avi;sad;7.0;congruent;130.0;160.0;182.29120173647655;s_s;;;;;0;1;1;1;;;;;;;84.49454790004529;None;86.21068200003356;86.52746320003644;87.66114069987088;87.6858777999878;90.35239030001685;None;8;0;0.8757168999873102;90.35239030001685;None;;;;;;;;4;;;;;;;91.90233329986222;None;None;None;[];91.90233329986222;None;"['9', '7']";"[0.6937241000123322, 2.205955999903381]";91.90233329986222;None;;;S10883;2021_Sep_08_1631;VideoMask;2021.1.2;120.11434861193517;
8.0;m;008_y_m_h_a.jpg;happy;9.0;happy_26.1ns.avi;happy;9.0;congruent;120.0;150.0;155.9437854594882;h_h;;;;;0;2;2;2;;;;;;;94.9023263999261;None;96.39373839995824;96.71045709983446;97.87708140001632;97.89381999988109;99.83550299983472;None;9;0;0.46477889991365373;99.83550299983472;None;;;;;;;;9;;;;;;;101.38543999986723;None;None;None;[];101.38543999986723;None;"['9', '9', '9', '9']";"[0.6027835998684168, 0.9147369000129402, 1.1550825000740588, 1.7228041999042034]";101.38543999986723;None;;;S10883;2021_Sep_08_1631;VideoMask;2021.1.2;120.11434861193517;
0.0;f;040_y_f_h_a.jpg;happy;9.0;sad_138.1.wmv;sad;7.0;incongruent;120.0;160.0;133.99071306426532;h_s;;;;;0;3;3;3;;;;;;;104.39364849985577;None;105.71897269994952;106.0351121998392;107.16031319997273;107.1768062999472;109.16859430004843;None;7;0;0.8276210001204163;109.16859430004843;None;;;;;;;;3;;;;;;;110.71845389995724;None;None;None;[];110.71845389995724;None;"['7', '7']";"[0.5180228999815881, 0.8294838001020253]";110.71845389995724;None;;;S10883;2021_Sep_08_1631;VideoMask;2021.1.2;120.11434861193517;
8.0;f;028_y_f_s_a.jpg;sad;7.0;sad_64.2ns.avi;sad;7.0;congruent;130.0;160.0;229.88540597086478;s_s;;;;;0;4;4;4;;;;;;;113.72670100000687;None;115.8848147999961;116.20170539990067;117.3349780999124;117.35257029999048;128.33471039985307;None;7;0;0.6775138000957668;128.33471039985307;None;;;;;;;;1;;;;;;;129.88455069996417;None;None;None;[];129.88455069996417;None;"['7', '7', '7', '7']";"[0.1515179998241365, 0.8556544999592006, 1.2958052998874336, 1.6553823999129236]";129.88455069996417;None;;;S10883;2021_Sep_08_1631;VideoMask;2021.1.2;120.11434861193517;
7.0;m;027_o_m_s_a.jpg;sad;7.0;sad_10.4ns.avi;sad;7.0;congruent;130.0;160.0;185.20129417468752;s_s;;;;;0;5;5;5;;;;;;;132.89292859984562;None;134.64262579986826;134.95926369982772;136.1012277000118;136.1177735000383;139.2760532000102;None;8;0;1.1760217000264674;139.2760532000102;None;;;;;;;;4;;;;;;;140.825863200007;None;None;None;[];140.825863200007;None;['7'];[1.4184075000230223];140.825863200007;None;;;S10883;2021_Sep_08_1631;VideoMask;2021.1.2;120.11434861193517;
2.0;f;012_o_f_s_a.jpg;sad;7.0;sad_7.5ns.avi;sad;7.0;congruent;130.0;160.0;220.27842655424388;s_s;;;;;0;6;6;6;;;;;;;143.8259741999209;None;145.85893819993362;146.17573729995638;147.32575099985115;147.34239199990407;150.10091709997505;None;7;0;0.5915911998599768;150.10091709997505;None;;;;;;;;1;;;;;;;151.70060039986856;None;None;None;[];151.70060039986856;None;"['7', '7', '7', '7', '7']";"[0.3597243002150208, 0.6239928000140935, 0.8074158001691103, 1.0073463001754135, 1.2393565000966191]";151.70060039986856;None;;;S10883;2021_Sep_08_1631;VideoMask;2021.1.2;120.11434861193517;
2.0;f;012_o_f_h_a.jpg;happy;9.0;happy_27.1ns.avi;happy;9.0;congruent;120.0;150.0;146.44967055810616;h_h;;;;;0;7;7;7;;;;;;;154.70061109983362;None;156.116982499836;156.43378299986944;157.56712169991806;157.58375009987503;160.05873980000615;None;9;0;1.1133775000926107;160.05873980000615;None;;;;;;;;9;;;;;;;161.60846020001918;None;None;None;[];161.60846020001918;None;"['9', '9', '9', '9', '9', '9']";"[0.4037156000267714, 0.6758631998673081, 0.955507299862802, 1.2117016999982297, 1.5080782000441104, 1.899621499935165]";161.60846020001918;None;;;S10883;2021_Sep_08_1631;VideoMask;2021.1.2;120.11434861193517;
8.0;f;028_y_f_h_a.jpg;happy;9.0;sad_119.1.wmv;sad;7.0;incongruent;120.0;160.0;148.71526953572538;h_s;;;;;0;8;8;8;;;;;;;164.60866849985905;None;166.05836699996144;166.37512360000983;167.51683650002815;167.53348780004308;169.5752344999928;None;None;0;;169.5752344999928;None;;;;;;;;1;;;;;;;171.1248365000356;None;None;None;[];171.1248365000356;None;"['7', '7', '7', '7', '7']";"[0.19945539999753237, 0.5676794999744743, 1.0315208998508751, 1.327422099886462, 2.2633112999610603]";171.1248365000356;None;;;S10883;2021_Sep_08_1631;VideoMask;2021.1.2;120.11434861193517;
6.0;m;016_y_m_s_a.jpg;sad;7.0;happy_60.4ns.avi;happy;9.0;incongruent;130.0;150.0;126.02367393611817;s_h;;;;;0;9;9;9;;;;;;;174.12493329984136;None;175.39148489991203;175.70820449991152;176.8666526998859;176.8829782998655;182.6331298998557;None;9;0;1.3869310999289155;182.6331298998557;None;;;;;;;;8;;;;;;;184.1829905998893;None;None;None;[];184.1829905998893;None;"['9', '9', '9']";"[0.5252611001487821, 1.0450632001738995, 1.3410302000120282]";184.1829905998893;None;;;S10883;2021_Sep_08_1631;VideoMask;2021.1.2;120.11434861193517;
9.0;f;019_m_f_s_a.jpg;sad;7.0;sad_8.4ns.avi;sad;7.0;congruent;130.0;160.0;171.6633093155257;s_s;;;;;0;10;10;10;;;;;;;187.1830190999899;None;188.8577074999921;189.17441600002348;190.33282290003262;190.34942479990423;198.44083929993212;None;8;0;1.1475255999248475;198.44083929993212;None;;;;;;;;5;;;;;;;200.01582910004072;None;None;None;[];200.01582910004072;None;"['9', '7']";"[0.8762721999082714, 1.7246595998294652]";200.01582910004072;None;;;S10883;2021_Sep_08_1631;VideoMask;2021.1.2;120.11434861193517;
4.0;m;004_o_m_h_a.jpg;happy;9.0;happy_1.1ns.avi;happy;9.0;congruent;120.0;150.0;203.50057144619865;h_h;;;;;0;11;11;11;;;;;;;203.01591479987837;None;204.9821754998993;205.2989876999054;206.49068199982867;206.50730139994994;220.9153707998339;None;8;0;0.8327031000517309;220.9153707998339;None;;;;;;;;4;;;;;;;222.5401049000211;None;None;None;[];222.5401049000211;None;['7'];[1.5679440000094473];222.5401049000211;None;;;S10883;2021_Sep_08_1631;VideoMask;2021.1.2;120.11434861193517;
7.0;m;027_o_m_h_a.jpg;happy;9.0;happy_20.1ns.avi;happy;9.0;congruent;120.0;150.0;152.91127178874285;h_h;;;;;0;12;12;12;;;;;;;225.54006549995393;None;227.0232195998542;227.34015750000253;228.45709889987484;228.47372929984704;231.4900454999879;None;8;0;1.458458799868822;231.4900454999879;None;;;;;;;;9;;;;;;;233.0648825999815;None;None;None;[];233.0648825999815;None;"['9', '9', '9', '9']";"[0.43519980018027127, 0.7313071000389755, 0.9792958002071828, 1.2834822000004351]";233.0648825999815;None;;;S10883;2021_Sep_08_1631;VideoMask;2021.1.2;120.11434861193517;
0.0;f;040_y_f_s_a.jpg;sad;7.0;sad_94.3ns.avi;sad;7.0;congruent;130.0;160.0;155.27414203894395;s_s;;;;;0;13;13;13;;;;;;;236.0649557998404;None;237.58145429985598;237.89800429996103;239.10666569997557;239.1314000999555;241.65635219984688;None;8;0;0.9397670000325888;241.65635219984688;None;;;;;;;;6;;;;;;;243.2312316999305;None;None;None;[];243.2312316999305;None;['9'];[1.5971739999949932];243.2312316999305;None;;;S10883;2021_Sep_08_1631;VideoMask;2021.1.2;120.11434861193517;
0.0;f;030_o_f_s_a.jpg;sad;7.0;sad_68.1ns.avi;sad;7.0;congruent;130.0;160.0;158.9411396037211;s_s;;;;;0;14;14;14;;;;;;;246.23954219999723;None;247.7892709998414;248.1060422998853;249.28117139986716;249.29772170004435;256.66427369997837;None;7;0;0.4440389999654144;256.66427369997837;None;;;;;;;;1;;;;;;;258.2391121999826;None;None;None;[];258.2391121999826;None;"['7', '7', '7', '7']";"[0.5173669999931008, 0.8292600000277162, 1.0370748999994248, 1.3649766000453383]";258.2391121999826;None;;;S10883;2021_Sep_08_1631;VideoMask;2021.1.2;120.11434861193517;
0.0;f;030_o_f_h_a.jpg;happy;9.0;sad_127.1.wmv;sad;7.0;incongruent;120.0;160.0;180.59976631384873;h_s;;;;;0;15;15;15;;;;;;;261.23914389987476;None;262.9555352998432;263.27224570000544;264.4055347000249;264.4221665998921;266.4058085998986;None;None;0;;266.4058085998986;None;;;;;;;;5;;;;;;;267.9471326000057;None;None;None;[];267.9471326000057;None;"['7', '9']";"[1.3212702998425812, 2.681029099971056]";267.9471326000057;None;;;S10883;2021_Sep_08_1631;VideoMask;2021.1.2;120.11434861193517;
8.0;m;008_y_m_s_a.jpg;sad;7.0;happy_133.3.wmv;happy;9.0;incongruent;130.0;150.0;152.577966552593;s_h;;;;;0;16;16;16;;;;;;;270.9554379999172;None;272.43847569986247;272.7553741999436;273.88865910004824;273.9053368999157;275.88872819999233;None;9;0;0.8837145001161844;275.88872819999233;None;;;;;;;;6;;;;;;;277.4552404000424;None;None;None;[];277.4552404000424;None;['9'];[2.124969100113958];277.4552404000424;None;;;S10883;2021_Sep_08_1631;VideoMask;2021.1.2;120.11434861193517;
3.0;m;033_o_m_h_a.jpg;happy;9.0;sad_128.1.wmv;sad;7.0;incongruent;120.0;160.0;171.0492454518585;h_s;;;;;0;17;17;17;;;;;;;280.45528390002437;None;282.0966351998504;282.4134044998791;283.57999899983406;283.5967679999303;285.55503119993955;None;7;0;0.5932084999512881;285.55503119993955;None;;;;;;;;2;;;;;;;287.1549608998466;None;None;None;[];287.1549608998466;None;"['7', '7', '7']";"[0.7933704000897706, 1.1372362000402063, 1.3450060000177473]";287.1549608998466;None;;;S10883;2021_Sep_08_1631;VideoMask;2021.1.2;120.11434861193517;
1.0;f;021_o_f_h_a.jpg;happy;9.0;sad_116.1.wmv;sad;7.0;incongruent;120.0;160.0;184.06847610053055;h_s;;;;;0;18;18;18;;;;;;;290.15502249985;None;291.90471609984525;292.2216413000133;293.3547846998554;293.3714035998564;295.3549118998926;None;7;0;0.7452929001301527;295.3549118998926;None;;;;;;;;4;;;;;;;297.07965760002844;None;None;None;[];297.07965760002844;None;"['9', '9', '7', '7']";"[0.86860779998824, 1.3646690000314265, 2.348477500025183, 2.812673599924892]";297.07965760002844;None;;;S10883;2021_Sep_08_1631;VideoMask;2021.1.2;120.11434861193517;
4.0;m;004_o_m_s_a.jpg;sad;7.0;happy_28.1ns.avi;happy;9.0;incongruent;130.0;150.0;157.40741103039684;s_h;;;;;0;19;19;19;;;;;;;300.0797740998678;None;301.61291549983434;301.9296058998443;303.0625999998301;303.079305900028;307.45437549985945;None;8;0;1.1176571000833064;307.45437549985945;None;;;;;;;;4;;;;;;;309.0043476000428;None;None;None;[];309.0043476000428;None;['7'];[2.98415289982222];309.0043476000428;None;;;S10883;2021_Sep_08_1631;VideoMask;2021.1.2;120.11434861193517;
8.0;f;028_y_f_s_a.jpg;sad;7.0;happy_122.3.wmv;happy;9.0;incongruent;130.0;150.0;171.8670540936116;s_h;;;;;0;20;20;20;;;;;;;312.02926340000704;None;313.6707111999858;313.9874676000327;315.1212181998417;315.1457988000475;317.121219499968;None;9;0;0.6190373999997973;317.121219499968;None;;;;;;;;9;;;;;;;318.6957035998348;None;None;None;[];318.6957035998348;None;"['9', '9', '9', '9']";"[0.2926663998514414, 0.5164343998767436, 0.7084115999750793, 0.9563161998521537]";318.6957035998348;None;;;S10883;2021_Sep_08_1631;VideoMask;2021.1.2;120.11434861193517;
8.0;m;008_y_m_s_a.jpg;sad;7.0;sad_6.5ns.avi;sad;7.0;congruent;130.0;160.0;170.39333839271438;s_s;;;;;0;21;21;21;;;;;;;321.69577959994785;None;323.3287165998481;323.6455282999668;324.78748099994846;324.81217309995554;329.77883249986917;None;9;0;0.6014702999964356;329.77883249986917;None;;;;;;;;1;;;;;;;331.37034449982457;None;None;None;[];331.37034449982457;None;"['7', '7', '7', '7', '7', '7']";"[0.38606499996967614, 0.6178561998531222, 0.7777311999816447, 0.9537492999807, 1.145772699965164, 1.562027100007981]";331.37034449982457;None;;;S10883;2021_Sep_08_1631;VideoMask;2021.1.2;120.11434861193517;
8.0;f;028_y_f_h_a.jpg;happy;9.0;happy_23.1ns.avi;happy;9.0;congruent;120.0;150.0;225.70986890587952;h_h;;;;;0;22;22;22;;;;;;;334.378703400027;None;336.478607499972;336.7949929998722;337.9783127999399;337.995157700032;342.50343799986877;None;8;0;0.6766661999281496;342.50343799986877;None;;;;;;;;7;;;;;;;344.10328599996865;None;None;None;[];344.10328599996865;None;"['9', '9']";"[0.3010002998635173, 0.5726595998276025]";344.10328599996865;None;;;S10883;2021_Sep_08_1631;VideoMask;2021.1.2;120.11434861193517;
8.0;m;008_y_m_h_a.jpg;happy;9.0;sad_111.1.wmv;sad;7.0;incongruent;120.0;160.0;152.63076835312847;h_s;;;;;0;23;23;23;;;;;;;347.10338169988245;None;348.5947344999295;348.91135579999536;350.04482239997014;350.0615270000417;352.0448064999655;None;8;0;1.0395647000987083;352.0448064999655;None;;;;;;;;6;;;;;;;353.5946734000463;None;None;None;[];353.5946734000463;None;['9'];[2.6816378999501467];353.5946734000463;None;;;S10883;2021_Sep_08_1631;VideoMask;2021.1.2;120.11434861193517;
0.0;f;040_y_f_s_a.jpg;sad;7.0;sad_67.2ns.avi;sad;7.0;congruent;130.0;160.0;220.9892697323079;s_s;;;;;0;24;24;24;;;;;;;356.5945927000139;None;358.6610677000135;358.9778650999069;360.12776039983146;360.14448659983464;369.33599219983444;None;7;0;1.244324899977073;369.33599219983444;None;;;;;;;;1;;;;;;;370.8858425000217;None;None;None;[];370.8858425000217;None;"['7', '7', '7', '7']";"[0.56635079998523, 0.7744510001502931, 0.9584161001257598, 1.1423792000859976]";370.8858425000217;None;;;S10883;2021_Sep_08_1631;VideoMask;2021.1.2;120.11434861193517;
8.0;m;008_y_m_s_a.jpg;sad;7.0;happy_29.1ns.avi;happy;9.0;incongruent;130.0;150.0;120.0316142834122;s_h;;;;;0;25;25;25;;;;;;;373.8858862000052;None;375.0938684998546;375.4106268999167;376.58574280003086;376.60233689984307;379.23586119990796;None;8;0;0.9204719001427293;379.23586119990796;None;;;;;;;;6;;;;;;;380.8104552999139;None;None;None;[];380.8104552999139;None;"['9', '9']";"[0.32201929995790124, 0.5538080001715571]";380.8104552999139;None;;;S10883;2021_Sep_08_1631;VideoMask;2021.1.2;120.11434861193517;
6.0;m;016_y_m_s_a.jpg;sad;7.0;sad_8.3ns.avi;sad;7.0;congruent;130.0;160.0;152.85371098242734;s_s;;;;;0;26;26;26;;;;;;;383.8104790998623;None;385.30194639996625;385.61876019998454;386.7684038998559;386.78546729986556;394.510257499991;None;8;0;0.7899034000001848;394.510257499991;None;;;;;;;;5;;;;;;;396.0601103999652;None;None;None;[];396.0601103999652;None;"['7', '9']";"[1.5122804997954518, 2.192221899982542]";396.0601103999652;None;;;S10883;2021_Sep_08_1631;VideoMask;2021.1.2;120.11434861193517;
6.0;m;016_y_m_h_a.jpg;happy;9.0;sad_114.1.wmv;sad;7.0;incongruent;120.0;160.0;136.20550699298644;h_s;;;;;0;27;27;27;;;;;;;399.0683879998978;None;400.4097049999982;400.7266620998271;401.8517249999568;401.868278299924;403.85987060004845;None;None;0;;403.85987060004845;None;;;;;;;;7;;;;;;;405.4098135000095;None;None;None;[];405.4098135000095;None;"['9', '9']";"[0.6665225999895483, 1.1304631000384688]";405.4098135000095;None;;;S10883;2021_Sep_08_1631;VideoMask;2021.1.2;120.11434861193517;
7.0;m;027_o_m_s_a.jpg;sad;7.0;happy_117.3.wmv;happy;9.0;incongruent;130.0;150.0;215.61964028550614;s_h;;;;;0;28;28;28;;;;;;;408.4180618999526;None;410.42620099987835;410.7429296998307;411.86794909997843;411.8845760000404;413.8763806000352;None;8;0;0.7839524999726564;413.8763806000352;None;;;;;;;;4;;;;;;;415.45126329991035;None;None;None;[];415.45126329991035;None;"['9', '7']";"[0.7530853999778628, 2.0970989000052214]";415.45126329991035;None;;;S10883;2021_Sep_08_1631;VideoMask;2021.1.2;120.11434861193517;
6.0;m;016_y_m_h_a.jpg;happy;9.0;happy_9.2ns.avi;happy;9.0;congruent;120.0;150.0;130.52042428082717;h_h;;;;;0;29;29;29;;;;;;;418.4594095000066;None;419.75924639985897;420.07609699992463;421.2093555999454;421.226033099927;427.1343808998354;None;8;0;0.5818135999143124;427.1343808998354;None;;;;;;;;7;;;;;;;428.70914030005224;None;None;None;[];428.70914030005224;None;"['9', '9', '9', '9', '9']";"[0.12696329993195832, 0.5512741999700665, 0.8309774999506772, 1.535133499884978, 2.5193964999634773]";428.70914030005224;None;;;S10883;2021_Sep_08_1631;VideoMask;2021.1.2;120.11434861193517;
0.0;f;040_y_f_s_a.jpg;sad;7.0;happy_127.3.wmv;happy;9.0;incongruent;130.0;150.0;131.7195455720239;s_h;;;;;0;30;30;30;;;;;;;431.7173701999709;None;433.02568749990314;433.34212219994515;434.46738839987665;434.4840202999767;436.54287160001695;None;8;0;0.6615728000178933;436.54287160001695;None;;;;;;;;7;;;;;;;438.11719769984484;None;None;None;[];438.11719769984484;None;"['9', '9']";"[0.1429484998807311, 0.6791965998709202]";438.11719769984484;None;;;S10883;2021_Sep_08_1631;VideoMask;2021.1.2;120.11434861193517;
0.0;f;030_o_f_s_a.jpg;sad;7.0;happy_125.3.wmv;happy;9.0;incongruent;130.0;150.0;220.51454909128134;s_h;;;;;0;31;31;31;;;;;;;441.1256102998741;None;443.17522739991546;443.4918881000485;444.62537320004776;444.642054699827;446.6342615999747;None;7;0;0.7061296999454498;446.6342615999747;None;;;;;;;;8;;;;;;;448.40023499983363;None;None;None;[];448.40023499983363;None;"['9', '9', '9']";"[0.5161764000076801, 0.8602452999912202, 1.2039809999987483]";448.40023499983363;None;;;S10883;2021_Sep_08_1631;VideoMask;2021.1.2;120.11434861193517;
0.0;f;030_o_f_s_a.jpg;sad;7.0;sad_64.3ns.avi;sad;7.0;congruent;130.0;160.0;165.78667874766072;s_s;;;;;0;32;32;32;;;;;;;451.4005007999949;None;452.9999448999297;453.31666380004026;454.4583923998289;454.47525809984654;459.45004939986393;None;8;0;1.0341928999405354;459.45004939986393;None;;;;;;;;4;;;;;;;461.2832064998802;None;None;None;[];461.2832064998802;None;['7'];[1.0892701998818666];461.2832064998802;None;;;S10883;2021_Sep_08_1631;VideoMask;2021.1.2;120.11434861193517;
3.0;m;013_y_m_s_a.jpg;sad;7.0;sad_7.7ns.avi;sad;7.0;congruent;130.0;160.0;196.24182255763262;s_s;;;;;0;33;33;33;;;;;;;464.2833169000223;None;466.13286589994095;466.4496499998495;467.6251693998929;467.64952920004725;473.59128619986586;None;8;0;0.7171503999270499;473.59128619986586;None;;;;;;;;5;;;;;;;475.15779109997675;None;None;None;[];475.15779109997675;None;"['7', '9']";"[0.18236269988119602, 2.542591599980369]";475.15779109997675;None;;;S10883;2021_Sep_08_1631;VideoMask;2021.1.2;120.11434861193517;
3.0;m;013_y_m_h_a.jpg;happy;9.0;happy_9.1ns.avi;happy;9.0;congruent;120.0;150.0;165.1890303600433;h_h;;;;;0;34;34;34;;;;;;;478.16613969998434;None;479.7409928999841;480.05768179986626;481.1992744000163;481.21597519982606;484.41596330003813;None;8;0;0.5324929000344127;484.41596330003813;None;;;;;;;;8;;;;;;;486.0574842998758;None;None;None;[];486.0574842998758;None;"['9', '9', '9']";"[0.330904999980703, 0.6028559000696987, 1.0348398999776691]";486.0574842998758;None;;;S10883;2021_Sep_08_1631;VideoMask;2021.1.2;120.11434861193517;
4.0;m;004_o_m_h_a.jpg;happy;9.0;sad_95.1ns.avi;sad;7.0;incongruent;120.0;160.0;152.68270002069931;h_s;;;;;0;35;35;35;;;;;;;489.05753799993545;None;490.55722129996866;490.8739240998402;492.0072077999357;492.02435690001585;500.79889309988357;None;8;0;0.7734268999192864;500.79889309988357;None;;;;;;;;3;;;;;;;502.34871509997174;None;None;None;[];502.34871509997174;None;"['9', '7', '7', '7', '7', '7']";"[0.20733439992181957, 0.6877007000148296, 0.9116620998829603, 1.0955570000223815, 1.2715167000424117, 1.487468299921602]";502.34871509997174;None;;;S10883;2021_Sep_08_1631;VideoMask;2021.1.2;120.11434861193517;
3.0;m;013_y_m_h_a.jpg;happy;9.0;sad_113.2.wmv;sad;7.0;incongruent;120.0;160.0;217.4973891947951;h_s;;;;;0;36;36;36;;;;;;;505.3569428999908;None;507.3899552000221;507.70677629997954;508.831794800004;508.8483845998999;510.84003999992274;None;8;0;0.70012650010176;510.84003999992274;None;;;;;;;;6;;;;;;;512.3900113999844;None;None;None;[];512.3900113999844;None;"['7', '9', '9']";"[0.1585897000040859, 0.8223836000543088, 1.7580637999344617]";512.3900113999844;None;;;S10883;2021_Sep_08_1631;VideoMask;2021.1.2;120.11434861193517;
4.0;m;004_o_m_h_a.jpg;happy;9.0;happy_25.1ns.avi;happy;9.0;congruent;120.0;150.0;216.63044503818386;h_h;;;;;0;37;37;37;;;;;;;515.3900564999785;None;517.3980767000467;517.7148398000281;518.9065314999316;518.9231795000378;522.539845299907;None;8;0;0.6563744000159204;522.539845299907;None;;;;;;;;9;;;;;;;524.1480274999049;None;None;None;[];524.1480274999049;None;"['9', '9', '9', '9', '9', '9']";"[0.3041860000230372, 0.504238500026986, 0.8721292000263929, 1.1282097999937832, 1.5123659998644143, 2.248436299851164]";524.1480274999049;None;;;S10883;2021_Sep_08_1631;VideoMask;2021.1.2;120.11434861193517;
4.0;m;004_o_m_s_a.jpg;sad;7.0;happy_131.2.wmv;happy;9.0;incongruent;130.0;150.0;181.38407540847405;s_h;;;;;0;38;38;38;;;;;;;527.147891700035;None;528.8643034999259;529.1814909998793;530.3392832998652;530.3560154999141;532.3150300998241;None;9;0;1.2812872999347746;532.3150300998241;None;;;;;;;;9;;;;;;;533.8644044999965;None;None;None;[];533.8644044999965;None;"['9', '9', '9', '9', '9']";"[0.48394599999301136, 0.7156787998974323, 0.8837598999962211, 1.043858400080353, 1.5958835000637919]";533.8644044999965;None;;;S10883;2021_Sep_08_1631;VideoMask;2021.1.2;120.11434861193517;
0.0;f;040_y_f_h_a.jpg;happy;9.0;happy_24.3ns.avi;happy;9.0;congruent;120.0;150.0;213.25460698950434;h_h;;;;;0;39;39;39;;;;;;;536.8727686000057;None;538.8557661999948;539.1725049999077;540.3225761000067;540.3391908998601;542.2308857999742;None;9;0;0.6136892000213265;542.2308857999742;None;;;;;;;;9;;;;;;;543.8308156998828;None;None;None;[];543.8308156998828;None;"['9', '9', '9', '9']";"[0.541472100187093, 0.7336216000840068, 0.9334935999941081, 1.1097438000142574]";543.8308156998828;None;;;S10883;2021_Sep_08_1631;VideoMask;2021.1.2;120.11434861193517;
2.0;f;012_o_f_s_a.jpg;sad;7.0;happy_139.1.wmv;happy;9.0;incongruent;130.0;150.0;162.31500468041804;s_h;;;;;0;40;40;40;;;;;;;546.8307822998613;None;548.3888824998867;548.7055931999348;549.8387501998805;549.8554089998361;551.8390070998576;None;9;0;0.5174006999004632;551.8390070998576;None;;;;;;;;9;;;;;;;553.4638359998353;None;None;None;[];553.4638359998353;None;"['9', '9', '9', '9', '9']";"[0.3806037998292595, 0.6044716998003423, 0.8043140999507159, 1.092534399824217, 2.749095099978149]";553.4638359998353;None;;;S10883;2021_Sep_08_1631;VideoMask;2021.1.2;120.11434861193517;
0.0;f;030_o_f_h_a.jpg;happy;9.0;happy_24.1ns.avi;happy;9.0;congruent;120.0;150.0;168.36256624020774;h_h;;;;;0;41;41;41;;;;;;;556.4721202999353;None;558.0802269999404;558.3970180000179;559.5307372000534;559.5553639999125;562.8552671000361;None;9;0;0.8613098999485373;562.8552671000361;None;;;;;;;;9;;;;;;;564.4051959000062;None;None;None;[];564.4051959000062;None;"['9', '9', '9', '9']";"[0.23155890009365976, 0.46307320008054376, 0.6630224999971688, 0.8390538000967354]";564.4051959000062;None;;;S10883;2021_Sep_08_1631;VideoMask;2021.1.2;120.11434861193517;
2.0;f;012_o_f_h_a.jpg;happy;9.0;sad_113.1.wmv;sad;7.0;incongruent;120.0;160.0;177.44551734737394;h_s;;;;;0;42;42;42;;;;;;;567.4051387999207;None;569.0882212999277;569.4049986999016;570.5464826000389;570.5633805999532;572.5384058000054;None;9;0;0.5221452000550926;572.5384058000054;None;;;;;;;;9;;;;;;;574.1380125000142;None;None;None;[];574.1380125000142;None;"['9', '9', '9', '9']";"[0.48246530001051724, 0.7060650000348687, 1.1623680000193417, 1.7465482999105006]";574.1380125000142;None;;;S10883;2021_Sep_08_1631;VideoMask;2021.1.2;120.11434861193517;
3.0;m;033_o_m_s_a.jpg;sad;7.0;sad_64.5ns.avi;sad;7.0;congruent;130.0;160.0;130.55717223801247;s_s;;;;;0;43;43;43;;;;;;;577.1465296000242;None;578.4462905998807;578.7630188998301;579.9878632000182;580.0045868998859;586.4796580998227;None;9;0;0.509018300101161;586.4796580998227;None;;;;;;;;9;;;;;;;588.054505799897;None;None;None;[];588.054505799897;None;"['9', '9', '9', '9', '9']";"[0.03763410006649792, 0.4219343001022935, 0.84599669999443, 1.4538108999840915, 2.134050799999386]";588.054505799897;None;;;S10883;2021_Sep_08_1631;VideoMask;2021.1.2;120.11434861193517;
7.0;m;027_o_m_h_a.jpg;happy;9.0;sad_117.1.wmv;sad;7.0;incongruent;120.0;160.0;181.28665202824095;h_s;;;;;0;44;44;44;;;;;;;591.0543849999085;None;592.7791064998601;593.0959050999954;594.2299152999185;594.2543409999926;596.229490299942;None;None;0;;596.229490299942;None;;;;;;;;4;;;;;;;597.7789987998549;None;None;None;[];597.7789987998549;None;['7'];[2.281531000044197];597.7789987998549;None;;;S10883;2021_Sep_08_1631;VideoMask;2021.1.2;120.11434861193517;
3.0;m;033_o_m_s_a.jpg;sad;7.0;happy_126.3.wmv;happy;9.0;incongruent;130.0;150.0;198.85252030535366;s_h;;;;;0;45;45;45;;;;;;;600.7790613998659;None;602.6455929998774;602.9622941999696;604.0955922999419;604.1122791999951;606.0956488999072;None;9;0;0.7168966999743134;606.0956488999072;None;;;;;;;;8;;;;;;;607.6871896998491;None;None;None;[];607.6871896998491;None;"['9', '9', '9']";"[0.9009731998667121, 1.3491831999272108, 2.189205899834633]";607.6871896998491;None;;;S10883;2021_Sep_08_1631;VideoMask;2021.1.2;120.11434861193517;
3.0;m;033_o_m_h_a.jpg;happy;9.0;sad_136.1.wmv;sad;7.0;incongruent;120.0;160.0;176.97002883463455;h_s;;;;;0;46;46;46;;;;;;;610.687130499864;None;612.3619563998654;612.6787512998562;613.8037795999553;613.8202533998992;615.8122176998295;None;7;0;0.32003369997255504;615.8122176998295;None;;;;;;;;1;;;;;;;617.4285970998462;None;None;None;[];617.4285970998462;None;"['7', '7', '7', '7']";"[0.27181789977476, 0.47983559989370406, 0.6555493997875601, 0.8395959998015314]";617.4285970998462;None;;;S10883;2021_Sep_08_1631;VideoMask;2021.1.2;120.11434861193517;
9.0;f;019_m_f_h_a.jpg;happy;9.0;happy_10.1ns.avi;happy;9.0;congruent;120.0;150.0;157.2463435658512;h_h;;;;;0;47;47;47;;;;;;;620.4286656999029;None;621.9617131999694;622.2783892999869;623.4035263999831;623.4200476999395;630.8532153000124;None;None;0;;630.8532153000124;None;;;;;;;;9;;;;;;;632.4029959000181;None;None;None;[];632.4029959000181;None;"['9', '9', '9', '9', '9', '9']";"[0.569469999987632, 0.865522300126031, 1.1373428001534194, 1.3373084999620914, 1.5532905000727624, 2.6095356999430805]";632.4029959000181;None;;;S10883;2021_Sep_08_1631;VideoMask;2021.1.2;120.11434861193517;
2.0;f;012_o_f_h_a.jpg;happy;9.0;happy_2.2ns.avi;happy;9.0;congruent;120.0;150.0;206.34800317295262;h_h;;;;;0;48;48;48;;;;;;;635.4030326998327;None;637.3780373998452;637.6952173998579;638.8363620999735;638.8529862998985;651.0368027000222;None;8;0;0.591475399909541;651.0368027000222;None;;;;;;;;9;;;;;;;652.6192377998959;None;None;None;[];652.6192377998959;None;"['9', '9', '9', '9', '9', '9', '9']";"[0.07291400013491511, 0.35328090004622936, 0.5530177999753505, 1.0173810999840498, 1.4414087000768632, 1.760921300156042, 2.2011685001198202]";652.6192377998959;None;;;S10883;2021_Sep_08_1631;VideoMask;2021.1.2;120.11434861193517;
3.0;m;033_o_m_h_a.jpg;happy;9.0;happy_24.2ns.avi;happy;9.0;congruent;120.0;150.0;167.9423847659953;h_h;;;;;0;49;49;49;;;;;;;655.6274909998756;None;657.2275757999159;657.5441531999968;658.7274191998877;658.7440845000092;662.4025043998845;None;9;0;0.5860642001498491;662.4025043998845;None;;;;;;;;9;;;;;;;663.9772526999004;None;None;None;[];663.9772526999004;None;"['9', '9', '9', '9', '9', '9']";"[0.8111572999041528, 1.1473028999753296, 1.5871594999916852, 1.9071245999075472, 2.291153500089422, 2.7151262999977916]";663.9772526999004;None;;;S10883;2021_Sep_08_1631;VideoMask;2021.1.2;120.11434861193517;
1.0;f;021_o_f_s_a.jpg;sad;7.0;happy_61.2ns.avi;happy;9.0;incongruent;130.0;150.0;210.94664004826666;s_h;;;;;0;50;50;50;;;;;;;666.9856034999248;None;668.943629699992;669.260455599986;670.4351700998377;670.4519443998579;674.9186559000518;None;8;0;1.1978708000387996;674.9186559000518;None;;;;;;;;8;;;;;;;676.468365599867;None;None;None;[];676.468365599867;None;"['9', '9', '9', '9', '9']";"[0.6478853998705745, 1.5362326998729259, 1.9843042998109013, 2.159925299929455, 2.7121126998681575]";676.468365599867;None;;;S10883;2021_Sep_08_1631;VideoMask;2021.1.2;120.11434861193517;
4.0;m;004_o_m_s_a.jpg;sad;7.0;sad_2.4ns.avi;sad;7.0;congruent;130.0;160.0;153.02079367163634;s_s;;;;;0;51;51;51;;;;;;;679.4685662998818;None;680.9684611998964;681.2849657998886;682.4515511000063;682.4682034999132;690.3766675998922;None;7;0;0.49962830008007586;690.3766675998922;None;;;;;;;;3;;;;;;;691.9769080998376;None;None;None;[];691.9769080998376;None;"['9', '7', '7', '7']";"[15.464017799822614, 0.795365400146693, 0.9953797000925988, 1.171391700161621]";691.9769080998376;None;;;S10883;2021_Sep_08_1631;VideoMask;2021.1.2;120.11434861193517;
8.0;m;008_y_m_h_a.jpg;happy;9.0;happy_1.2ns.avi;happy;9.0;congruent;120.0;150.0;210.98946429383824;h_h;;;;;0;52;52;52;;;;;;;694.9598530998919;None;696.967815999873;697.2850631000474;698.4179282998666;698.4346105000004;711.2094348999672;None;8;0;0.9149096999317408;711.2094348999672;None;;;;;;;;9;;;;;;;712.775835899869;None;None;None;[];712.775835899869;None;"['9', '9', '9', '9']";"[0.30856060003861785, 0.5323318999726325, 0.724594600033015, 0.9086843999102712]";712.775835899869;None;;;S10883;2021_Sep_08_1631;VideoMask;2021.1.2;120.11434861193517;
2.0;f;012_o_f_s_a.jpg;sad;7.0;happy_52.2ns.avi;happy;9.0;incongruent;130.0;150.0;172.57202848318138;s_h;;;;;0;53;53;53;;;;;;;715.7758018998429;None;717.4088933998719;717.7255994000006;718.8840687000193;718.9005458999891;722.4089961999562;None;8;0;0.5552848998922855;722.4089961999562;None;;;;;;;;9;;;;;;;724.0341874998994;None;None;None;[];724.0341874998994;None;"['9', '9', '9', '9', '9', '9', '9']";"[11.204600400058553, 0.37826120015233755, 0.5940972999669611, 0.7700972000602633, 0.9622039999812841, 1.162177599966526, 1.330165799940005]";724.0341874998994;None;;;S10883;2021_Sep_08_1631;VideoMask;2021.1.2;120.11434861193517;
9.0;f;019_m_f_s_a.jpg;sad;7.0;happy_61.1ns.avi;happy;9.0;incongruent;130.0;150.0;181.3003220572762;s_h;;;;;0;54;54;54;;;;;;;727.0177734999452;None;728.7585320000071;729.0753350998275;730.2090028999373;730.2336454999167;737.6003384999931;None;None;0;;737.6003384999931;None;;;;;;;;5;;;;;;;739.1589179998264;None;None;None;[];739.1589179998264;None;None;;739.1589179998264;None;;;S10883;2021_Sep_08_1631;VideoMask;2021.1.2;120.11434861193517;
0.0;f;030_o_f_h_a.jpg;happy;9.0;sad_133.1.wmv;sad;7.0;incongruent;120.0;160.0;198.86251500867985;h_s;;;;;0;55;55;55;;;;;;;742.1917093000375;None;744.0581004000269;744.3748713999521;745.5081275999546;745.5248485999182;747.5082473000512;None;None;0;;747.5082473000512;None;;;;;;;;5;;;;;;;749.0579780000262;None;None;None;[];749.0579780000262;None;"['7', '9', '9']";"[0.6743163999635726, 1.1783340000547469, 1.482554699992761]";749.0579780000262;None;;;S10883;2021_Sep_08_1631;VideoMask;2021.1.2;120.11434861193517;
0.0;f;040_y_f_h_a.jpg;happy;9.0;sad_128.2.wmv;sad;7.0;incongruent;120.0;160.0;206.10005857915363;h_s;;;;;0;56;56;56;;;;;;;752.0664689999539;None;753.9910521998536;754.3078584999312;755.4411055999808;755.4578652998898;757.4412597999908;None;9;0;1.3392910999245942;757.4412597999908;None;;;;;;;;9;;;;;;;759.0078068999574;None;None;None;[];759.0078068999574;None;"['9', '9', '9', '9', '9']";"[0.6287537000607699, 0.8285545001272112, 1.0445000000763685, 1.2125238999724388, 1.4045404999051243]";759.0078068999574;None;;;S10883;2021_Sep_08_1631;VideoMask;2021.1.2;120.11434861193517;
1.0;f;021_o_f_s_a.jpg;sad;7.0;sad_9.5ns.avi;sad;7.0;congruent;130.0;160.0;206.16642757875042;s_s;;;;;0;57;57;57;;;;;;;762.0076997999568;None;763.9408633999992;764.2576442998834;765.4656793000177;765.4831574000418;771.115697799949;None;9;0;0.8727697001304477;771.115697799949;None;;;;;;;;2;;;;;;;772.732402499998;None;None;None;[];772.732402499998;None;"['7', '7', '7']";"[0.240138900000602, 0.4479654000606388, 0.62396389991045]";772.732402499998;None;;;S10883;2021_Sep_08_1631;VideoMask;2021.1.2;120.11434861193517;
1.0;f;021_o_f_h_a.jpg;happy;9.0;happy_12.1ns.avi;happy;9.0;congruent;120.0;150.0;132.59080005900228;h_h;;;;;0;58;58;58;;;;;;;775.7324461999815;None;777.0654052000027;777.3824034999125;778.5819425999653;778.5988779999316;786.1320606998634;None;8;0;0.8567872999701649;786.1320606998634;None;;;;;;;;8;;;;;;;787.7819880000316;None;None;None;[];787.7819880000316;None;"['9', '9', '9']";"[1.1268070999067277, 1.4466079999692738, 2.4623229999560863]";787.7819880000316;None;;;S10883;2021_Sep_08_1631;VideoMask;2021.1.2;120.11434861193517;
3.0;m;013_y_m_s_a.jpg;sad;7.0;happy_56.2ns.avi;happy;9.0;incongruent;130.0;150.0;163.39234110935848;s_h;;;;;0;59;59;59;;;;;;;790.7820309998933;None;792.3567747999914;792.6733474000357;793.881548000034;793.8982861998957;798.8399185999297;None;7;0;0.8763949999120086;798.8399185999297;None;;;;;;;;9;;;;;;;800.4397626998834;None;None;None;[];800.4397626998834;None;"['9', '9', '9', '9']";"[12.622348299948499, 0.34066949994303286, 0.5644147000275552, 1.052505600033328]";800.4397626998834;None;;;S10883;2021_Sep_08_1631;VideoMask;2021.1.2;120.11434861193517;
;;;;;;;;;;;;;;;;;;;;;;;;;;;;;;;;;;;;;;;;;;;;;;;;;;;;;;;;;;;;;;;;;803.4232501999941;None;;;;;;
