primePerson;primeGender;prime;primeEmotion;corrAnsPrime;target;targetEmotion;corrAnsTar;Cond;ID_Primer;ID_Target;JitterTime;Condition;example.thisRepN;example.thisTrialN;example.thisN;example.thisIndex;study.thisRepN;study.thisTrialN;study.thisN;study.thisIndex;MR_trigger_time;MR_trigger_number;text_intro.started;text_intro.stopped;text_probe.started;text_probe.stopped;polygon_ISI.started;polygon_ISI.stopped;polygon.started;polygon.stopped;primerImage.started;primerImage.stopped;response.started;response.stopped;key_resp.keys;key_resp.corr;key_resp.started;key_resp.stopped;slider_Text.started;slider_Text.stopped;slider_ex.response;slider_ex.rt;slider_ex.history;slider_ex.started;slider_ex.stopped;Rating;slider_resp_response.keys;slider_resp_response.started;slider_resp_response.stopped;text_start.started;text_start.stopped;key_resp.rt;text_slider.started;text_slider.stopped;slider_stud.response;slider_stud.rt;slider_stud.history;slider_stud.started;slider_stud.stopped;slider_resp_study.keys;slider_resp_study.rt;slider_resp_study.started;slider_resp_study.stopped;text_ende.started;text_ende.stopped;participant;date;expName;psychopyVersion;frameRate;
1111;m;1111_m_m_h_a.jpg;happy;9;example_30.4ns.avi;neutral;7;incongruent;120.0;170.0;189.5874364012288;;0;0;0;0;;;;;28.582530899962876;1;28.676659799995832;30.67688319995068;30.67688319995068;None;32.70148499996867;None;34.9934285999625;35.31828279996989;36.476557399961166;36.49332319997484;40.78496499999892;None;None;0;40.78496499999892;None;42.33480299997609;None;None;None;[];42.33480299997609;None;5;None;42.33480299997609;None;;;;;;;;;;;;;;;;;S11028;2021_Nov_02_1905;VideoMask;2021.1.2;120.2982916184884;
1113;f;1113_y_f_s_a.jpg;sad;7;example_30.3ns.avi;neutral;7;incongruent;130.0;170.0;229.02432995836998;;0;1;1;1;;;;;;;;;;;45.35958779999055;None;47.48447109997505;47.80134329997236;48.93463009997504;48.95123730000341;50.9345160999801;None;None;0;50.9345160999801;None;52.48434909997741;None;None;None;[];52.48434909997741;None;5;None;52.48434909997741;None;;;;;;;;;;;;;;;;;S11028;2021_Nov_02_1905;VideoMask;2021.1.2;120.2982916184884;
9.0;f;019_m_f_h_a.jpg;happy;9.0;sad_115.1.wmv;sad;7.0;incongruent;120.0;160.0;128.09063432376465;h_s;;;;;0;0;0;0;;;;;;;56.53479459998198;None;57.82585029996699;58.14267929998459;59.2758275999804;59.292659599974286;61.29266869998537;None;7;0;61.29266869998537;None;;;;;;;;3;;;;55.51774079998722;None;0.4777815999696031;62.85920099995565;None;None;None;[];62.85920099995565;None;"['7', '7']";"[0.6394295999780297, 1.0472960000042804]";62.85920099995565;None;;;S11028;2021_Nov_02_1905;VideoMask;2021.1.2;120.2982916184884;
3.0;m;033_o_m_s_a.jpg;sad;7.0;sad_94.2ns.avi;sad;7.0;congruent;130.0;160.0;182.29120173647655;s_s;;;;;0;1;1;1;;;;;;;65.85086979996413;None;67.59241359995212;67.9089823999675;69.07573869999032;69.09254969999893;71.7339920999948;None;8;0;71.7339920999948;None;;;;;;;;5;;;;;;1.4525564000359736;73.28392269997858;None;None;None;[];73.28392269997858;None;None;;73.28392269997858;None;;;S11028;2021_Nov_02_1905;VideoMask;2021.1.2;120.2982916184884;
8.0;m;008_y_m_h_a.jpg;happy;9.0;happy_26.1ns.avi;happy;9.0;congruent;120.0;150.0;155.9437854594882;h_h;;;;;0;2;2;2;;;;;;;76.30881039996166;None;77.82528299995465;78.14203569997335;79.2670898999786;79.28375449997839;81.26705119997496;None;9;0;81.26705119997496;None;;;;;;;;4;;;;;;1.0635967999696732;82.80856429995038;None;None;None;[];82.80856429995038;None;['7'];[0.6658305000164546];82.80856429995038;None;;;S11028;2021_Nov_02_1905;VideoMask;2021.1.2;120.2982916184884;
0.0;f;040_y_f_h_a.jpg;happy;9.0;sad_138.1.wmv;sad;7.0;incongruent;120.0;160.0;133.99071306426532;h_s;;;;;0;3;3;3;;;;;;;85.81705909996526;None;87.15002649999224;87.46677060000366;88.5919084000052;88.60850149998441;90.60019569995347;None;8;0;90.60019569995347;None;;;;;;;;5;;;;;;0.754630499985069;92.14999439998064;None;None;None;[];92.14999439998064;None;None;;92.14999439998064;None;;;S11028;2021_Nov_02_1905;VideoMask;2021.1.2;120.2982916184884;
8.0;f;028_y_f_s_a.jpg;sad;7.0;sad_64.2ns.avi;sad;7.0;congruent;130.0;160.0;229.88540597086478;s_s;;;;;0;4;4;4;;;;;;;95.16637309995713;None;97.4082537999493;97.72489789995598;98.85866799997166;98.88310609996552;109.85796809999738;None;7;0;109.85796809999738;None;;;;;;;;5;;;;;;0.6568047000328079;111.40786749997642;None;None;None;[];111.40786749997642;None;None;;111.40786749997642;None;;;S11028;2021_Nov_02_1905;VideoMask;2021.1.2;120.2982916184884;
7.0;m;027_o_m_s_a.jpg;sad;7.0;sad_10.4ns.avi;sad;7.0;congruent;130.0;160.0;185.20129417468752;s_s;;;;;0;5;5;5;;;;;;;114.44107469997834;None;116.20759769994766;116.5242864000029;117.68269200000213;117.6992088999832;120.8241338999942;None;8;0;120.8241338999942;None;;;;;;;;4;;;;;;1.2506762000266463;122.37414169998374;None;None;None;[];122.37414169998374;None;"['9', '7']";"[1.6605458999983966, 2.140637800039258]";122.37414169998374;None;;;S11028;2021_Nov_02_1905;VideoMask;2021.1.2;120.2982916184884;
2.0;f;012_o_f_s_a.jpg;sad;7.0;sad_7.5ns.avi;sad;7.0;congruent;130.0;160.0;220.27842655424388;s_s;;;;;0;6;6;6;;;;;;;125.37421019998146;None;127.42392149998341;127.74065699998755;128.8823247999535;128.89897829998517;131.6659207000048;None;7;0;131.6659207000048;None;;;;;;;;1;;;;;;0.36879789998056367;133.2488175999606;None;None;None;[];133.2488175999606;None;"['7', '7', '7', '7']";"[0.4099234999739565, 0.7217993999947794, 1.050051899976097, 1.465668699995149]";133.2488175999606;None;;;S11028;2021_Nov_02_1905;VideoMask;2021.1.2;120.2982916184884;
2.0;f;012_o_f_h_a.jpg;happy;9.0;happy_27.1ns.avi;happy;9.0;congruent;120.0;150.0;146.44967055810616;h_h;;;;;0;7;7;7;;;;;;;136.25726509996457;None;137.69871559995227;138.0154003999778;139.14866969996365;139.16539869998815;141.64033049996942;None;9;0;141.64033049996942;None;;;;;;;;4;;;;;;0.8264350999961607;143.21521639998537;None;None;None;[];143.21521639998537;None;"['7', '7', '7', '7']";"[0.6113986000418663, 1.4353023000294343, 2.043549800000619, 2.563512900029309]";143.21521639998537;None;;;S11028;2021_Nov_02_1905;VideoMask;2021.1.2;120.2982916184884;
8.0;f;028_y_f_h_a.jpg;happy;9.0;sad_119.1.wmv;sad;7.0;incongruent;120.0;160.0;148.71526953572538;h_s;;;;;0;8;8;8;;;;;;;146.21513669996057;None;147.68162920000032;147.99833449994912;149.13169469998684;149.1483869999647;151.19830589997582;None;7;0;151.19830589997582;None;;;;;;;;5;;;;;;0.5643752999603748;152.748269099975;None;None;None;[];152.748269099975;None;None;;152.748269099975;None;;;S11028;2021_Nov_02_1905;VideoMask;2021.1.2;120.2982916184884;
6.0;m;016_y_m_s_a.jpg;sad;7.0;happy_60.4ns.avi;happy;9.0;incongruent;130.0;150.0;126.02367393611817;s_h;;;;;0;9;9;9;;;;;;;155.78160089999437;None;157.08146159996977;157.39814740000293;158.55645079998067;158.57301789999474;164.32301679998636;None;9;0;164.32301679998636;None;;;;;;;;6;;;;;;0.5517111000372097;165.8729280999978;None;None;None;[];165.8729280999978;None;"['9', '9']";"[0.3697927999892272, 1.0099545000120997]";165.8729280999978;None;;;S11028;2021_Nov_02_1905;VideoMask;2021.1.2;120.2982916184884;
9.0;f;019_m_f_s_a.jpg;sad;7.0;sad_8.4ns.avi;sad;7.0;congruent;130.0;160.0;171.6633093155257;s_s;;;;;0;10;10;10;;;;;;;168.87290369998664;None;170.56436789996224;170.8810145999887;172.06463689997327;172.08111679996364;180.14761349995388;None;7;0;180.14761349995388;None;;;;;;;;4;;;;;;0.5829262000042945;181.69745389994932;None;None;None;[];181.69745389994932;None;['7'];[0.4815474000060931];181.69745389994932;None;;;S11028;2021_Nov_02_1905;VideoMask;2021.1.2;120.2982916184884;
4.0;m;004_o_m_h_a.jpg;happy;9.0;happy_1.1ns.avi;happy;9.0;congruent;120.0;150.0;203.50057144619865;h_h;;;;;0;11;11;11;;;;;;;184.7057394000003;None;186.7056622999953;187.02233849995537;188.17229289998068;188.18892589997267;202.6387207999942;None;9;0;202.6387207999942;None;;;;;;;;7;;;;;;0.5485626000445336;204.43010030000005;None;None;None;[];204.43010030000005;None;"['9', '9']";"[0.7326690999907441, 1.4287126999697648]";204.43010030000005;None;;;S11028;2021_Nov_02_1905;VideoMask;2021.1.2;120.2982916184884;
7.0;m;027_o_m_h_a.jpg;happy;9.0;happy_20.1ns.avi;happy;9.0;congruent;120.0;150.0;152.91127178874285;h_h;;;;;0;12;12;12;;;;;;;207.43857089994708;None;208.95501049997984;209.27165839995723;210.39666929998202;210.41331519995583;213.4216775999521;None;9;0;213.4216775999521;None;;;;;;;;5;;;;;;1.2772166000213474;214.963224099949;None;None;None;[];214.963224099949;None;None;;214.963224099949;None;;;S11028;2021_Nov_02_1905;VideoMask;2021.1.2;120.2982916184884;
0.0;f;040_y_f_s_a.jpg;sad;7.0;sad_94.3ns.avi;sad;7.0;congruent;130.0;160.0;155.27414203894395;s_s;;;;;0;13;13;13;;;;;;;217.9796694999677;None;219.47958919999655;219.79627099999925;220.96282639994752;220.98849169997266;223.55471989995567;None;8;0;223.55471989995567;None;;;;;;;;5;;;;;;0.5841363000217825;225.10453739995137;None;None;None;[];225.10453739995137;None;None;;225.10453739995137;None;;;S11028;2021_Nov_02_1905;VideoMask;2021.1.2;120.2982916184884;
0.0;f;030_o_f_s_a.jpg;sad;7.0;sad_68.1ns.avi;sad;7.0;congruent;130.0;160.0;158.9411396037211;s_s;;;;;0;14;14;14;;;;;;;228.1378625999787;None;229.72944460000144;230.04602439998416;231.17929800000275;231.19606619997649;238.60420040000463;None;7;0;238.60420040000463;None;;;;;;;;5;;;;;;0.5667534000240266;240.67910219996702;None;None;None;[];240.67910219996702;None;None;;240.67910219996702;None;;;S11028;2021_Nov_02_1905;VideoMask;2021.1.2;120.2982916184884;
0.0;f;030_o_f_h_a.jpg;happy;9.0;sad_127.1.wmv;sad;7.0;incongruent;120.0;160.0;180.59976631384873;h_s;;;;;0;15;15;15;;;;;;;243.70393889996922;None;245.4372031999519;245.7539333999739;246.8871867999551;246.9039617999806;248.88732949999394;None;None;0;248.88732949999394;None;;;;;;;;4;;;;;;;250.43700199999148;None;None;None;[];250.43700199999148;None;"['7', '7', '7']";"[0.10188529995502904, 1.4778857000055723, 1.9178575999685563]";250.43700199999148;None;;;S11028;2021_Nov_02_1905;VideoMask;2021.1.2;120.2982916184884;
8.0;m;008_y_m_s_a.jpg;sad;7.0;happy_133.3.wmv;happy;9.0;incongruent;130.0;150.0;152.577966552593;s_h;;;;;0;16;16;16;;;;;;;253.4372003999888;None;254.9453491999884;255.26209009997547;256.3870596999768;256.40360799996415;258.3956416999572;None;9;0;258.3956416999572;None;;;;;;;;6;;;;;;0.6552484999992885;259.9535616999492;None;None;None;[];259.9535616999492;None;['9'];[0.6334394000004977];259.9535616999492;None;;;S11028;2021_Nov_02_1905;VideoMask;2021.1.2;120.2982916184884;
3.0;m;033_o_m_h_a.jpg;happy;9.0;sad_128.1.wmv;sad;7.0;incongruent;120.0;160.0;171.0492454518585;h_s;;;;;0;17;17;17;;;;;;;262.96189769997727;None;264.63676539994776;264.95340559998294;266.0948458999628;266.1115996000008;268.08668539999053;None;7;0;268.08668539999053;None;;;;;;;;5;;;;;;0.596183400019072;269.63663530000485;None;None;None;[];269.63663530000485;None;None;;269.63663530000485;None;;;S11028;2021_Nov_02_1905;VideoMask;2021.1.2;120.2982916184884;
1.0;f;021_o_f_h_a.jpg;happy;9.0;sad_116.1.wmv;sad;7.0;incongruent;120.0;160.0;184.06847610053055;h_s;;;;;0;18;18;18;;;;;;;272.65292959997896;None;274.42805659997975;274.7449141999823;275.87857499998063;275.90314459998626;277.8787881999742;None;7;0;277.8787881999742;None;;;;;;;;3;;;;;;0.556167499977164;279.43633459997363;None;None;None;[];279.43633459997363;None;"['7', '7', '7']";"[0.3906774999923073, 0.9106847999501042, 1.4944877999951132]";279.43633459997363;None;;;S11028;2021_Nov_02_1905;VideoMask;2021.1.2;120.2982916184884;
4.0;m;004_o_m_s_a.jpg;sad;7.0;happy_28.1ns.avi;happy;9.0;incongruent;130.0;150.0;157.40741103039684;s_h;;;;;0;19;19;19;;;;;;;282.43655990000116;None;283.99435209995136;284.31108979997225;285.4692446999834;285.4860256999964;289.83614379999926;None;9;0;289.83614379999926;None;;;;;;;;7;;;;;;0.4788078999845311;291.38600089994725;None;None;None;[];291.38600089994725;None;"['9', '9', '9']";"[0.5530966999940574, 1.1131094999727793, 1.6092653999803588]";291.38600089994725;None;;;S11028;2021_Nov_02_1905;VideoMask;2021.1.2;120.2982916184884;
8.0;f;028_y_f_s_a.jpg;sad;7.0;happy_122.3.wmv;happy;9.0;incongruent;130.0;150.0;171.8670540936116;s_h;;;;;0;20;20;20;;;;;;;294.3945210999809;None;296.0440305999946;296.3607260999852;297.50249599997187;297.5192041999544;299.49422900000354;None;9;0;299.49422900000354;None;;;;;;;;4;;;;;;0.5727313000243157;301.044077700004;None;None;None;[];301.044077700004;None;['7'];[0.6228841000120156];301.044077700004;None;;;S11028;2021_Nov_02_1905;VideoMask;2021.1.2;120.2982916184884;
8.0;m;008_y_m_s_a.jpg;sad;7.0;sad_6.5ns.avi;sad;7.0;congruent;130.0;160.0;170.39333839271438;s_s;;;;;0;21;21;21;;;;;;;304.0442243999569;None;305.7021004999988;306.01887059997534;307.1522141000023;307.16886479995446;312.1689194999635;None;7;0;312.1689194999635;None;;;;;;;;5;;;;;;0.4498200999805704;313.7270320999669;None;None;None;[];313.7270320999669;None;None;;313.7270320999669;None;;;S11028;2021_Nov_02_1905;VideoMask;2021.1.2;120.2982916184884;
8.0;f;028_y_f_h_a.jpg;happy;9.0;happy_23.1ns.avi;happy;9.0;congruent;120.0;150.0;225.70986890587952;h_h;;;;;0;22;22;22;;;;;;;316.7436049999669;None;318.86007090000203;319.17675469996175;320.3182706999942;320.33499899995513;324.8850485999719;None;9;0;324.8850485999719;None;;;;;;;;7;;;;;;0.43811180000193417;326.4681539000012;None;None;None;[];326.4681539000012;None;"['9', '9']";"[0.5590515999938361, 1.0628787000314333]";326.4681539000012;None;;;S11028;2021_Nov_02_1905;VideoMask;2021.1.2;120.2982916184884;
8.0;m;008_y_m_h_a.jpg;happy;9.0;sad_111.1.wmv;sad;7.0;incongruent;120.0;160.0;152.63076835312847;h_s;;;;;0;23;23;23;;;;;;;329.46829920000164;None;330.9847407999914;331.30137129995273;332.44289039995056;332.45964529999765;334.4347810999607;None;7;0;334.4347810999607;None;;;;;;;;5;;;;;;0.5202020999859087;335.9847076999722;None;None;None;[];335.9847076999722;None;None;;335.9847076999722;None;;;S11028;2021_Nov_02_1905;VideoMask;2021.1.2;120.2982916184884;
0.0;f;040_y_f_s_a.jpg;sad;7.0;sad_67.2ns.avi;sad;7.0;congruent;130.0;160.0;220.9892697323079;s_s;;;;;0;24;24;24;;;;;;;339.00125129998196;None;341.1094841999584;341.42611949995626;342.55126389994984;342.5678946999833;351.78440609999234;None;7;0;351.78440609999234;None;;;;;;;;2;;;;;;0.5864701000391506;353.39258009998593;None;None;None;[];353.39258009998593;None;"['7', '7', '7']";"[0.4985075000440702, 0.8504921999992803, 1.1943305000313558]";353.39258009998593;None;;;S11028;2021_Nov_02_1905;VideoMask;2021.1.2;120.2982916184884;
8.0;m;008_y_m_s_a.jpg;sad;7.0;happy_29.1ns.avi;happy;9.0;incongruent;130.0;150.0;120.0316142834122;s_h;;;;;0;25;25;25;;;;;;;356.4008074000012;None;357.63404309999896;357.95070399995893;359.0841310999822;359.10071499994956;361.7758572999737;None;9;0;361.7758572999737;None;;;;;;;;5;;;;;;1.219351399980951;363.32561519998126;None;None;None;[];363.32561519998126;None;None;;363.32561519998126;None;;;S11028;2021_Nov_02_1905;VideoMask;2021.1.2;120.2982916184884;
6.0;m;016_y_m_s_a.jpg;sad;7.0;sad_8.3ns.avi;sad;7.0;congruent;130.0;160.0;152.85371098242734;s_s;;;;;0;26;26;26;;;;;;;366.3420658999821;None;367.8754927999689;368.1921583999647;369.333631699963;369.35879609995754;377.08364629995776;None;8;0;377.08364629995776;None;;;;;;;;5;;;;;;1.2954291999922134;378.6335189999663;None;None;None;[];378.6335189999663;None;None;;378.6335189999663;None;;;S11028;2021_Nov_02_1905;VideoMask;2021.1.2;120.2982916184884;
6.0;m;016_y_m_h_a.jpg;happy;9.0;sad_114.1.wmv;sad;7.0;incongruent;120.0;160.0;136.20550699298644;h_s;;;;;0;27;27;27;;;;;;;381.65003219997743;None;383.0000159999472;383.3166931999731;384.44175639998866;384.45844089996535;386.45825209998293;None;None;0;386.45825209998293;None;;;;;;;;5;;;;;;;388.0086183999665;None;None;None;[];388.0086183999665;None;['7'];[0.6263203999842517];388.0086183999665;None;;;S11028;2021_Nov_02_1905;VideoMask;2021.1.2;120.2982916184884;
7.0;m;027_o_m_s_a.jpg;sad;7.0;happy_117.3.wmv;happy;9.0;incongruent;130.0;150.0;215.61964028550614;s_h;;;;;0;28;28;28;;;;;;;391.0167545999866;None;393.0248092999682;393.3413367999601;394.4664879000047;394.4831579999882;396.4746129999985;None;9;0;396.4746129999985;None;;;;;;;;6;;;;;;0.6805730999913067;398.0246011999552;None;None;None;[];398.0246011999552;None;['9'];[0.5704235999728553];398.0246011999552;None;;;S11028;2021_Nov_02_1905;VideoMask;2021.1.2;120.2982916184884;
6.0;m;016_y_m_h_a.jpg;happy;9.0;happy_9.2ns.avi;happy;9.0;congruent;120.0;150.0;130.52042428082717;h_h;;;;;0;29;29;29;;;;;;;401.0247380999499;None;402.3745349999517;402.69110569998156;403.81619649997447;403.83293819997925;409.74939419998555;None;9;0;409.74939419998555;None;;;;;;;;4;;;;;;0.47780229995260015;411.2992541999556;None;None;None;[];411.2992541999556;None;['7'];[0.3837817999883555];411.2992541999556;None;;;S11028;2021_Nov_02_1905;VideoMask;2021.1.2;120.2982916184884;
0.0;f;040_y_f_s_a.jpg;sad;7.0;happy_127.3.wmv;happy;9.0;incongruent;130.0;150.0;131.7195455720239;s_h;;;;;0;30;30;30;;;;;;;414.2993781999685;None;415.6240074999514;415.94069309998304;417.07399839995196;417.09093619999476;419.1406944000046;None;9;0;419.1406944000046;None;;;;;;;;4;;;;;;0.9506255000014789;420.6906991999713;None;None;None;[];420.6906991999713;None;"['7', '7', '7']";"[1.1285292000393383, 1.7686324000242166, 2.2403534000040963]";420.6906991999713;None;;;S11028;2021_Nov_02_1905;VideoMask;2021.1.2;120.2982916184884;
0.0;f;030_o_f_s_a.jpg;sad;7.0;happy_125.3.wmv;happy;9.0;incongruent;130.0;150.0;220.51454909128134;s_h;;;;;0;31;31;31;;;;;;;423.6905435999506;None;425.76540809997823;426.0821802999708;427.2155068999855;427.232212999952;429.2154617999913;None;8;0;429.2154617999913;None;;;;;;;;5;;;;;;1.3879332999931648;430.76537029998144;None;None;None;[];430.76537029998144;None;None;;430.76537029998144;None;;;S11028;2021_Nov_02_1905;VideoMask;2021.1.2;120.2982916184884;
0.0;f;030_o_f_s_a.jpg;sad;7.0;sad_64.3ns.avi;sad;7.0;congruent;130.0;160.0;165.78667874766072;s_s;;;;;0;32;32;32;;;;;;;433.7905922999489;None;435.423572700005;435.74009869998554;436.86527789995307;436.88185149995843;441.87351689999923;None;7;0;441.87351689999923;None;;;;;;;;3;;;;;;0.8495524000027217;443.423243199999;None;None;None;[];443.423243199999;None;"['7', '7', '7']";"[1.0841222000308335, 1.6196692999801598, 2.3322299999999814]";443.423243199999;None;;;S11028;2021_Nov_02_1905;VideoMask;2021.1.2;120.2982916184884;
3.0;m;013_y_m_s_a.jpg;sad;7.0;sad_7.7ns.avi;sad;7.0;congruent;130.0;160.0;196.24182255763262;s_s;;;;;0;33;33;33;;;;;;;446.4233652999974;None;448.3065737999859;448.6231609999668;449.78140919998987;449.797949699976;455.7563338999753;None;7;0;455.7563338999753;None;;;;;;;;4;;;;;;1.2949202999589033;457.3062563999556;None;None;None;[];457.3062563999556;None;"['7', '7']";"[0.7771622000145726, 1.3527330000069924]";457.3062563999556;None;;;S11028;2021_Nov_02_1905;VideoMask;2021.1.2;120.2982916184884;
3.0;m;013_y_m_h_a.jpg;happy;9.0;happy_9.1ns.avi;happy;9.0;congruent;120.0;150.0;165.1890303600433;h_h;;;;;0;34;34;34;;;;;;;460.306390999991;None;461.94825999997556;462.2645286999759;463.3977694999776;463.41448619996663;466.62325139995664;None;9;0;466.62325139995664;None;;;;;;;;4;;;;;;0.5960045999963768;468.17261839995626;None;None;None;[];468.17261839995626;None;['7'];[0.5987786999903619];468.17261839995626;None;;;S11028;2021_Nov_02_1905;VideoMask;2021.1.2;120.2982916184884;
4.0;m;004_o_m_h_a.jpg;happy;9.0;sad_95.1ns.avi;sad;7.0;incongruent;120.0;160.0;152.68270002069931;h_s;;;;;0;35;35;35;;;;;;;471.1810939999996;None;472.72233939997386;473.03900930000236;474.23914550000336;474.2557930999901;482.9640801999485;None;7;0;482.9640801999485;None;;;;;;;;2;;;;;;0.7112935000332072;484.5138319999678;None;None;None;[];484.5138319999678;None;"['7', '7', '7']";"[0.5776587000000291, 0.9535611000028439, 1.3454152999911457]";484.5138319999678;None;;;S11028;2021_Nov_02_1905;VideoMask;2021.1.2;120.2982916184884;
3.0;m;013_y_m_h_a.jpg;happy;9.0;sad_113.2.wmv;sad;7.0;incongruent;120.0;160.0;217.4973891947951;h_s;;;;;0;36;36;36;;;;;;;487.51370929996483;None;489.5718818999594;489.8886066999985;491.0137201999896;491.0303322999971;493.02191579999635;None;8;0;493.02191579999635;None;;;;;;;;5;;;;;;1.4692006999976002;494.5633650999516;None;None;None;[];494.5633650999516;None;None;;494.5633650999516;None;;;S11028;2021_Nov_02_1905;VideoMask;2021.1.2;120.2982916184884;
4.0;m;004_o_m_h_a.jpg;happy;9.0;happy_25.1ns.avi;happy;9.0;congruent;120.0;150.0;216.63044503818386;h_h;;;;;0;37;37;37;;;;;;;497.58848559996113;None;499.62161179998657;499.9383421999519;501.072217799956;501.08863620000193;504.7634775000042;None;9;0;504.7634775000042;None;;;;;;;;5;;;;;;0.6559090000228025;506.32155189994955;None;None;None;[];506.32155189994955;None;None;;506.32155189994955;None;;;S11028;2021_Nov_02_1905;VideoMask;2021.1.2;120.2982916184884;
4.0;m;004_o_m_s_a.jpg;sad;7.0;happy_131.2.wmv;happy;9.0;incongruent;130.0;150.0;181.38407540847405;s_h;;;;;0;38;38;38;;;;;;;509.3548296999652;None;511.07956909999484;511.3963437999482;512.5462827999727;512.5629865999799;514.529645899951;None;9;0;514.529645899951;None;;;;;;;;5;;;;;;0.43400350003503263;516.2379285999923;None;None;None;[];516.2379285999923;None;None;;516.2379285999923;None;;;S11028;2021_Nov_02_1905;VideoMask;2021.1.2;120.2982916184884;
0.0;f;040_y_f_h_a.jpg;happy;9.0;happy_24.3ns.avi;happy;9.0;congruent;120.0;150.0;213.25460698950434;h_h;;;;;0;39;39;39;;;;;;;519.2628608999657;None;521.2460026000044;521.5627327999682;522.6877604000038;522.7044051999692;524.6209789999994;None;9;0;524.6209789999994;None;;;;;;;;5;;;;;;1.0063768000109121;526.170893499977;None;None;None;[];526.170893499977;None;None;;526.170893499977;None;;;S11028;2021_Nov_02_1905;VideoMask;2021.1.2;120.2982916184884;
2.0;f;012_o_f_s_a.jpg;sad;7.0;happy_139.1.wmv;happy;9.0;incongruent;130.0;150.0;162.31500468041804;s_h;;;;;0;40;40;40;;;;;;;529.2041361999582;None;530.7707216999843;531.087447399972;532.2206358999829;532.237304899958;534.2292068999959;None;9;0;534.2292068999959;None;;;;;;;;7;;;;;;0.5901268000015989;535.779073099955;None;None;None;[];535.779073099955;None;"['9', '9']";"[0.504268599965144, 0.9122302000178024]";535.779073099955;None;;;S11028;2021_Nov_02_1905;VideoMask;2021.1.2;120.2982916184884;
0.0;f;030_o_f_h_a.jpg;happy;9.0;happy_24.1ns.avi;happy;9.0;congruent;120.0;150.0;168.36256624020774;h_h;;;;;0;41;41;41;;;;;;;538.7790064999717;None;540.4208138999529;540.7371773999766;541.8786164000048;541.8955804999568;545.1955428999499;None;9;0;545.1955428999499;None;;;;;;;;5;;;;;;0.7203415000112727;546.8370425999747;None;None;None;[];546.8370425999747;None;None;;546.8370425999747;None;;;S11028;2021_Nov_02_1905;VideoMask;2021.1.2;120.2982916184884;
2.0;f;012_o_f_h_a.jpg;happy;9.0;sad_113.1.wmv;sad;7.0;incongruent;120.0;160.0;177.44551734737394;h_s;;;;;0;42;42;42;;;;;;;549.861972099985;None;551.5701337999781;551.8868630999932;553.0200651999912;553.0367087999475;555.0202512999531;None;7;0;555.0202512999531;None;;;;;;;;4;;;;;;0.6714625000022352;556.9951030999655;None;None;None;[];556.9951030999655;None;['7'];[1.1443238999927416];556.9951030999655;None;;;S11028;2021_Nov_02_1905;VideoMask;2021.1.2;120.2982916184884;
3.0;m;033_o_m_s_a.jpg;sad;7.0;sad_64.5ns.avi;sad;7.0;congruent;130.0;160.0;130.55717223801247;s_s;;;;;0;43;43;43;;;;;;;559.9951536000008;None;561.3449454999645;561.6616503999685;562.7949848999851;562.8116328999749;569.3864398999722;None;7;0;569.3864398999722;None;;;;;;;;2;;;;;;0.6809938999940641;570.9363902999903;None;None;None;[];570.9363902999903;None;"['7', '7', '7']";"[0.4988551000133157, 1.011300400015898, 1.4673017000313848]";570.9363902999903;None;;;S11028;2021_Nov_02_1905;VideoMask;2021.1.2;120.2982916184884;
7.0;m;027_o_m_h_a.jpg;happy;9.0;sad_117.1.wmv;sad;7.0;incongruent;120.0;160.0;181.28665202824095;h_s;;;;;0;44;44;44;;;;;;;573.9447183999582;None;575.6944600999705;576.0114416999859;577.1533105999697;577.1778433999862;579.1444584999699;None;8;0;579.1444584999699;None;;;;;;;;5;;;;;;1.090910199971404;580.69440389995;None;None;None;[];580.69440389995;None;None;;580.69440389995;None;;;S11028;2021_Nov_02_1905;VideoMask;2021.1.2;120.2982916184884;
3.0;m;033_o_m_s_a.jpg;sad;7.0;happy_126.3.wmv;happy;9.0;incongruent;130.0;150.0;198.85252030535366;s_h;;;;;0;45;45;45;;;;;;;583.7197517000022;None;585.602439499984;585.9191869999631;587.0524620999931;587.0777735000011;589.052575299982;None;9;0;589.052575299982;None;;;;;;;;5;;;;;;0.5748223999980837;590.6024904999649;None;None;None;[];590.6024904999649;None;None;;590.6024904999649;None;;;S11028;2021_Nov_02_1905;VideoMask;2021.1.2;120.2982916184884;
3.0;m;033_o_m_h_a.jpg;happy;9.0;sad_136.1.wmv;sad;7.0;incongruent;120.0;160.0;176.97002883463455;h_s;;;;;0;46;46;46;;;;;;;593.6274084000033;None;595.3106084999745;595.6272709000041;596.7606092999922;596.7775575999985;598.7607117999578;None;None;0;598.7607117999578;None;;;;;;;;5;;;;;;;600.3105731999967;None;None;None;[];600.3105731999967;None;None;;600.3105731999967;None;;;S11028;2021_Nov_02_1905;VideoMask;2021.1.2;120.2982916184884;
9.0;f;019_m_f_h_a.jpg;happy;9.0;happy_10.1ns.avi;happy;9.0;congruent;120.0;150.0;157.2463435658512;h_h;;;;;0;47;47;47;;;;;;;603.3436598999542;None;604.9187449999736;605.2353011999512;606.3854114999995;606.4019984999904;613.8185735999723;None;9;0;613.8185735999723;None;;;;;;;;5;;;;;;0.43290840002009645;615.4435029999586;None;None;None;[];615.4435029999586;None;None;;615.4435029999586;None;;;S11028;2021_Nov_02_1905;VideoMask;2021.1.2;120.2982916184884;
2.0;f;012_o_f_h_a.jpg;happy;9.0;happy_2.2ns.avi;happy;9.0;congruent;120.0;150.0;206.34800317295262;h_h;;;;;0;48;48;48;;;;;;;618.4683533999487;None;620.476620899979;620.7932951999828;621.9432025999995;621.9599222999532;634.1265864999732;None;9;0;634.1265864999732;None;;;;;;;;6;;;;;;0.3010300000314601;635.6928612999618;None;None;None;[];635.6928612999618;None;['9'];[0.4068853000062518];635.6928612999618;None;;;S11028;2021_Nov_02_1905;VideoMask;2021.1.2;120.2982916184884;
3.0;m;033_o_m_h_a.jpg;happy;9.0;happy_24.2ns.avi;happy;9.0;congruent;120.0;150.0;167.9423847659953;h_h;;;;;0;49;49;49;;;;;;;638.7011773999548;None;640.3343387999921;640.6512939999811;641.7844970999868;641.801173899963;645.5093381999759;None;9;0;645.5093381999759;None;;;;;;;;5;;;;;;0.734091599995736;647.0591502999887;None;None;None;[];647.0591502999887;None;None;;647.0591502999887;None;;;S11028;2021_Nov_02_1905;VideoMask;2021.1.2;120.2982916184884;
1.0;f;021_o_f_s_a.jpg;sad;7.0;happy_61.2ns.avi;happy;9.0;incongruent;130.0;150.0;210.94664004826666;s_h;;;;;0;50;50;50;;;;;;;650.0841142999707;None;652.1007245999645;652.4173070999677;653.5924014999764;653.6088500999613;658.0756420999533;None;9;0;658.0756420999533;None;;;;;;;;8;;;;;;0.4078006999916397;659.6254829999525;None;None;None;[];659.6254829999525;None;"['9', '9', '9']";"[0.5141614999738522, 0.9060670000035316, 1.2818957999697886]";659.6254829999525;None;;;S11028;2021_Nov_02_1905;VideoMask;2021.1.2;120.2982916184884;
4.0;m;004_o_m_s_a.jpg;sad;7.0;sad_2.4ns.avi;sad;7.0;congruent;130.0;160.0;153.02079367163634;s_s;;;;;0;51;51;51;;;;;;;662.6338036999805;None;664.1418968999642;664.4588068999583;665.6336938999593;665.6503450999735;673.5585205999669;None;7;0;673.5585205999669;None;;;;;;;;5;;;;;;0.6450912000145763;675.1084502000012;None;None;None;[];675.1084502000012;None;None;;675.1084502000012;None;;;S11028;2021_Nov_02_1905;VideoMask;2021.1.2;120.2982916184884;
8.0;m;008_y_m_h_a.jpg;happy;9.0;happy_1.2ns.avi;happy;9.0;congruent;120.0;150.0;210.98946429383824;h_h;;;;;0;52;52;52;;;;;;;678.1416503999499;None;680.1915543999639;680.5084676999832;681.658284999954;681.674922199978;694.4329432999948;None;9;0;694.4329432999948;None;;;;;;;;5;;;;;;0.6506295000435784;695.9828063999885;None;None;None;[];695.9828063999885;None;None;;695.9828063999885;None;;;S11028;2021_Nov_02_1905;VideoMask;2021.1.2;120.2982916184884;
2.0;f;012_o_f_s_a.jpg;sad;7.0;happy_52.2ns.avi;happy;9.0;incongruent;130.0;150.0;172.57202848318138;s_h;;;;;0;53;53;53;;;;;;;698.9992829999537;None;700.6492600999773;700.9659702999634;702.1493109999574;702.1657790999743;705.6576384999789;None;None;0;705.6576384999789;None;;;;;;;;6;;;;;;;707.207319899986;None;None;None;[];707.207319899986;None;['9'];[0.5403260999592021];707.207319899986;None;;;S11028;2021_Nov_02_1905;VideoMask;2021.1.2;120.2982916184884;
9.0;f;019_m_f_s_a.jpg;sad;7.0;happy_61.1ns.avi;happy;9.0;incongruent;130.0;150.0;181.3003220572762;s_h;;;;;0;54;54;54;;;;;;;710.207596399996;None;711.9989959999803;712.3155536999693;713.482308799983;713.4990572999814;720.8405195999658;None;9;0;720.8405195999658;None;;;;;;;;6;;;;;;0.4830499999807216;722.7737275999971;None;None;None;[];722.7737275999971;None;['9'];[0.6380472999881022];722.7737275999971;None;;;S11028;2021_Nov_02_1905;VideoMask;2021.1.2;120.2982916184884;
0.0;f;030_o_f_h_a.jpg;happy;9.0;sad_133.1.wmv;sad;7.0;incongruent;120.0;160.0;198.86251500867985;h_s;;;;;0;55;55;55;;;;;;;725.7738023999846;None;727.6650546999881;727.9818354999879;729.1152775999508;729.1317462999723;731.1234835999785;None;7;0;731.1234835999785;None;;;;;;;;5;;;;;;0.5603798000374809;732.6734443999594;None;None;None;[];732.6734443999594;None;None;;732.6734443999594;None;;;S11028;2021_Nov_02_1905;VideoMask;2021.1.2;120.2982916184884;
0.0;f;040_y_f_h_a.jpg;happy;9.0;sad_128.2.wmv;sad;7.0;incongruent;120.0;160.0;206.10005857915363;h_s;;;;;0;56;56;56;;;;;;;735.6983636999503;None;737.6564948000014;737.9733516999986;739.1232804000028;739.1399408999714;741.1065121999709;None;7;0;741.1065121999709;None;;;;;;;;4;;;;;;0.585107299964875;742.656481199956;None;None;None;[];742.656481199956;None;['7'];[0.5631896000122651];742.656481199956;None;;;S11028;2021_Nov_02_1905;VideoMask;2021.1.2;120.2982916184884;
1.0;f;021_o_f_s_a.jpg;sad;7.0;sad_9.5ns.avi;sad;7.0;congruent;130.0;160.0;206.16642757875042;s_s;;;;;0;57;57;57;;;;;;;745.656359799963;None;747.6147120999522;747.9312401999487;749.0894175999565;749.1061872999999;754.7978451999952;None;7;0;754.7978451999952;None;;;;;;;;3;;;;;;0.6059124000021257;756.3393917999929;None;None;None;[];756.3393917999929;None;"['7', '7']";"[0.47213860001647845, 0.8001515999785624]";756.3393917999929;None;;;S11028;2021_Nov_02_1905;VideoMask;2021.1.2;120.2982916184884;
1.0;f;021_o_f_h_a.jpg;happy;9.0;happy_12.1ns.avi;happy;9.0;congruent;120.0;150.0;132.59080005900228;h_h;;;;;0;58;58;58;;;;;;;759.3394531999948;None;760.7225989999715;761.0392598999897;762.1809897999628;762.1976341999834;769.789122999995;None;8;0;769.789122999995;None;;;;;;;;5;;;;;;0.5588126999791712;771.3472968999995;None;None;None;[];771.3472968999995;None;None;;771.3472968999995;None;;;S11028;2021_Nov_02_1905;VideoMask;2021.1.2;120.2982916184884;
3.0;m;013_y_m_s_a.jpg;sad;7.0;happy_56.2ns.avi;happy;9.0;incongruent;130.0;150.0;163.39234110935848;s_h;;;;;0;59;59;59;;;;;;;774.3721336000017;None;775.9636803999892;776.2807489999686;777.4720275999862;777.4888419999625;782.4387615000014;None;9;0;782.4387615000014;None;;;;;;;;7;;;;;;0.5250135000096634;783.9886273999582;None;None;None;[];783.9886273999582;None;"['9', '9', '7', '9']";"[0.6070401999750175, 1.3911155000096187, 2.079235000011977, 2.463193900010083]";783.9886273999582;None;;;S11028;2021_Nov_02_1905;VideoMask;2021.1.2;120.2982916184884;
;;;;;;;;;;;;;;;;;;;;;;;;;;;;;;;;;;;;;;;;;;;;;;;;;;;;;;;;;;;;;;;;786.9885825999663;None;;;;;;
