primePerson;primeGender;prime;primeEmotion;corrAnsPrime;target;targetEmotion;corrAnsTar;Cond;ID_Primer;ID_Target;JitterTime;Condition;example.thisRepN;example.thisTrialN;example.thisN;example.thisIndex;study.thisRepN;study.thisTrialN;study.thisN;study.thisIndex;MR_trigger_time;MR_trigger_number;text_intro.started;text_intro.stopped;text_probe.started;text_probe.stopped;polygon_ISI.started;polygon_ISI.stopped;polygon.started;polygon.stopped;primerImage.started;primerImage.stopped;response.started;response.stopped;key_resp.keys;key_resp.corr;key_resp.rt;key_resp.started;key_resp.stopped;slider_Text.started;slider_Text.stopped;slider_ex.response;slider_ex.rt;slider_ex.history;slider_ex.started;slider_ex.stopped;Rating;slider_resp_response.keys;slider_resp_response.rt;slider_resp_response.started;slider_resp_response.stopped;text_start.started;text_start.stopped;text_slider.started;text_slider.stopped;slider_stud.response;slider_stud.rt;slider_stud.history;slider_stud.started;slider_stud.stopped;slider_resp_study.keys;slider_resp_study.rt;slider_resp_study.started;slider_resp_study.stopped;text_ende.started;text_ende.stopped;participant;date;expName;psychopyVersion;frameRate;
1111;m;1111_m_m_h_a.jpg;happy;9;example_30.4ns.avi;neutral;7;incongruent;120.0;170.0;189.5874364012288;;0;0;0;0;;;;;160.0802551000379;1;160.15764670004137;162.15781769994646;162.15781769994646;None;164.17507199989632;None;166.41627079993486;166.7325782000553;167.9242942999117;167.94094510003924;172.20756180002354;None;8;0;1.307220899965614;172.20756180002354;None;173.76575349993072;None;None;None;[];173.76575349993072;None;4;['7'];[1.4051330001093447];173.76575349993072;None;;;;;;;;;;;;;;;;S11308;2022_Mar_22_1646;VideoMask;2021.1.2;120.02640589858125;
1113;f;1113_y_f_s_a.jpg;sad;7;example_30.3ns.avi;neutral;7;incongruent;130.0;170.0;229.02432995836998;;0;1;1;1;;;;;;;;;;;176.75743040000089;None;178.88204189995304;179.19892699993216;180.40717700007372;180.4241941999644;182.33212630008347;None;8;0;1.0865998000372201;182.33212630008347;None;183.88212620001286;None;None;None;[];183.88212620001286;None;3;"['7', '7']";"[0.8406525999307632, 1.2646978998091072]";183.88212620001286;None;;;;;;;;;;;;;;;;S11308;2022_Mar_22_1646;VideoMask;2021.1.2;120.02640589858125;
9.0;f;019_m_f_h_a.jpg;happy;9.0;sad_115.1.wmv;sad;7.0;incongruent;120.0;160.0;128.09063432376465;h_s;;;;;0;0;0;0;;;;;;;187.92353769997135;None;189.206880700076;189.52358720009215;190.65677889995277;190.67357599991374;192.66517880000174;None;7;0;0.9056394000072032;192.66517880000174;None;;;;;;;;3;;;;;186.89038019999862;None;194.21508140000515;None;None;None;[];194.21508140000515;None;"['7', '7', '7']";"[0.6516795000061393, 1.027675700141117, 1.8755860000383109]";194.21508140000515;None;;;S11308;2022_Mar_22_1646;VideoMask;2021.1.2;120.02640589858125;
3.0;m;033_o_m_s_a.jpg;sad;7.0;sad_94.2ns.avi;sad;7.0;congruent;130.0;160.0;182.29120173647655;s_s;;;;;0;1;1;1;;;;;;;197.2319489000365;None;198.93983129994012;199.25658369995654;200.38168250001036;200.3982706000097;203.08152429992333;None;7;0;1.225469300057739;203.08152429992333;None;;;;;;;;3;;;;;;;204.63145989994518;None;None;None;[];204.63145989994518;None;"['7', '7']";"[1.8673292000312358, 2.2995813000015914]";204.63145989994518;None;;;S11308;2022_Mar_22_1646;VideoMask;2021.1.2;120.02640589858125;
8.0;m;008_y_m_h_a.jpg;happy;9.0;happy_26.1ns.avi;happy;9.0;congruent;120.0;150.0;155.9437854594882;h_h;;;;;0;2;2;2;;;;;;;207.63135319994763;None;209.12288219993934;209.43968640011735;210.6313444999978;210.64795019989833;212.564565599896;None;9;0;0.7022619999479502;212.564565599896;None;;;;;;;;6;;;;;;;214.13930319994688;None;None;None;[];214.13930319994688;None;['9'];[0.5198959000408649];214.13930319994688;None;;;S11308;2022_Mar_22_1646;VideoMask;2021.1.2;120.02640589858125;
0.0;f;040_y_f_h_a.jpg;happy;9.0;sad_138.1.wmv;sad;7.0;incongruent;120.0;160.0;133.99071306426532;h_s;;;;;0;3;3;3;;;;;;;217.14786930009723;None;218.4641857999377;218.78099919995293;219.91421389998868;219.93094140011817;221.92267960007302;None;8;0;1.0401241998188198;221.92267960007302;None;;;;;;;;3;;;;;;;223.47253070003353;None;None;None;[];223.47253070003353;None;"['7', '7']";"[1.4505477000493556, 1.8663335999008268]";223.47253070003353;None;;;S11308;2022_Mar_22_1646;VideoMask;2021.1.2;120.02640589858125;
8.0;f;028_y_f_s_a.jpg;sad;7.0;sad_64.2ns.avi;sad;7.0;congruent;130.0;160.0;229.88540597086478;s_s;;;;;0;4;4;4;;;;;;;226.47251800005324;None;228.62224699999206;228.93900620006025;230.13905999995768;230.1555878999643;241.07211580011062;None;7;0;0.8505897999275476;241.07211580011062;None;;;;;;;;4;;;;;;;242.6219401000999;None;None;None;[];242.6219401000999;None;"['7', '7']";"[0.8767023000400513, 1.988797300029546]";242.6219401000999;None;;;S11308;2022_Mar_22_1646;VideoMask;2021.1.2;120.02640589858125;
7.0;m;027_o_m_s_a.jpg;sad;7.0;sad_10.4ns.avi;sad;7.0;congruent;130.0;160.0;185.20129417468752;s_s;;;;;0;5;5;5;;;;;;;245.63885440002196;None;247.37998629990034;247.69674669997767;248.89676359994337;248.91339979995973;251.99663820001297;None;7;0;1.141974300146103;251.99663820001297;None;;;;;;;;2;;;;;;;253.54669500002638;None;None;None;[];253.54669500002638;None;"['7', '7', '7']";"[0.39209320000372827, 0.7279793999623507, 1.0802292998414487]";253.54669500002638;None;;;S11308;2022_Mar_22_1646;VideoMask;2021.1.2;120.02640589858125;
2.0;f;012_o_f_s_a.jpg;sad;7.0;sad_7.5ns.avi;sad;7.0;congruent;130.0;160.0;220.27842655424388;s_s;;;;;0;6;6;6;;;;;;;256.5466430000961;None;258.5713935000822;258.8880898000207;260.0547484001145;260.07136279996485;262.8134041999001;None;7;0;0.5893178998958319;262.8134041999001;None;;;;;;;;1;;;;;;;264.4129554000683;None;None;None;[];264.4129554000683;None;"['7', '7', '7', '7']";"[0.3417267999611795, 0.613601400051266, 0.9418238999787718, 1.3741401999723166]";264.4129554000683;None;;;S11308;2022_Mar_22_1646;VideoMask;2021.1.2;120.02640589858125;
2.0;f;012_o_f_h_a.jpg;happy;9.0;happy_27.1ns.avi;happy;9.0;congruent;120.0;150.0;146.44967055810616;h_h;;;;;0;7;7;7;;;;;;;267.4217509999871;None;268.83770320005715;269.15437390003353;270.4211305999197;270.4377228000667;272.7882507999893;None;9;0;0.8627694000024348;272.7882507999893;None;;;;;;;;7;;;;;;;274.71264029992744;None;None;None;[];274.71264029992744;None;"['9', '9']";"[0.4420914000365883, 0.8581383000127971]";274.71264029992744;None;;;S11308;2022_Mar_22_1646;VideoMask;2021.1.2;120.02640589858125;
8.0;f;028_y_f_h_a.jpg;happy;9.0;sad_119.1.wmv;sad;7.0;incongruent;120.0;160.0;148.71526953572538;h_s;;;;;0;8;8;8;;;;;;;277.71260900003836;None;279.15407659998164;279.47073410009034;280.6290855000261;280.6456665000878;282.6707009000238;None;7;0;0.8200785999651998;282.6707009000238;None;;;;;;;;3;;;;;;;284.2206528999377;None;None;None;[];284.2206528999377;None;"['7', '7']";"[0.3741884999908507, 0.6701288998592645]";284.2206528999377;None;;;S11308;2022_Mar_22_1646;VideoMask;2021.1.2;120.02640589858125;
6.0;m;016_y_m_s_a.jpg;sad;7.0;happy_60.4ns.avi;happy;9.0;incongruent;130.0;150.0;126.02367393611817;s_h;;;;;0;9;9;9;;;;;;;287.2290294999257;None;288.49536009994335;288.8121015999932;289.987807800062;290.0124621000141;295.7459277000744;None;9;0;0.7286202998366207;295.7459277000744;None;;;;;;;;7;;;;;;;297.4369163000956;None;None;None;[];297.4369163000956;None;"['9', '9', '9', '9']";"[0.3017763998359442, 0.7177624998148531, 1.4378128999378532, 1.9416183000430465]";297.4369163000956;None;;;S11308;2022_Mar_22_1646;VideoMask;2021.1.2;120.02640589858125;
9.0;f;019_m_f_s_a.jpg;sad;7.0;sad_8.4ns.avi;sad;7.0;congruent;130.0;160.0;171.6633093155257;s_s;;;;;0;10;10;10;;;;;;;300.4452531998977;None;302.11987840011716;302.43672619992867;303.57043289998546;303.5951239001006;311.7031676999759;None;7;0;1.0035034001339227;311.7031676999759;None;;;;;;;;4;;;;;;;313.2530489000492;None;None;None;[];313.2530489000492;None;['7'];[0.39796040020883083];313.2530489000492;None;;;S11308;2022_Mar_22_1646;VideoMask;2021.1.2;120.02640589858125;
4.0;m;004_o_m_h_a.jpg;happy;9.0;happy_1.1ns.avi;happy;9.0;congruent;120.0;150.0;203.50057144619865;h_h;;;;;0;11;11;11;;;;;;;316.261414000066;None;318.21928000007756;318.53620469989255;319.6862637999002;319.7028304000851;334.15243469993584;None;8;0;1.082276200177148;334.15243469993584;None;;;;;;;;3;;;;;;;335.7023835000582;None;None;None;[];335.7023835000582;None;"['7', '7']";"[0.7004901000764221, 1.0204280999023467]";335.7023835000582;None;;;S11308;2022_Mar_22_1646;VideoMask;2021.1.2;120.02640589858125;
7.0;m;027_o_m_h_a.jpg;happy;9.0;happy_20.1ns.avi;happy;9.0;congruent;120.0;150.0;152.91127178874285;h_h;;;;;0;12;12;12;;;;;;;338.7023066999391;None;340.1771050998941;340.49381970008835;341.65213770000264;341.6690966999158;344.64373450004496;None;9;0;0.8949122000485659;344.64373450004496;None;;;;;;;;4;;;;;;;346.19369710003957;None;None;None;[];346.19369710003957;None;"['7', '7']";"[0.9530273000709713, 1.6491295001469553]";346.19369710003957;None;;;S11308;2022_Mar_22_1646;VideoMask;2021.1.2;120.02640589858125;
0.0;f;040_y_f_s_a.jpg;sad;7.0;sad_94.3ns.avi;sad;7.0;congruent;130.0;160.0;155.27414203894395;s_s;;;;;0;13;13;13;;;;;;;349.19356340006925;None;350.67675730003975;350.99344020010903;352.23489550012164;352.25185040012;354.7518492001109;None;None;0;;354.7518492001109;None;;;;;;;;3;;;;;;;356.50982629996724;None;None;None;[];356.50982629996724;None;"['7', '7', '7']";"[10.273213200038299, 1.0449548999313265, 1.5727704998571426]";356.50982629996724;None;;;S11308;2022_Mar_22_1646;VideoMask;2021.1.2;120.02640589858125;
0.0;f;030_o_f_s_a.jpg;sad;7.0;sad_68.1ns.avi;sad;7.0;congruent;130.0;160.0;158.9411396037211;s_s;;;;;0;14;14;14;;;;;;;359.4932184999343;None;361.0347506001126;361.351527400082;362.5180184999481;362.5346254000906;369.9096818000544;None;7;0;0.6849344000220299;369.9096818000544;None;;;;;;;;3;;;;;;;371.46788470004685;None;None;None;[];371.46788470004685;None;"['7', '7', '7', '7']";"[0.31080139987170696, 0.7107100998982787, 1.23086589993909, 1.8148763000499457]";371.46788470004685;None;;;S11308;2022_Mar_22_1646;VideoMask;2021.1.2;120.02640589858125;
0.0;f;030_o_f_h_a.jpg;happy;9.0;sad_127.1.wmv;sad;7.0;incongruent;120.0;160.0;180.59976631384873;h_s;;;;;0;15;15;15;;;;;;;374.47633190010674;None;376.19263459998183;376.50935900001787;377.6344151000958;377.6510362001136;379.6426363000646;None;None;0;;379.6426363000646;None;;;;;;;;3;;;;;;;381.19240790000185;None;None;None;[];381.19240790000185;None;"['7', '7']";"[0.2421639000531286, 0.810249499976635]";381.19240790000185;None;;;S11308;2022_Mar_22_1646;VideoMask;2021.1.2;120.02640589858125;
8.0;m;008_y_m_s_a.jpg;sad;7.0;happy_133.3.wmv;happy;9.0;incongruent;130.0;150.0;152.577966552593;s_h;;;;;0;16;16;16;;;;;;;384.192646099953;None;385.6756533998996;385.9924451999832;387.11745600006543;387.1340085999109;389.1255840000231;None;9;0;0.692995399935171;389.1255840000231;None;;;;;;;;7;;;;;;;390.67563110007904;None;None;None;[];390.67563110007904;None;"['9', '9']";"[0.34299009991809726, 0.7510027999524027]";390.67563110007904;None;;;S11308;2022_Mar_22_1646;VideoMask;2021.1.2;120.02640589858125;
3.0;m;033_o_m_h_a.jpg;happy;9.0;sad_128.1.wmv;sad;7.0;incongruent;120.0;160.0;171.0492454518585;h_s;;;;;0;17;17;17;;;;;;;393.68393620010465;None;395.3253671999555;395.6420760001056;396.8002214001026;396.81701619992964;398.78394220001064;None;None;0;;398.78394220001064;None;;;;;;;;5;;;;;;;400.34203840000555;None;None;None;[];400.34203840000555;None;"['7', '7']";"[0.4445916002150625, 1.0605976001825184]";400.34203840000555;None;;;S11308;2022_Mar_22_1646;VideoMask;2021.1.2;120.02640589858125;
1.0;f;021_o_f_h_a.jpg;happy;9.0;sad_116.1.wmv;sad;7.0;incongruent;120.0;160.0;184.06847610053055;h_s;;;;;0;18;18;18;;;;;;;403.3420645000879;None;405.10838270001113;405.42502379999496;406.5666944999248;406.58341059996746;408.5584440000821;None;7;0;0.5882500999141484;408.5584440000821;None;;;;;;;;4;;;;;;;410.108404800063;None;None;None;[];410.108404800063;None;"['7', '7', '7']";"[0.510149999987334, 1.0782618999946862, 2.3022439000196755]";410.108404800063;None;;;S11308;2022_Mar_22_1646;VideoMask;2021.1.2;120.02640589858125;
4.0;m;004_o_m_s_a.jpg;sad;7.0;happy_28.1ns.avi;happy;9.0;incongruent;130.0;150.0;157.40741103039684;s_h;;;;;0;19;19;19;;;;;;;413.1167069999501;None;414.6246911000926;414.94147649989463;416.1252453001216;416.14980920008384;420.46646949998103;None;9;0;0.6480529999826103;420.46646949998103;None;;;;;;;;7;;;;;;;422.0163221000694;None;None;None;[];422.0163221000694;None;"['9', '9', '9']";"[0.3384217000566423, 0.8262471000198275, 1.514381199842319]";422.0163221000694;None;;;S11308;2022_Mar_22_1646;VideoMask;2021.1.2;120.02640589858125;
8.0;f;028_y_f_s_a.jpg;sad;7.0;happy_122.3.wmv;happy;9.0;incongruent;130.0;150.0;171.8670540936116;s_h;;;;;0;20;20;20;;;;;;;425.0163485999219;None;426.65768250008114;426.9744400999043;428.1165092999581;428.1411337000318;430.1077610999346;None;9;0;0.5189065001904964;430.1077610999346;None;;;;;;;;8;;;;;;;431.68269850010984;None;None;None;[];431.68269850010984;None;"['9', '9', '9', '9']";"[0.3438824999611825, 0.9602866999339312, 1.6562302999664098, 2.648217200068757]";431.68269850010984;None;;;S11308;2022_Mar_22_1646;VideoMask;2021.1.2;120.02640589858125;
8.0;m;008_y_m_s_a.jpg;sad;7.0;sad_6.5ns.avi;sad;7.0;congruent;130.0;160.0;170.39333839271438;s_s;;;;;0;21;21;21;;;;;;;434.68272919999436;None;436.30734269996174;436.62413159990683;437.7995732999407;437.8241204000078;442.7574680999387;None;7;0;0.6771896001882851;442.7574680999387;None;;;;;;;;4;;;;;;;444.3073102000635;None;None;None;[];444.3073102000635;None;['7'];[0.5834487001411617];444.3073102000635;None;;;S11308;2022_Mar_22_1646;VideoMask;2021.1.2;120.02640589858125;
8.0;f;028_y_f_h_a.jpg;happy;9.0;happy_23.1ns.avi;happy;9.0;congruent;120.0;150.0;225.70986890587952;h_h;;;;;0;22;22;22;;;;;;;447.31561810011044;None;449.3987227000762;449.71548209991306;450.906789700035;450.92361659999005;455.4236035000067;None;None;0;;455.4236035000067;None;;;;;;;;7;;;;;;;456.9733667001128;None;None;None;[];456.9733667001128;None;"['9', '9']";"[0.3894868998322636, 0.8293705999385566]";456.9733667001128;None;;;S11308;2022_Mar_22_1646;VideoMask;2021.1.2;120.02640589858125;
8.0;m;008_y_m_h_a.jpg;happy;9.0;sad_111.1.wmv;sad;7.0;incongruent;120.0;160.0;152.63076835312847;h_s;;;;;0;23;23;23;;;;;;;459.9735365000088;None;461.4483692001086;461.7650254999753;462.9233725001104;462.9399337999057;464.8983086999506;None;7;0;1.0083268000744283;464.8983086999506;None;;;;;;;;2;;;;;;;466.44825830007903;None;None;None;[];466.44825830007903;None;"['7', '7', '7']";"[0.5623025998938829, 0.8663697999436408, 1.1542489998973906]";466.44825830007903;None;;;S11308;2022_Mar_22_1646;VideoMask;2021.1.2;120.02640589858125;
0.0;f;040_y_f_s_a.jpg;sad;7.0;sad_67.2ns.avi;sad;7.0;congruent;130.0;160.0;220.9892697323079;s_s;;;;;0;24;24;24;;;;;;;469.4483290000353;None;471.506292300066;471.8231033999473;473.0064435999375;473.02301730006;482.18103479989804;None;7;0;0.509710299782455;482.18103479989804;None;;;;;;;;2;;;;;;;483.7310484999325;None;None;None;[];483.7310484999325;None;"['7', '7', '7']";"[0.0796005001757294, 0.4555340001825243, 0.7755497000180185]";483.7310484999325;None;;;S11308;2022_Mar_22_1646;VideoMask;2021.1.2;120.02640589858125;
8.0;m;008_y_m_s_a.jpg;sad;7.0;happy_29.1ns.avi;happy;9.0;incongruent;130.0;150.0;120.0316142834122;s_h;;;;;0;25;25;25;;;;;;;486.7393678999506;None;487.93914590007626;488.2557884999551;489.39757760008797;489.4142330000177;492.0895094999578;None;9;0;0.9931098001543432;492.0895094999578;None;;;;;;;;8;;;;;;;493.78075339994393;None;None;None;[];493.78075339994393;None;"['9', '9', '9']";"[0.2938439999707043, 0.5978059000335634, 0.8777250000275671]";493.78075339994393;None;;;S11308;2022_Mar_22_1646;VideoMask;2021.1.2;120.02640589858125;
6.0;m;016_y_m_s_a.jpg;sad;7.0;sad_8.3ns.avi;sad;7.0;congruent;130.0;160.0;152.85371098242734;s_s;;;;;0;26;26;26;;;;;;;496.78913299995475;None;498.2721476999577;498.58886180003174;499.73024379997514;499.74724159995094;507.4803204999771;None;7;0;0.9382660000119358;507.4803204999771;None;;;;;;;;4;;;;;;;509.03022759989835;None;None;None;[];509.03022759989835;None;['7'];[0.34086319990456104];509.03022759989835;None;;;S11308;2022_Mar_22_1646;VideoMask;2021.1.2;120.02640589858125;
6.0;m;016_y_m_h_a.jpg;happy;9.0;sad_114.1.wmv;sad;7.0;incongruent;120.0;160.0;136.20550699298644;h_s;;;;;0;27;27;27;;;;;;;512.0302200000733;None;513.3800051000435;513.6967245000415;514.830183000071;514.8468635999598;516.8300312000792;None;7;0;0.40446330001577735;516.8300312000792;None;;;;;;;;3;;;;;;;518.3799699000083;None;None;None;[];518.3799699000083;None;"['7', '7', '7', '7', '7']";"[0.10268849995918572, 0.43873600009828806, 0.6786340000107884, 0.9104411001317203, 1.1184807000681758]";518.3799699000083;None;;;S11308;2022_Mar_22_1646;VideoMask;2021.1.2;120.02640589858125;
7.0;m;027_o_m_s_a.jpg;sad;7.0;happy_117.3.wmv;happy;9.0;incongruent;130.0;150.0;215.61964028550614;s_h;;;;;0;28;28;28;;;;;;;521.3882993001025;None;523.3963572999928;523.7130444999784;524.8381882000249;524.854866300011;526.8463405000512;None;9;0;0.7082682000473142;526.8463405000512;None;;;;;;;;8;;;;;;;528.3963371000718;None;None;None;[];528.3963371000718;None;"['9', '9', '9', '9']";"[0.31016830005683005, 0.6861864998936653, 1.070173199987039, 1.478303899988532]";528.3963371000718;None;;;S11308;2022_Mar_22_1646;VideoMask;2021.1.2;120.02640589858125;
6.0;m;016_y_m_h_a.jpg;happy;9.0;happy_9.2ns.avi;happy;9.0;congruent;120.0;150.0;130.52042428082717;h_h;;;;;0;29;29;29;;;;;;;531.4045752000529;None;532.6960456001107;533.0128204999492;534.2045481000096;534.2211108999327;540.0710028999019;None;9;0;0.4435741000343114;540.0710028999019;None;;;;;;;;9;;;;;;;541.6208901000209;None;None;None;[];541.6208901000209;None;"['9', '9', '9', '9']";"[0.2857419999781996, 0.605758799938485, 0.8856017999351025, 1.1818239998538047]";541.6208901000209;None;;;S11308;2022_Mar_22_1646;VideoMask;2021.1.2;120.02640589858125;
0.0;f;040_y_f_s_a.jpg;sad;7.0;happy_127.3.wmv;happy;9.0;incongruent;130.0;150.0;131.7195455720239;s_h;;;;;0;30;30;30;;;;;;;544.6291988000739;None;545.9456303999759;546.262392600067;547.3874592001084;547.4041142000351;549.4623465000186;None;9;0;1.2121249998454005;549.4623465000186;None;;;;;;;;8;;;;;;;551.0122682999354;None;None;None;[];551.0122682999354;None;"['9', '9', '9', '9']";"[0.39835600019432604, 0.6622194000519812, 0.8862239001318812, 1.1262593001592904]";551.0122682999354;None;;;S11308;2022_Mar_22_1646;VideoMask;2021.1.2;120.02640589858125;
0.0;f;030_o_f_s_a.jpg;sad;7.0;happy_125.3.wmv;happy;9.0;incongruent;130.0;150.0;220.51454909128134;s_h;;;;;0;31;31;31;;;;;;;554.0122903999873;None;556.0620532000903;556.3787279999815;557.5200924000237;557.5370587999932;559.5119892999064;None;9;0;0.6107882999349385;559.5119892999064;None;;;;;;;;6;;;;;;;561.0952649000101;None;None;None;[];561.0952649000101;None;['9'];[0.4273401000536978];561.0952649000101;None;;;S11308;2022_Mar_22_1646;VideoMask;2021.1.2;120.02640589858125;
0.0;f;030_o_f_s_a.jpg;sad;7.0;sad_64.3ns.avi;sad;7.0;congruent;130.0;160.0;165.78667874766072;s_s;;;;;0;32;32;32;;;;;;;564.103695299942;None;565.6950036000926;566.020311600063;567.1534055999946;567.1701110000722;572.1450112001039;None;7;0;0.5377052000258118;572.1450112001039;None;;;;;;;;1;;;;;;;573.6949237999506;None;None;None;[];573.6949237999506;None;"['7', '7', '7', '7']";"[0.31576719996519387, 0.6115774000063539, 0.8757100000511855, 1.627737700007856]";573.6949237999506;None;;;S11308;2022_Mar_22_1646;VideoMask;2021.1.2;120.02640589858125;
3.0;m;013_y_m_s_a.jpg;sad;7.0;sad_7.7ns.avi;sad;7.0;congruent;130.0;160.0;196.24182255763262;s_s;;;;;0;33;33;33;;;;;;;576.6948702998925;None;578.5362883999478;578.8530759999994;580.0194685000461;580.0361814000644;585.9862287000287;None;7;0;0.41636269981972873;585.9862287000287;None;;;;;;;;2;;;;;;;587.5610627001151;None;None;None;[];587.5610627001151;None;"['7', '7', '7', '7', '7']";"[0.2896398000884801, 0.7135109999217093, 0.9854613000061363, 1.2414943999610841, 1.5775258000940084]";587.5610627001151;None;;;S11308;2022_Mar_22_1646;VideoMask;2021.1.2;120.02640589858125;
3.0;m;013_y_m_h_a.jpg;happy;9.0;happy_9.1ns.avi;happy;9.0;congruent;120.0;150.0;165.1890303600433;h_h;;;;;0;34;34;34;;;;;;;590.5611745999195;None;592.1359932001214;592.45255669998;593.6359039000235;593.652580199996;596.8108322001062;None;9;0;0.47181100002489984;596.8108322001062;None;;;;;;;;9;;;;;;;598.3607811999973;None;None;None;[];598.3607811999973;None;"['9', '9', '9', '9']";"[0.13769819983281195, 0.321739399805665, 0.609722499968484, 1.033844699850306]";598.3607811999973;None;;;S11308;2022_Mar_22_1646;VideoMask;2021.1.2;120.02640589858125;
4.0;m;004_o_m_h_a.jpg;happy;9.0;sad_95.1ns.avi;sad;7.0;incongruent;120.0;160.0;152.68270002069931;h_s;;;;;0;35;35;35;;;;;;;601.3608655000571;None;602.8522582999431;603.1689657000825;604.3439539999235;604.3606108000968;613.0937198000029;None;7;0;0.500858899904415;613.0937198000029;None;;;;;;;;1;;;;;;;614.6519420999102;None;None;None;[];614.6519420999102;None;"['7', '7', '7', '7']";"[0.3506893999874592, 0.5505398998502642, 0.7666146999690682, 0.9825576997827739]";614.6519420999102;None;;;S11308;2022_Mar_22_1646;VideoMask;2021.1.2;120.02640589858125;
3.0;m;013_y_m_h_a.jpg;happy;9.0;sad_113.2.wmv;sad;7.0;incongruent;120.0;160.0;217.4973891947951;h_s;;;;;0;36;36;36;;;;;;;617.6518359000329;None;619.6768596000038;619.9934217000846;621.1184863999952;621.1350704999641;623.1350632000249;None;None;0;;623.1350632000249;None;;;;;;;;4;;;;;;;624.6932948001195;None;None;None;[];624.6932948001195;None;['7'];[0.9251631000079215];624.6932948001195;None;;;S11308;2022_Mar_22_1646;VideoMask;2021.1.2;120.02640589858125;
4.0;m;004_o_m_h_a.jpg;happy;9.0;happy_25.1ns.avi;happy;9.0;congruent;120.0;150.0;216.63044503818386;h_h;;;;;0;37;37;37;;;;;;;627.6933508999646;None;629.7013737999368;630.0180432999041;631.1846702999901;631.2017725999467;634.8431438000407;None;9;0;1.303552099969238;634.8431438000407;None;;;;;;;;6;;;;;;;636.4012607999612;None;None;None;[];636.4012607999612;None;"['9', '9']";"[0.393405299866572, 0.8814005998428911]";636.4012607999612;None;;;S11308;2022_Mar_22_1646;VideoMask;2021.1.2;120.02640589858125;
4.0;m;004_o_m_s_a.jpg;sad;7.0;happy_131.2.wmv;happy;9.0;incongruent;130.0;150.0;181.38407540847405;s_h;;;;;0;38;38;38;;;;;;;639.4012190001085;None;641.1176376000512;641.4343514000066;642.5675397999585;642.5844497000799;644.5676657999866;None;9;0;0.6668490001466125;644.5676657999866;None;;;;;;;;7;;;;;;;646.1176309001166;None;None;None;[];646.1176309001166;None;"['9', '9']";"[0.30886839982122183, 0.6129556000232697]";646.1176309001166;None;;;S11308;2022_Mar_22_1646;VideoMask;2021.1.2;120.02640589858125;
0.0;f;040_y_f_h_a.jpg;happy;9.0;happy_24.3ns.avi;happy;9.0;congruent;120.0;150.0;213.25460698950434;h_h;;;;;0;39;39;39;;;;;;;649.1260142999236;None;651.0923113999888;651.4090213000309;652.542458999902;652.5590836000629;654.4674424999394;None;9;0;1.1990870998706669;654.4674424999394;None;;;;;;;;5;;;;;;;656.0255422999617;None;None;None;[];656.0255422999617;None;None;;656.0255422999617;None;;;S11308;2022_Mar_22_1646;VideoMask;2021.1.2;120.02640589858125;
2.0;f;012_o_f_s_a.jpg;sad;7.0;happy_139.1.wmv;happy;9.0;incongruent;130.0;150.0;162.31500468041804;s_h;;;;;0;40;40;40;;;;;;;659.0421428999398;None;660.5919776998926;660.9087634999305;662.0425772999879;662.0671411000658;664.0420399999712;None;9;0;0.6885303999297321;664.0420399999712;None;;;;;;;;6;;;;;;;665.5920192000922;None;None;None;[];665.5920192000922;None;"['9', '9']";"[0.5944071998819709, 1.2506937000434846]";665.5920192000922;None;;;S11308;2022_Mar_22_1646;VideoMask;2021.1.2;120.02640589858125;
0.0;f;030_o_f_h_a.jpg;happy;9.0;happy_24.1ns.avi;happy;9.0;congruent;120.0;150.0;168.36256624020774;h_h;;;;;0;41;41;41;;;;;;;668.5919367999304;None;670.1917467000894;670.5084450999275;671.7166768000461;671.7334386000875;674.9668696001172;None;9;0;0.6997668999247253;674.9668696001172;None;;;;;;;;7;;;;;;;676.5166782001033;None;None;None;[];676.5166782001033;None;"['9', '9']";"[0.32590679987333715, 0.6538586998358369]";676.5166782001033;None;;;S11308;2022_Mar_22_1646;VideoMask;2021.1.2;120.02640589858125;
2.0;f;012_o_f_h_a.jpg;happy;9.0;sad_113.1.wmv;sad;7.0;incongruent;120.0;160.0;177.44551734737394;h_s;;;;;0;42;42;42;;;;;;;679.5165832999628;None;681.2080743000843;681.5249562999234;682.6748866999988;682.6914959000424;684.6581015998963;None;None;0;;684.6581015998963;None;;;;;;;;4;;;;;;;686.2078372000251;None;None;None;[];686.2078372000251;None;"['7', '7']";"[0.8029219000600278, 1.6667654998600483]";686.2078372000251;None;;;S11308;2022_Mar_22_1646;VideoMask;2021.1.2;120.02640589858125;
3.0;m;033_o_m_s_a.jpg;sad;7.0;sad_64.5ns.avi;sad;7.0;congruent;130.0;160.0;130.55717223801247;s_s;;;;;0;43;43;43;;;;;;;689.2079809999559;None;690.5077305999584;690.8244857001118;691.9994409000501;692.0161846000701;698.541193000041;None;7;0;0.7173056001774967;698.541193000041;None;;;;;;;;1;;;;;;;700.0909351001028;None;None;None;[];700.0909351001028;None;"['7', '7', '7', '7']";"[0.35159999993629754, 0.5915044001303613, 0.839418499963358, 1.0714952999260277]";700.0909351001028;None;;;S11308;2022_Mar_22_1646;VideoMask;2021.1.2;120.02640589858125;
7.0;m;027_o_m_h_a.jpg;happy;9.0;sad_117.1.wmv;sad;7.0;incongruent;120.0;160.0;181.28665202824095;h_s;;;;;0;44;44;44;;;;;;;703.0908371999394;None;704.8072929999325;705.1240465999581;706.2661560000852;706.2907191000413;708.2573857000098;None;8;0;1.4571803000289947;708.2573857000098;None;;;;;;;;5;;;;;;;709.8073118000757;None;None;None;[];709.8073118000757;None;None;;709.8073118000757;None;;;S11308;2022_Mar_22_1646;VideoMask;2021.1.2;120.02640589858125;
3.0;m;033_o_m_s_a.jpg;sad;7.0;happy_126.3.wmv;happy;9.0;incongruent;130.0;150.0;198.85252030535366;s_h;;;;;0;45;45;45;;;;;;;712.8405575999059;None;714.6987374001183;715.0153351000044;716.148549699923;716.1653986999299;718.1577171001118;None;9;0;0.8687371998094022;718.1577171001118;None;;;;;;;;7;;;;;;;719.8903111000545;None;None;None;[];719.8903111000545;None;"['9', '9']";"[0.4082901000510901, 1.0401236999314278]";719.8903111000545;None;;;S11308;2022_Mar_22_1646;VideoMask;2021.1.2;120.02640589858125;
3.0;m;033_o_m_h_a.jpg;happy;9.0;sad_136.1.wmv;sad;7.0;incongruent;120.0;160.0;176.97002883463455;h_s;;;;;0;46;46;46;;;;;;;722.8902171999216;None;724.5649914999958;724.8818030999973;726.0068739000708;726.0233853999525;728.015200200025;None;7;0;1.3711683999281377;728.015200200025;None;;;;;;;;4;;;;;;;729.565011800034;None;None;None;[];729.565011800034;None;['7'];[0.8138562000822276];729.565011800034;None;;;S11308;2022_Mar_22_1646;VideoMask;2021.1.2;120.02640589858125;
9.0;f;019_m_f_h_a.jpg;happy;9.0;happy_10.1ns.avi;happy;9.0;congruent;120.0;150.0;157.2463435658512;h_h;;;;;0;47;47;47;;;;;;;732.573325100122;None;734.0980793999042;734.4148560001049;735.5899030000437;735.6064784000628;742.9896313000936;None;9;0;0.860876000020653;742.9896313000936;None;;;;;;;;7;;;;;;;744.5395235999022;None;None;None;[];744.5395235999022;None;"['9', '9']";"[0.3992526000365615, 0.7510828000959009]";744.5395235999022;None;;;S11308;2022_Mar_22_1646;VideoMask;2021.1.2;120.02640589858125;
2.0;f;012_o_f_h_a.jpg;happy;9.0;happy_2.2ns.avi;happy;9.0;congruent;120.0;150.0;206.34800317295262;h_h;;;;;0;48;48;48;;;;;;;747.5479341999162;None;749.5058407001197;749.8226558999158;750.964346599998;750.9816237001214;763.1640349000227;None;9;0;0.5985103000421077;763.1640349000227;None;;;;;;;;8;;;;;;;764.7222317000851;None;None;None;[];764.7222317000851;None;"['9', '9', '9']";"[0.36827189987525344, 0.696128600044176, 0.9761787999887019]";764.7222317000851;None;;;S11308;2022_Mar_22_1646;VideoMask;2021.1.2;120.02640589858125;
3.0;m;033_o_m_h_a.jpg;happy;9.0;happy_24.2ns.avi;happy;9.0;congruent;120.0;150.0;167.9423847659953;h_h;;;;;0;49;49;49;;;;;;;767.7306154998951;None;769.3219622001052;769.6387960000429;770.8053341000341;770.8220337000675;774.4970813998953;None;9;0;0.8094173998106271;774.4970813998953;None;;;;;;;;7;;;;;;;776.1801929001231;None;None;None;[];776.1801929001231;None;"['9', '9']";"[0.7102463999763131, 1.0382899998221546]";776.1801929001231;None;;;S11308;2022_Mar_22_1646;VideoMask;2021.1.2;120.02640589858125;
1.0;f;021_o_f_s_a.jpg;sad;7.0;happy_61.2ns.avi;happy;9.0;incongruent;130.0;150.0;210.94664004826666;s_h;;;;;0;50;50;50;;;;;;;779.1885820000898;None;781.1381991999224;781.4549869000912;782.5970992001239;782.6217016999144;787.1215228000656;None;9;0;1.2570601000916213;787.1215228000656;None;;;;;;;;5;;;;;;;788.6714947000146;None;None;None;[];788.6714947000146;None;None;;788.6714947000146;None;;;S11308;2022_Mar_22_1646;VideoMask;2021.1.2;120.02640589858125;
4.0;m;004_o_m_s_a.jpg;sad;7.0;sad_2.4ns.avi;sad;7.0;congruent;130.0;160.0;153.02079367163634;s_s;;;;;0;51;51;51;;;;;;;791.6962584001012;None;793.1962047999259;793.5129311000928;794.6796705999877;794.6963076998945;802.6044695999008;None;7;0;0.7900319001637399;802.6044695999008;None;;;;;;;;4;;;;;;;804.1626538001001;None;None;None;[];804.1626538001001;None;['7'];[0.3838814999908209];804.1626538001001;None;;;S11308;2022_Mar_22_1646;VideoMask;2021.1.2;120.02640589858125;
8.0;m;008_y_m_h_a.jpg;happy;9.0;happy_1.2ns.avi;happy;9.0;congruent;120.0;150.0;210.98946429383824;h_h;;;;;0;52;52;52;;;;;;;807.1625725000631;None;809.1625423999503;809.479134199908;810.6291404999793;810.6456059999764;823.4038186999969;None;9;0;0.47072260011918843;823.4038186999969;None;;;;;;;;8;;;;;;;824.9536584001034;None;None;None;[];824.9536584001034;None;"['9', '9', '9', '9']";"[0.39278120012022555, 0.7608299001585692, 1.1206344000529498, 1.4968638001009822]";824.9536584001034;None;;;S11308;2022_Mar_22_1646;VideoMask;2021.1.2;120.02640589858125;
2.0;f;012_o_f_s_a.jpg;sad;7.0;happy_52.2ns.avi;happy;9.0;incongruent;130.0;150.0;172.57202848318138;s_h;;;;;0;53;53;53;;;;;;;827.9620407000184;None;829.58671459998;829.9035465000197;831.0538781001233;831.0784678000491;834.5868404000066;None;9;0;0.6075301999226213;834.5868404000066;None;;;;;;;;8;;;;;;;836.1367019000463;None;None;None;[];836.1367019000463;None;"['9', '9', '9', '9']";"[0.31371999997645617, 0.6179116000421345, 0.9137659000698477, 1.2818336999043822]";836.1367019000463;None;;;S11308;2022_Mar_22_1646;VideoMask;2021.1.2;120.02640589858125;
9.0;f;019_m_f_s_a.jpg;sad;7.0;happy_61.1ns.avi;happy;9.0;incongruent;130.0;150.0;181.3003220572762;s_h;;;;;0;54;54;54;;;;;;;839.1448907000013;None;840.8780483000446;841.1949108000845;842.3281010999344;842.3447074000724;849.719805700006;None;9;0;0.7707326000090688;849.719805700006;None;;;;;;;;5;;;;;;;851.2778564000037;None;None;None;[];851.2778564000037;None;None;;851.2778564000037;None;;;S11308;2022_Mar_22_1646;VideoMask;2021.1.2;120.02640589858125;
0.0;f;030_o_f_h_a.jpg;happy;9.0;sad_133.1.wmv;sad;7.0;incongruent;120.0;160.0;198.86251500867985;h_s;;;;;0;55;55;55;;;;;;;854.2943597999401;None;856.1525514998939;856.469391599996;857.5944213001058;857.6109776000958;859.6026079999283;None;7;0;1.0399126000702381;859.6026079999283;None;;;;;;;;2;;;;;;;861.1525393000338;None;None;None;[];861.1525393000338;None;"['7', '7', '7', '7']";"[0.39395110006444156, 0.7139767000917345, 1.0098053999245167, 1.3459824998863041]";861.1525393000338;None;;;S11308;2022_Mar_22_1646;VideoMask;2021.1.2;120.02640589858125;
0.0;f;040_y_f_h_a.jpg;happy;9.0;sad_128.2.wmv;sad;7.0;incongruent;120.0;160.0;206.10005857915363;h_s;;;;;0;56;56;56;;;;;;;864.1608726000413;None;866.0855721000116;866.4023565000389;867.5689292000607;867.5855805999599;869.5355984999333;None;7;0;1.2829376000445336;869.5355984999333;None;;;;;;;;3;;;;;;;871.0854436999653;None;None;None;[];871.0854436999653;None;"['7', '7']";"[0.373003400163725, 0.6369096001144499]";871.0854436999653;None;;;S11308;2022_Mar_22_1646;VideoMask;2021.1.2;120.02640589858125;
1.0;f;021_o_f_s_a.jpg;sad;7.0;sad_9.5ns.avi;sad;7.0;congruent;130.0;160.0;206.16642757875042;s_s;;;;;0;57;57;57;;;;;;;874.0855688999873;None;876.0102947999258;876.3270360999741;877.5018190999981;877.5187530999538;883.1852069001179;None;7;0;0.4732684998307377;883.1852069001179;None;;;;;;;;1;;;;;;;884.7351309999358;None;None;None;[];884.7351309999358;None;"['7', '7', '7', '7', '7']";"[0.003408099990338087, 0.3632144001312554, 0.5872248001396656, 0.787237900076434, 0.979249200085178]";884.7351309999358;None;;;S11308;2022_Mar_22_1646;VideoMask;2021.1.2;120.02640589858125;
1.0;f;021_o_f_h_a.jpg;happy;9.0;happy_12.1ns.avi;happy;9.0;congruent;120.0;150.0;132.59080005900228;h_h;;;;;0;58;58;58;;;;;;;887.7351895999163;None;889.0598476999439;889.3765879001003;890.5516419000924;890.5682781999931;898.1264742999338;None;9;0;0.7643116000108421;898.1264742999338;None;;;;;;;;8;;;;;;;899.6846672999673;None;None;None;[];899.6846672999673;None;"['9', '9', '9', '9']";"[0.3336937001440674, 0.9737631999887526, 1.3178672001231462, 1.9177723000757396]";899.6846672999673;None;;;S11308;2022_Mar_22_1646;VideoMask;2021.1.2;120.02640589858125;
3.0;m;013_y_m_s_a.jpg;sad;7.0;happy_56.2ns.avi;happy;9.0;incongruent;130.0;150.0;163.39234110935848;s_h;;;;;0;59;59;59;;;;;;;902.6929931999184;None;904.2593797999434;904.5761522001121;905.8180275000632;905.8427655000705;910.7344937000889;None;9;0;1.3637962001375854;910.7344937000889;None;;;;;;;;5;;;;;;;912.2842586999759;None;None;None;[];912.2842586999759;None;None;;912.2842586999759;None;;;S11308;2022_Mar_22_1646;VideoMask;2021.1.2;120.02640589858125;
;;;;;;;;;;;;;;;;;;;;;;;;;;;;;;;;;;;;;;;;;;;;;;;;;;;;;;;;;;;;;;;;;915.3092453000136;None;;;;;;
