primePerson;primeGender;prime;primeEmotion;corrAnsPrime;target;targetEmotion;corrAnsTar;Cond;ID_Primer;ID_Target;JitterTime;Condition;example.thisRepN;example.thisTrialN;example.thisN;example.thisIndex;study.thisRepN;study.thisTrialN;study.thisN;study.thisIndex;MR_trigger_time;MR_trigger_number;text_intro.started;text_intro.stopped;text_probe.started;text_probe.stopped;polygon_ISI.started;polygon_ISI.stopped;polygon.started;polygon.stopped;primerImage.started;primerImage.stopped;response.started;response.stopped;key_resp.keys;key_resp.corr;key_resp.rt;key_resp.started;key_resp.stopped;slider_Text.started;slider_Text.stopped;slider_ex.response;slider_ex.rt;slider_ex.history;slider_ex.started;slider_ex.stopped;Rating;slider_resp_response.keys;slider_resp_response.rt;slider_resp_response.started;slider_resp_response.stopped;text_start.started;text_start.stopped;text_slider.started;text_slider.stopped;slider_stud.response;slider_stud.rt;slider_stud.history;slider_stud.started;slider_stud.stopped;slider_resp_study.keys;slider_resp_study.rt;slider_resp_study.started;slider_resp_study.stopped;text_ende.started;text_ende.stopped;participant;date;expName;psychopyVersion;frameRate;
1111;m;1111_m_m_h_a.jpg;happy;9;example_30.4ns.avi;neutral;7;incongruent;120.0;170.0;189.5874364012288;;0;0;0;0;;;;;25.034689699998125;1;25.128926899982616;27.12901270017028;27.12901270017028;None;29.146323000080884;None;31.47069049999118;31.79551130020991;33.02949550002813;33.06234820000827;37.2620683000423;None;9;0;0.6726920001674443;37.2620683000423;None;38.82867419999093;None;None;None;[];38.82867419999093;None;7;"['9', '9']";"[1.6336888000369072, 2.1776051002088934]";38.82867419999093;None;;;;;;;;;;;;;;;;S11726;2022_Sep_07_1611;VideoMask;2021.1.2;120.05306357863276;
1113;f;1113_y_f_s_a.jpg;sad;7;example_30.3ns.avi;neutral;7;incongruent;130.0;170.0;229.02432995836998;;0;1;1;1;;;;;;;;;;;41.820310699986294;None;43.9367148000747;44.25341320014559;45.40334410010837;45.42011690000072;47.38665060000494;None;8;0;0.8437524999026209;47.38665060000494;None;48.93658490013331;None;None;None;[];48.93658490013331;None;5;None;;48.93658490013331;None;;;;;;;;;;;;;;;;S11726;2022_Sep_07_1611;VideoMask;2021.1.2;120.05306357863276;
9.0;f;019_m_f_h_a.jpg;happy;9.0;sad_115.1.wmv;sad;7.0;incongruent;120.0;160.0;128.09063432376465;h_s;;;;;0;0;0;0;;;;;;;52.98648290010169;None;54.26141220005229;54.577990900026634;55.728136599995196;55.74477670015767;57.71972579997964;None;7;0;1.0947241999674588;57.71972579997964;None;;;;;;;;1;;;;;51.961599100148305;None;59.2696943001356;None;None;None;[];59.2696943001356;None;"['7', '7', '7', '7']";"[0.7768810000270605, 1.0406291000545025, 1.5207006998825818, 2.440708399983123]";59.2696943001356;None;;;S11726;2022_Sep_07_1611;VideoMask;2021.1.2;120.05306357863276;
3.0;m;033_o_m_s_a.jpg;sad;7.0;sad_94.2ns.avi;sad;7.0;congruent;130.0;160.0;182.29120173647655;s_s;;;;;0;1;1;1;;;;;;;62.26131730014458;None;63.994380900170654;64.3111865001265;65.43607000005431;65.45280950004235;68.13601260003634;None;7;0;0.4703349000774324;68.13601260003634;None;;;;;;;;2;;;;;;;69.68591030011885;None;None;None;[];69.68591030011885;None;"['7', '7', '7']";"[0.4405086000915617, 0.6724237999878824, 1.2725094999186695]";69.68591030011885;None;;;S11726;2022_Sep_07_1611;VideoMask;2021.1.2;120.05306357863276;
8.0;m;008_y_m_h_a.jpg;happy;9.0;happy_26.1ns.avi;happy;9.0;congruent;120.0;150.0;155.9437854594882;h_h;;;;;0;2;2;2;;;;;;;72.69432000000961;None;74.18565540015697;74.50248730019666;75.7274743001908;75.7447813001927;77.62754650018178;None;9;0;0.458765999879688;77.62754650018178;None;;;;;;;;9;;;;;;;79.17716050008312;None;None;None;[];79.17716050008312;None;"['9', '9', '9', '9']";"[0.46122090006247163, 0.7171853999607265, 0.9650469000916928, 1.6291863000951707]";79.17716050008312;None;;;S11726;2022_Sep_07_1611;VideoMask;2021.1.2;120.05306357863276;
0.0;f;040_y_f_h_a.jpg;happy;9.0;sad_138.1.wmv;sad;7.0;incongruent;120.0;160.0;133.99071306426532;h_s;;;;;0;3;3;3;;;;;;;82.18563500000164;None;83.51061650016345;83.82726100017317;84.95231550000608;84.9688864001073;86.96059130015783;None;8;0;1.301763700088486;86.96059130015783;None;;;;;;;;4;;;;;;;88.5104171000421;None;None;None;[];88.5104171000421;None;['7'];[0.6958746998570859];88.5104171000421;None;;;S11726;2022_Sep_07_1611;VideoMask;2021.1.2;120.05306357863276;
8.0;f;028_y_f_s_a.jpg;sad;7.0;sad_64.2ns.avi;sad;7.0;congruent;130.0;160.0;229.88540597086478;s_s;;;;;0;4;4;4;;;;;;;91.51037020003423;None;93.7019212001469;94.01855050004087;95.15169150009751;95.16835779999383;106.16813210002147;None;7;0;0.45444760005921125;106.16813210002147;None;;;;;;;;3;;;;;;;107.718165300088;None;None;None;[];107.718165300088;None;"['7', '7', '7']";"[0.3602519000414759, 0.8401748000178486, 1.5843323001172394]";107.718165300088;None;;;S11726;2022_Sep_07_1611;VideoMask;2021.1.2;120.05306357863276;
7.0;m;027_o_m_s_a.jpg;sad;7.0;sad_10.4ns.avi;sad;7.0;congruent;130.0;160.0;185.20129417468752;s_s;;;;;0;5;5;5;;;;;;;110.7264979002066;None;112.47617859998718;112.79290920007043;113.976338500157;113.99270080006681;117.09304430009797;None;7;0;0.545216899830848;117.09304430009797;None;;;;;;;;2;;;;;;;118.64280140004121;None;None;None;[];118.64280140004121;None;"['7', '7', '7', '7', '7', '7', '7', '7', '7']";"[0.4434791998937726, 0.6435608000028878, 0.8435879000462592, 1.035514699993655, 1.2355128999333829, 1.6354848998598754, 1.8354805000126362, 2.0594833998475224, 2.603493999922648]";118.64280140004121;None;;;S11726;2022_Sep_07_1611;VideoMask;2021.1.2;120.05306357863276;
2.0;f;012_o_f_s_a.jpg;sad;7.0;sad_7.5ns.avi;sad;7.0;congruent;130.0;160.0;220.27842655424388;s_s;;;;;0;6;6;6;;;;;;;121.64276020019315;None;123.67583309998736;123.99257490015589;125.1842807000503;125.20088490005583;127.91766130016185;None;7;0;0.3768974000122398;127.91766130016185;None;;;;;;;;3;;;;;;;129.48401590017602;None;None;None;[];129.48401590017602;None;"['7', '7']";"[0.490337299881503, 0.7542943998705596]";129.48401590017602;None;;;S11726;2022_Sep_07_1611;VideoMask;2021.1.2;120.05306357863276;
2.0;f;012_o_f_h_a.jpg;happy;9.0;happy_27.1ns.avi;happy;9.0;congruent;120.0;150.0;146.44967055810616;h_h;;;;;0;7;7;7;;;;;;;132.484113200102;None;133.91716530011036;134.2339114001952;135.3926514000632;135.41728950012475;137.85872470005415;None;9;0;0.3875777998473495;137.85872470005415;None;;;;;;;;9;;;;;;;139.70876589999534;None;None;None;[];139.70876589999534;None;"['9', '9', '9', '9', '9']";"[0.38568879989907146, 0.6255779999773949, 0.857538599986583, 1.0734071000479162, 1.305455100024119]";139.70876589999534;None;;;S11726;2022_Sep_07_1611;VideoMask;2021.1.2;120.05306357863276;
8.0;f;028_y_f_h_a.jpg;happy;9.0;sad_119.1.wmv;sad;7.0;incongruent;120.0;160.0;148.71526953572538;h_s;;;;;0;8;8;8;;;;;;;142.7087743000593;None;144.15852050017565;144.4752241000533;145.6167733001057;145.63358260015957;147.6835881001316;None;7;0;0.5387935999315232;147.6835881001316;None;;;;;;;;2;;;;;;;149.23349350015633;None;None;None;[];149.23349350015633;None;"['7', '7', '7']";"[0.6368396999314427, 1.3811526000499725, 1.596770300064236]";149.23349350015633;None;;;S11726;2022_Sep_07_1611;VideoMask;2021.1.2;120.05306357863276;
6.0;m;016_y_m_s_a.jpg;sad;7.0;happy_60.4ns.avi;happy;9.0;incongruent;130.0;150.0;126.02367393611817;s_h;;;;;0;9;9;9;;;;;;;152.23343989998102;None;153.52498560003005;153.841664200183;155.05799450003542;155.074766300153;160.76632420020178;None;9;0;0.4159389999695122;160.76632420020178;None;;;;;;;;8;;;;;;;162.3163346000947;None;None;None;[];162.3163346000947;None;"['9', '9', '9', '9', '9']";"[0.3700669000390917, 0.6179720000363886, 1.1938692000694573, 1.5780394999310374, 2.0260360001120716]";162.3163346000947;None;;;S11726;2022_Sep_07_1611;VideoMask;2021.1.2;120.05306357863276;
9.0;f;019_m_f_s_a.jpg;sad;7.0;sad_8.4ns.avi;sad;7.0;congruent;130.0;160.0;171.6633093155257;s_s;;;;;0;10;10;10;;;;;;;165.31634700018913;None;166.99094790010713;167.3077403001953;168.46597980009392;168.48264070018195;176.57431250019;None;7;0;0.39212569990195334;176.57431250019;None;;;;;;;;2;;;;;;;178.11584700015374;None;None;None;[];178.11584700015374;None;"['7', '7', '7']";"[0.3303478001616895, 0.554428800009191, 0.7543566999956965]";178.11584700015374;None;;;S11726;2022_Sep_07_1611;VideoMask;2021.1.2;120.05306357863276;
4.0;m;004_o_m_h_a.jpg;happy;9.0;happy_1.1ns.avi;happy;9.0;congruent;120.0;150.0;203.50057144619865;h_h;;;;;0;11;11;11;;;;;;;181.1157410000451;None;183.10748150013387;183.42399330018088;184.55738620017655;184.5740532001946;199.04027660004795;None;9;0;0.41424349998123944;199.04027660004795;None;;;;;;;;9;;;;;;;200.5901709999889;None;None;None;[];200.5901709999889;None;"['9', '9', '9', '9']";"[0.3844675999134779, 1.0400719000026584, 1.2640865999273956, 1.4881072998978198]";200.5901709999889;None;;;S11726;2022_Sep_07_1611;VideoMask;2021.1.2;120.05306357863276;
7.0;m;027_o_m_h_a.jpg;happy;9.0;happy_20.1ns.avi;happy;9.0;congruent;120.0;150.0;152.91127178874285;h_h;;;;;0;12;12;12;;;;;;;203.5984604000114;None;205.08992659999058;205.406581700081;206.54002350009978;206.5565692000091;209.56490920018405;None;9;0;0.6254332999233156;209.56490920018405;None;;;;;;;;8;;;;;;;211.11485970020294;None;None;None;[];211.11485970020294;None;"['9', '9', '9', '9']";"[0.41943069989793, 0.6834235000424087, 1.139386700000614, 1.3954614999238402]";211.11485970020294;None;;;S11726;2022_Sep_07_1611;VideoMask;2021.1.2;120.05306357863276;
0.0;f;040_y_f_s_a.jpg;sad;7.0;sad_94.3ns.avi;sad;7.0;congruent;130.0;160.0;155.27414203894395;s_s;;;;;0;13;13;13;;;;;;;214.114794800058;None;215.61457170010544;215.93133530020714;217.081418100046;217.0979834999889;219.68955960008316;None;7;0;0.6048324001021683;219.68955960008316;None;;;;;;;;2;;;;;;;221.2395320001524;None;None;None;[];221.2395320001524;None;"['7', '7', '7']";"[0.3829023002181202, 0.5988487000577152, 0.7907217000611126]";221.2395320001524;None;;;S11726;2022_Sep_07_1611;VideoMask;2021.1.2;120.05306357863276;
0.0;f;030_o_f_s_a.jpg;sad;7.0;sad_68.1ns.avi;sad;7.0;congruent;130.0;160.0;158.9411396037211;s_s;;;;;0;14;14;14;;;;;;;224.23952609999105;None;225.79764440003783;226.11427910020575;227.28903530002572;227.3060733000748;234.67242930014618;None;7;0;0.3578757999930531;234.67242930014618;None;;;;;;;;1;;;;;;;236.23903300007805;None;None;None;[];236.23903300007805;None;"['7', '7', '7', '7']";"[0.30310839996673167, 0.8552260999567807, 1.0551651001442224, 1.759616400115192]";236.23903300007805;None;;;S11726;2022_Sep_07_1611;VideoMask;2021.1.2;120.05306357863276;
0.0;f;030_o_f_h_a.jpg;happy;9.0;sad_127.1.wmv;sad;7.0;incongruent;120.0;160.0;180.59976631384873;h_s;;;;;0;15;15;15;;;;;;;239.24749850016087;None;240.96377280005254;241.28048319998197;242.4136773000937;242.43081869999878;244.4138897000812;None;7;0;0.6323855000082403;244.4138897000812;None;;;;;;;;2;;;;;;;245.96375250001438;None;None;None;[];245.96375250001438;None;"['7', '7', '7']";"[0.2509311998728663, 0.44240619987249374, 0.7785275999922305]";245.96375250001438;None;;;S11726;2022_Sep_07_1611;VideoMask;2021.1.2;120.05306357863276;
8.0;m;008_y_m_s_a.jpg;sad;7.0;happy_133.3.wmv;happy;9.0;incongruent;130.0;150.0;152.577966552593;s_h;;;;;0;16;16;16;;;;;;;248.97201320016757;None;250.4634477000218;250.7802320001647;251.90528210019693;251.9217167000752;253.9134649001062;None;9;0;0.508889599936083;253.9134649001062;None;;;;;;;;9;;;;;;;255.46344520011917;None;None;None;[];255.46344520011917;None;"['9', '9', '9', '9']";"[0.2789001998025924, 0.5350890997797251, 0.7427040999755263, 1.3749452999327332]";255.46344520011917;None;;;S11726;2022_Sep_07_1611;VideoMask;2021.1.2;120.05306357863276;
3.0;m;033_o_m_h_a.jpg;happy;9.0;sad_128.1.wmv;sad;7.0;incongruent;120.0;160.0;171.0492454518585;h_s;;;;;0;17;17;17;;;;;;;258.47183810011484;None;260.12149010016583;260.4382015999872;261.57979990006424;261.5964721001219;263.5805234001018;None;7;0;0.3137873001396656;263.5805234001018;None;;;;;;;;1;;;;;;;265.14638180006295;None;None;None;[];265.14638180006295;None;"['7', '7', '7', '7', '7', '7']";"[0.26792510016821325, 0.4919223999604583, 0.6598192001692951, 0.8199416999705136, 1.4281134000048041, 2.1080036000348628]";265.14638180006295;None;;;S11726;2022_Sep_07_1611;VideoMask;2021.1.2;120.05306357863276;
1.0;f;021_o_f_h_a.jpg;happy;9.0;sad_116.1.wmv;sad;7.0;incongruent;120.0;160.0;184.06847610053055;h_s;;;;;0;18;18;18;;;;;;;268.1462443000637;None;269.9046432999894;270.22115480015054;271.3545733001083;271.3712441001553;273.35465310001746;None;7;0;0.4356790999881923;273.35465310001746;None;;;;;;;;1;;;;;;;274.9044162000064;None;None;None;[];274.9044162000064;None;"['7', '7', '7', '7', '7', '7', '7', '7']";"[0.2778270000126213, 0.48575149988755584, 0.877808399964124, 1.069793799892068, 1.2938315998762846, 1.5098588000983, 1.8299197000451386, 2.3099028998985887]";274.9044162000064;None;;;S11726;2022_Sep_07_1611;VideoMask;2021.1.2;120.05306357863276;
4.0;m;004_o_m_s_a.jpg;sad;7.0;happy_28.1ns.avi;happy;9.0;incongruent;130.0;150.0;157.40741103039684;s_h;;;;;0;19;19;19;;;;;;;277.9043472001795;None;279.43771800003015;279.7542351000011;280.8874931000173;280.90428720018826;285.27918010018766;None;9;0;0.36713699996471405;285.27918010018766;None;;;;;;;;9;;;;;;;286.8291002002079;None;None;None;[];286.8291002002079;None;"['9', '9', '9', '9']";"[0.3211752998176962, 0.5371414998080581, 0.7531363999005407, 0.9371212997939438]";286.8291002002079;None;;;S11726;2022_Sep_07_1611;VideoMask;2021.1.2;120.05306357863276;
8.0;f;028_y_f_s_a.jpg;sad;7.0;happy_122.3.wmv;happy;9.0;incongruent;130.0;150.0;171.8670540936116;s_h;;;;;0;20;20;20;;;;;;;289.8375425999984;None;291.48717690003105;291.80387120018713;292.937203500187;292.95388950011693;294.94560780003667;None;9;0;0.46870880015194416;294.94560780003667;None;;;;;;;;9;;;;;;;296.49541350011714;None;None;None;[];296.49541350011714;None;"['9', '9', '9', '9', '9']";"[0.25485979998484254, 0.718786499928683, 0.9428451999556273, 1.2067738000769168, 1.4548963999841362]";296.49541350011714;None;;;S11726;2022_Sep_07_1611;VideoMask;2021.1.2;120.05306357863276;
8.0;m;008_y_m_s_a.jpg;sad;7.0;sad_6.5ns.avi;sad;7.0;congruent;130.0;160.0;170.39333839271438;s_s;;;;;0;21;21;21;;;;;;;299.49534360016696;None;301.13687769998796;301.4535176001955;302.58690220001154;302.6035555000417;307.5868105001282;None;7;0;0.5075080001261085;307.5868105001282;None;;;;;;;;2;;;;;;;309.2117205001414;None;None;None;[];309.2117205001414;None;"['7', '7', '7', '7']";"[0.2667920000385493, 0.46649350016377866, 1.2104615999851376, 1.7866210001520813]";309.2117205001414;None;;;S11726;2022_Sep_07_1611;VideoMask;2021.1.2;120.05306357863276;
8.0;f;028_y_f_h_a.jpg;happy;9.0;happy_23.1ns.avi;happy;9.0;congruent;120.0;150.0;225.70986890587952;h_h;;;;;0;22;22;22;;;;;;;312.2117231001612;None;314.3032586001791;314.61967970011756;315.7781277000904;315.79488950013183;320.32811450003646;None;9;0;0.4942463000770658;320.32811450003646;None;;;;;;;;9;;;;;;;321.87792740017176;None;None;None;[];321.87792740017176;None;"['9', '9', '9', '9', '9']";"[0.3044043001718819, 0.5683971999678761, 0.7683629000093788, 0.9841960000339895, 1.4088208000175655]";321.87792740017176;None;;;S11726;2022_Sep_07_1611;VideoMask;2021.1.2;120.05306357863276;
8.0;m;008_y_m_h_a.jpg;happy;9.0;sad_111.1.wmv;sad;7.0;incongruent;120.0;160.0;152.63076835312847;h_s;;;;;0;23;23;23;;;;;;;324.87806970020756;None;326.35276130004786;326.6694363001734;327.80320160021074;327.8278366001323;329.80275010014884;None;7;0;0.8755055000074208;329.80275010014884;None;;;;;;;;2;;;;;;;331.3527270001359;None;None;None;[];331.3527270001359;None;"['7', '7', '7', '7']";"[0.38188819983042777, 0.6134283998981118, 1.3015084997750819, 1.8135417997837067]";331.3527270001359;None;;;S11726;2022_Sep_07_1611;VideoMask;2021.1.2;120.05306357863276;
0.0;f;040_y_f_s_a.jpg;sad;7.0;sad_67.2ns.avi;sad;7.0;congruent;130.0;160.0;220.9892697323079;s_s;;;;;0;24;24;24;;;;;;;334.3526308001019;None;336.46088750008494;336.77743550017476;338.01078390004113;338.02750790002756;347.1354797000531;None;7;0;0.510958099970594;347.1354797000531;None;;;;;;;;1;;;;;;;348.6854757000692;None;None;None;[];348.6854757000692;None;"['7', '7', '7', '7']";"[0.28888000012375414, 0.4967636000365019, 0.6887350999750197, 0.8806932999286801]";348.6854757000692;None;;;S11726;2022_Sep_07_1611;VideoMask;2021.1.2;120.05306357863276;
8.0;m;008_y_m_s_a.jpg;sad;7.0;happy_29.1ns.avi;happy;9.0;incongruent;130.0;150.0;120.0316142834122;s_h;;;;;0;25;25;25;;;;;;;351.6854640999809;None;352.9102261001244;353.2269253002014;354.38591250008903;354.4103043000214;357.051870000083;None;9;0;0.5944715000223368;357.051870000083;None;;;;;;;;9;;;;;;;358.6018181000836;None;None;None;[];358.6018181000836;None;"['9', '9', '9', '9']";"[0.24449079995974898, 0.5083420998416841, 0.7324221997987479, 1.4046511999331415]";358.6018181000836;None;;;S11726;2022_Sep_07_1611;VideoMask;2021.1.2;120.05306357863276;
6.0;m;016_y_m_s_a.jpg;sad;7.0;sad_8.3ns.avi;sad;7.0;congruent;130.0;160.0;152.85371098242734;s_s;;;;;0;26;26;26;;;;;;;361.60171730001457;None;363.1266768001951;363.443190400023;364.6765225001145;364.6932940001134;372.35978110018186;None;7;0;0.4464010000228882;372.35978110018186;None;;;;;;;;2;;;;;;;373.9180078001227;None;None;None;[];373.9180078001227;None;"['7', '7', '7']";"[0.2803268001880497, 0.4881343001034111, 0.6801556001883]";373.9180078001227;None;;;S11726;2022_Sep_07_1611;VideoMask;2021.1.2;120.05306357863276;
6.0;m;016_y_m_h_a.jpg;happy;9.0;sad_114.1.wmv;sad;7.0;incongruent;120.0;160.0;136.20550699298644;h_s;;;;;0;27;27;27;;;;;;;376.91787960007787;None;378.2761394002009;378.59277970017865;379.71787800011225;379.7352200001478;381.72604000009596;None;7;0;0.35230399994179606;381.72604000009596;None;;;;;;;;1;;;;;;;383.2926606000401;None;None;None;[];383.2926606000401;None;"['7', '7', '7', '7', '7']";"[0.2657691000495106, 0.457571699982509, 0.6176837000530213, 0.79353930009529, 1.417634200071916]";383.2926606000401;None;;;S11726;2022_Sep_07_1611;VideoMask;2021.1.2;120.05306357863276;
7.0;m;027_o_m_s_a.jpg;sad;7.0;happy_117.3.wmv;happy;9.0;incongruent;130.0;150.0;215.61964028550614;s_h;;;;;0;28;28;28;;;;;;;386.2926519000903;None;388.29239380010404;388.60912480019033;389.7342146001756;389.7508644000627;391.74241070006974;None;9;0;0.3922329000197351;391.74241070006974;None;;;;;;;;9;;;;;;;393.29240799997933;None;None;None;[];393.29240799997933;None;"['9', '9', '9', '9', '9']";"[0.2338127999100834, 0.5139408998657018, 0.7857998998370022, 1.0417300998233259, 1.3539503999054432]";393.29240799997933;None;;;S11726;2022_Sep_07_1611;VideoMask;2021.1.2;120.05306357863276;
6.0;m;016_y_m_h_a.jpg;happy;9.0;happy_9.2ns.avi;happy;9.0;congruent;120.0;150.0;130.52042428082717;h_h;;;;;0;29;29;29;;;;;;;396.2922772001475;None;397.61722360015847;397.9338438999839;399.1671184001025;399.18439310020767;404.9920763000846;None;9;0;0.4141294998116791;404.9920763000846;None;;;;;;;;8;;;;;;;406.5419720001519;None;None;None;[];406.5419720001519;None;"['9', '9', '9']";"[0.28836659993976355, 0.5364129000809044, 1.1843767000827938]";406.5419720001519;None;;;S11726;2022_Sep_07_1611;VideoMask;2021.1.2;120.05306357863276;
0.0;f;040_y_f_s_a.jpg;sad;7.0;happy_127.3.wmv;happy;9.0;incongruent;130.0;150.0;131.7195455720239;s_h;;;;;0;30;30;30;;;;;;;409.54194880020805;None;410.8417022000067;411.1584717000369;412.2835087000858;412.30069110007025;414.3584920000285;None;9;0;0.6557145998813212;414.3584920000285;None;;;;;;;;8;;;;;;;415.90835330006666;None;None;None;[];415.90835330006666;None;"['9', '9', '9', '9', '9']";"[0.38593879994004965, 0.6738292998634279, 1.201836199965328, 1.4418050998356193, 1.7299477998167276]";415.90835330006666;None;;;S11726;2022_Sep_07_1611;VideoMask;2021.1.2;120.05306357863276;
0.0;f;030_o_f_s_a.jpg;sad;7.0;happy_125.3.wmv;happy;9.0;incongruent;130.0;150.0;220.51454909128134;s_h;;;;;0;31;31;31;;;;;;;418.90825710003264;None;420.9746811001096;421.2914162001107;422.42475420003757;422.4414458000101;424.43318340019323;None;9;0;0.4772143999580294;424.43318340019323;None;;;;;;;;9;;;;;;;425.9913397000637;None;None;None;[];425.9913397000637;None;"['9', '9', '9', '9', '9', '9', '9', '9']";"[0.1909260000102222, 0.4708114000968635, 0.6868841000832617, 0.8868738000746816, 1.1109581000637263, 1.3429127000272274, 1.726966799935326, 2.2629834001418203]";425.9913397000637;None;;;S11726;2022_Sep_07_1611;VideoMask;2021.1.2;120.05306357863276;
0.0;f;030_o_f_s_a.jpg;sad;7.0;sad_64.3ns.avi;sad;7.0;congruent;130.0;160.0;165.78667874766072;s_s;;;;;0;32;32;32;;;;;;;428.99971810006537;None;430.60795129998587;430.9244276001118;432.08284200006165;432.0994940001983;437.07454050006345;None;7;0;0.5076945999171585;437.07454050006345;None;;;;;;;;1;;;;;;;438.6326433001086;None;None;None;[];438.6326433001086;None;"['7', '7', '7', '7', '7']";"[0.07771569979377091, 0.3896740998607129, 0.9335299998056144, 1.1496170999016613, 2.461701799882576]";438.6326433001086;None;;;S11726;2022_Sep_07_1611;VideoMask;2021.1.2;120.05306357863276;
3.0;m;013_y_m_s_a.jpg;sad;7.0;sad_7.7ns.avi;sad;7.0;congruent;130.0;160.0;196.24182255763262;s_s;;;;;0;33;33;33;;;;;;;441.64099179999903;None;443.4989982000552;443.8157224000897;444.99112250003964;445.0158363999799;450.948880800046;None;7;0;0.3454024000093341;450.948880800046;None;;;;;;;;3;;;;;;;452.49862010008655;None;None;None;[];452.49862010008655;None;"['7', '7', '7']";"[0.08369089988991618, 0.6196238999255002, 1.3878333999309689]";452.49862010008655;None;;;S11726;2022_Sep_07_1611;VideoMask;2021.1.2;120.05306357863276;
3.0;m;013_y_m_h_a.jpg;happy;9.0;happy_9.1ns.avi;happy;9.0;congruent;120.0;150.0;165.1890303600433;h_h;;;;;0;34;34;34;;;;;;;455.4987478000112;None;457.0985535001382;457.4152275000233;458.58236440015025;458.6069753000047;461.77346490020864;None;9;0;0.5847322999034077;461.77346490020864;None;;;;;;;;8;;;;;;;463.32350360020064;None;None;None;[];463.32350360020064;None;"['9', '9', '9']";"[0.6109722999390215, 0.8506666999310255, 1.3949367001187056]";463.32350360020064;None;;;S11726;2022_Sep_07_1611;VideoMask;2021.1.2;120.05306357863276;
4.0;m;004_o_m_h_a.jpg;happy;9.0;sad_95.1ns.avi;sad;7.0;incongruent;120.0;160.0;152.68270002069931;h_s;;;;;0;35;35;35;;;;;;;466.3236072000582;None;467.8565412000753;468.1733020001557;469.3398971001152;469.3568292001728;478.0980830001645;None;7;0;0.3402434999588877;478.0980830001645;None;;;;;;;;1;;;;;;;479.6480456001591;None;None;None;[];479.6480456001591;None;"['7', '7', '7', '7']";"[0.20641120010986924, 0.43831830006092787, 0.6461279999930412, 0.8380275000818074]";479.6480456001591;None;;;S11726;2022_Sep_07_1611;VideoMask;2021.1.2;120.05306357863276;
3.0;m;013_y_m_h_a.jpg;happy;9.0;sad_113.2.wmv;sad;7.0;incongruent;120.0;160.0;217.4973891947951;h_s;;;;;0;36;36;36;;;;;;;482.65624970011413;None;484.6893365001306;485.0061359000392;486.139513600152;486.1560542001389;488.1394067001529;None;7;0;0.6829194999299943;488.1394067001529;None;;;;;;;;3;;;;;;;489.68931070016697;None;None;None;[];489.68931070016697;None;"['7', '7', '7']";"[0.28495689993724227, 0.5409132000058889, 1.2049652999266982]";489.68931070016697;None;;;S11726;2022_Sep_07_1611;VideoMask;2021.1.2;120.05306357863276;
4.0;m;004_o_m_h_a.jpg;happy;9.0;happy_25.1ns.avi;happy;9.0;congruent;120.0;150.0;216.63044503818386;h_h;;;;;0;37;37;37;;;;;;;492.6893999001477;None;494.7140466000419;495.030854600016;496.18060460011475;496.1972595001571;499.8556395000778;None;9;0;0.34262069989927113;499.8556395000778;None;;;;;;;;9;;;;;;;501.4306350001134;None;None;None;[];501.4306350001134;None;"['9', '9', '9', '9', '9']";"[11.676916199969128, 0.2957057000603527, 0.5275869001634419, 0.8077530001755804, 1.4477919000200927]";501.4306350001134;None;;;S11726;2022_Sep_07_1611;VideoMask;2021.1.2;120.05306357863276;
4.0;m;004_o_m_s_a.jpg;sad;7.0;happy_131.2.wmv;happy;9.0;incongruent;130.0;150.0;181.38407540847405;s_h;;;;;0;38;38;38;;;;;;;504.41401419998147;None;506.1387116999831;506.45539560006;507.59707560017705;507.61353990016505;509.58859170018695;None;9;0;0.5536965001374483;509.58859170018695;None;;;;;;;;9;;;;;;;511.1386290001683;None;None;None;[];511.1386290001683;None;"['9', '9', '9', '9']";"[0.33964450005441904, 0.907991100102663, 1.1316283999476582, 1.3554986000526696]";511.1386290001683;None;;;S11726;2022_Sep_07_1611;VideoMask;2021.1.2;120.05306357863276;
0.0;f;040_y_f_h_a.jpg;happy;9.0;happy_24.3ns.avi;happy;9.0;congruent;120.0;150.0;213.25460698950434;h_h;;;;;0;39;39;39;;;;;;;514.1470340001397;None;516.1217769000214;516.4384696001653;517.604935400188;517.6215874000918;519.4967122001108;None;9;0;0.5495494999922812;519.4967122001108;None;;;;;;;;9;;;;;;;521.0466637001373;None;None;None;[];521.0466637001373;None;"['9', '9', '9', '9']";"[0.11151379998773336, 0.37577760010026395, 0.5676788000855595, 0.7675459000747651]";521.0466637001373;None;;;S11726;2022_Sep_07_1611;VideoMask;2021.1.2;120.05306357863276;
2.0;f;012_o_f_s_a.jpg;sad;7.0;happy_139.1.wmv;happy;9.0;incongruent;130.0;150.0;162.31500468041804;s_h;;;;;0;40;40;40;;;;;;;524.0466721002012;None;525.6130679000635;525.9298254000023;527.0715065000113;527.0881804001983;529.0630423000548;None;9;0;0.3672021001111716;529.0630423000548;None;;;;;;;;9;;;;;;;530.6381065000314;None;None;None;[];530.6381065000314;None;"['9', '9', '9', '9', '9', '9', '9', '9']";"[0.30414750007912517, 0.5281011001206934, 0.7440566001459956, 0.9440622001420707, 1.1201111001428217, 1.312065500067547, 1.5200924000237137, 2.056302700191736]";530.6381065000314;None;;;S11726;2022_Sep_07_1611;VideoMask;2021.1.2;120.05306357863276;
0.0;f;030_o_f_h_a.jpg;happy;9.0;happy_24.1ns.avi;happy;9.0;congruent;120.0;150.0;168.36256624020774;h_h;;;;;0;41;41;41;;;;;;;533.6464178001042;None;535.2711518001743;535.587700500153;536.7634787000716;536.7960748001933;540.0460843001492;None;9;0;0.5601719000842422;540.0460843001492;None;;;;;;;;9;;;;;;;541.5876805000007;None;None;None;[];541.5876805000007;None;"['9', '9', '9', '9', '9', '9', '9']";"[0.10678350017406046, 0.3624963001348078, 0.594420500099659, 0.7944743002299219, 1.010584400035441, 1.2664423000533134, 1.8427591000217944]";541.5876805000007;None;;;S11726;2022_Sep_07_1611;VideoMask;2021.1.2;120.05306357863276;
2.0;f;012_o_f_h_a.jpg;happy;9.0;sad_113.1.wmv;sad;7.0;incongruent;120.0;160.0;177.44551734737394;h_s;;;;;0;42;42;42;;;;;;;544.5875842000823;None;546.2706621000543;546.5874457000755;547.7211881000549;547.7457686001435;549.7374656000175;None;7;0;0.597158299991861;549.7374656000175;None;;;;;;;;2;;;;;;;551.2957045000512;None;None;None;[];551.2957045000512;None;"['7', '7', '7']";"[0.3745327000506222, 0.6304047999437898, 0.8544513001106679]";551.2957045000512;None;;;S11726;2022_Sep_07_1611;VideoMask;2021.1.2;120.05306357863276;
3.0;m;033_o_m_s_a.jpg;sad;7.0;sad_64.5ns.avi;sad;7.0;congruent;130.0;160.0;130.55717223801247;s_s;;;;;0;43;43;43;;;;;;;554.3040655001532;None;555.6370895002037;555.9538027001545;557.0788689001929;557.0954466999974;563.6786384000443;None;7;0;0.42363240011036396;563.6786384000443;None;;;;;;;;2;;;;;;;565.2285987001378;None;None;None;[];565.2285987001378;None;"['7', '7', '7']";"[0.8496881001628935, 1.0495895000640303, 1.8896317000035197]";565.2285987001378;None;;;S11726;2022_Sep_07_1611;VideoMask;2021.1.2;120.05306357863276;
7.0;m;027_o_m_h_a.jpg;happy;9.0;sad_117.1.wmv;sad;7.0;incongruent;120.0;160.0;181.28665202824095;h_s;;;;;0;44;44;44;;;;;;;568.2285784000997;None;569.9532938001212;570.270003200043;571.4117315001786;571.4284685000312;573.4034496000968;None;7;0;0.5391239998862147;573.4034496000968;None;;;;;;;;3;;;;;;;574.9532892000861;None;None;None;[];574.9532892000861;None;"['7', '7']";"[0.3168675999622792, 0.5808858999516815]";574.9532892000861;None;;;S11726;2022_Sep_07_1611;VideoMask;2021.1.2;120.05306357863276;
3.0;m;033_o_m_s_a.jpg;sad;7.0;happy_126.3.wmv;happy;9.0;incongruent;130.0;150.0;198.85252030535366;s_h;;;;;0;45;45;45;;;;;;;577.9531885001343;None;579.8196422001347;580.1363596001174;581.2780278001446;581.2947599000763;583.2696772001218;None;9;0;0.504588499898091;583.2696772001218;None;;;;;;;;8;;;;;;;584.8196285001468;None;None;None;[];584.8196285001468;None;"['9', '9', '9', '9']";"[0.2265151001047343, 0.46652060002088547, 0.730578200193122, 1.2987038001883775]";584.8196285001468;None;;;S11726;2022_Sep_07_1611;VideoMask;2021.1.2;120.05306357863276;
3.0;m;033_o_m_h_a.jpg;happy;9.0;sad_136.1.wmv;sad;7.0;incongruent;120.0;160.0;176.97002883463455;h_s;;;;;0;46;46;46;;;;;;;587.8197081000544;None;589.5193566000089;589.8360763001256;590.9694629001897;590.9861946001183;592.9693839000538;None;7;0;0.596865399973467;592.9693839000538;None;;;;;;;;2;;;;;;;594.5109880000819;None;None;None;[];594.5109880000819;None;"['7', '7', '7', '7', '7']";"[0.2634452998172492, 0.48718929989263415, 0.6872955998405814, 1.0793864999432117, 1.4632255998440087]";594.5109880000819;None;;;S11726;2022_Sep_07_1611;VideoMask;2021.1.2;120.05306357863276;
9.0;f;019_m_f_h_a.jpg;happy;9.0;happy_10.1ns.avi;happy;9.0;congruent;120.0;150.0;157.2463435658512;h_h;;;;;0;47;47;47;;;;;;;597.5109886000864;None;599.077476600185;599.3940388001502;600.5191631000489;600.5357553001959;607.9772111000493;None;9;0;0.5011497000232339;607.9772111000493;None;;;;;;;;8;;;;;;;609.5438494000118;None;None;None;[];609.5438494000118;None;"['9', '9', '9']";"[0.3666504002176225, 0.7023647001478821, 2.2145284002181143]";609.5438494000118;None;;;S11726;2022_Sep_07_1611;VideoMask;2021.1.2;120.05306357863276;
2.0;f;012_o_f_h_a.jpg;happy;9.0;happy_2.2ns.avi;happy;9.0;congruent;120.0;150.0;206.34800317295262;h_h;;;;;0;48;48;48;;;;;;;612.5438816000242;None;614.5270263000857;614.8436571001075;616.0020379000343;616.018695600098;628.1769318000879;None;9;0;1.0373959999997169;628.1769318000879;None;;;;;;;;8;;;;;;;629.7348321001045;None;None;None;[];629.7348321001045;None;"['9', '9', '9']";"[0.6156123999971896, 0.8472305000759661, 1.4233444998972118]";629.7348321001045;None;;;S11726;2022_Sep_07_1611;VideoMask;2021.1.2;120.05306357863276;
3.0;m;033_o_m_h_a.jpg;happy;9.0;happy_24.2ns.avi;happy;9.0;congruent;120.0;150.0;167.9423847659953;h_h;;;;;0;49;49;49;;;;;;;632.743130300194;None;634.3681106001604;634.6846308000386;635.8179430000018;635.8347106000874;639.5430456001777;None;9;0;0.4792077001184225;639.5430456001777;None;;;;;;;;8;;;;;;;641.0928150000982;None;None;None;[];641.0928150000982;None;"['9', '9', '9']";"[0.2817120999097824, 0.545414499938488, 0.7373182000592351]";641.0928150000982;None;;;S11726;2022_Sep_07_1611;VideoMask;2021.1.2;120.05306357863276;
1.0;f;021_o_f_s_a.jpg;sad;7.0;happy_61.2ns.avi;happy;9.0;incongruent;130.0;150.0;210.94664004826666;s_h;;;;;0;50;50;50;;;;;;;644.0928946000058;None;646.0842721001245;646.400939000072;647.5756809001323;647.59263129998;652.0591629000846;None;9;0;0.35521870013326406;652.0591629000846;None;;;;;;;;8;;;;;;;653.6007787000854;None;None;None;[];653.6007787000854;None;"['9', '9', '9']";"[0.3095874998252839, 0.549428700003773, 1.3095944998785853]";653.6007787000854;None;;;S11726;2022_Sep_07_1611;VideoMask;2021.1.2;120.05306357863276;
4.0;m;004_o_m_s_a.jpg;sad;7.0;sad_2.4ns.avi;sad;7.0;congruent;130.0;160.0;153.02079367163634;s_s;;;;;0;51;51;51;;;;;;;656.6007004000712;None;658.108791799983;658.4256438000593;659.6087537000421;659.6253963001072;667.516970800003;None;7;0;0.40128790005110204;667.516970800003;None;;;;;;;;2;;;;;;;669.0669668000191;None;None;None;[];669.0669668000191;None;"['7', '7', '7', '7']";"[0.2753911002073437, 0.47512720013037324, 1.2511709001846611, 1.7472199001349509]";669.0669668000191;None;;;S11726;2022_Sep_07_1611;VideoMask;2021.1.2;120.05306357863276;
8.0;m;008_y_m_h_a.jpg;happy;9.0;happy_1.2ns.avi;happy;9.0;congruent;120.0;150.0;210.98946429383824;h_h;;;;;0;52;52;52;;;;;;;672.0669830001425;None;674.1001236999873;674.4167065999936;675.5501103000715;675.5667836000212;688.3496491999831;None;8;0;0.38454880006611347;688.3496491999831;None;;;;;;;;6;;;;;;;690.7327615001705;None;None;None;[];690.7327615001705;None;['9'];[0.4172964000608772];690.7327615001705;None;;;S11726;2022_Sep_07_1611;VideoMask;2021.1.2;120.05306357863276;
2.0;f;012_o_f_s_a.jpg;sad;7.0;happy_52.2ns.avi;happy;9.0;incongruent;130.0;150.0;172.57202848318138;s_h;;;;;0;53;53;53;;;;;;;693.7329337000847;None;695.382646900136;695.699411700014;696.891119700158;696.9077956001274;700.3993588001467;None;9;0;0.5829006000421941;700.3993588001467;None;;;;;;;;7;;;;;;;701.949237300083;None;None;None;[];701.949237300083;None;"['9', '9', '9']";"[0.37698039994575083, 0.808925700141117, 1.449203300056979]";701.949237300083;None;;;S11726;2022_Sep_07_1611;VideoMask;2021.1.2;120.05306357863276;
9.0;f;019_m_f_s_a.jpg;sad;7.0;happy_61.1ns.avi;happy;9.0;incongruent;130.0;150.0;181.3003220572762;s_h;;;;;0;54;54;54;;;;;;;704.9576118001714;None;706.7324666001368;707.0489737000316;708.2407120000571;708.2574261000846;715.5739857000299;None;9;0;0.968218999914825;715.5739857000299;None;;;;;;;;8;;;;;;;717.1320888001937;None;None;None;[];717.1320888001937;None;"['9', '9', '9']";"[0.3782085001002997, 0.6744589000009, 1.7461159001104534]";717.1320888001937;None;;;S11726;2022_Sep_07_1611;VideoMask;2021.1.2;120.05306357863276;
0.0;f;030_o_f_h_a.jpg;happy;9.0;sad_133.1.wmv;sad;7.0;incongruent;120.0;160.0;198.86251500867985;h_s;;;;;0;55;55;55;;;;;;;720.1403987000231;None;722.0068192000035;722.323522800114;723.4486457000021;723.4651921000332;725.4567823000252;None;7;0;0.5977434001397341;725.4567823000252;None;;;;;;;;3;;;;;;;727.0068167999852;None;None;None;[];727.0068167999852;None;"['7', '7', '7']";"[0.33555299998261034, 0.8474888999480754, 1.855498599819839]";727.0068167999852;None;;;S11726;2022_Sep_07_1611;VideoMask;2021.1.2;120.05306357863276;
0.0;f;040_y_f_h_a.jpg;happy;9.0;sad_128.2.wmv;sad;7.0;incongruent;120.0;160.0;206.10005857915363;h_s;;;;;0;56;56;56;;;;;;;730.0067776001524;None;731.9398299001623;732.2565529001877;733.3897073999979;733.4065898000263;735.3898595999926;None;7;0;0.6643125999253243;735.3898595999926;None;;;;;;;;3;;;;;;;736.9397962000221;None;None;None;[];736.9397962000221;None;"['7', '7']";"[0.2506653000600636, 0.5463990999851376]";736.9397962000221;None;;;S11726;2022_Sep_07_1611;VideoMask;2021.1.2;120.05306357863276;
1.0;f;021_o_f_s_a.jpg;sad;7.0;sad_9.5ns.avi;sad;7.0;congruent;130.0;160.0;206.16642757875042;s_s;;;;;0;57;57;57;;;;;;;739.9481588001363;None;741.8813212001696;742.1978862001561;743.3402643001173;743.3647978000809;749.0560274000745;None;7;0;0.3581406001467258;749.0560274000745;None;;;;;;;;2;;;;;;;750.6060633000452;None;None;None;[];750.6060633000452;None;"['7', '7', '7']";"[0.27231500018388033, 0.4801283001434058, 0.6960981001611799]";750.6060633000452;None;;;S11726;2022_Sep_07_1611;VideoMask;2021.1.2;120.05306357863276;
1.0;f;021_o_f_h_a.jpg;happy;9.0;happy_12.1ns.avi;happy;9.0;congruent;120.0;150.0;132.59080005900228;h_h;;;;;0;58;58;58;;;;;;;753.6058269999921;None;754.9641808001325;755.2808710001409;756.430867300136;756.4475548001938;764.0306536999997;None;8;0;0.43155269999988377;764.0306536999997;None;;;;;;;;7;;;;;;;765.5805532000959;None;None;None;[];765.5805532000959;None;"['9', '9', '9']";"[0.34565440006554127, 0.6015234999358654, 1.1696470000315458]";765.5805532000959;None;;;S11726;2022_Sep_07_1611;VideoMask;2021.1.2;120.05306357863276;
3.0;m;013_y_m_s_a.jpg;sad;7.0;happy_56.2ns.avi;happy;9.0;incongruent;130.0;150.0;163.39234110935848;s_h;;;;;0;59;59;59;;;;;;;768.5804690001532;None;770.1553095001727;770.471874000039;771.6302000000142;771.6470418001991;776.630140400026;None;9;0;1.3760158000513911;776.630140400026;None;;;;;;;;7;;;;;;;778.1801726000849;None;None;None;[];778.1801726000849;None;"['9', '9']";"[0.5462903000880033, 1.2498767001088709]";778.1801726000849;None;;;S11726;2022_Sep_07_1611;VideoMask;2021.1.2;120.05306357863276;
;;;;;;;;;;;;;;;;;;;;;;;;;;;;;;;;;;;;;;;;;;;;;;;;;;;;;;;;;;;;;;;;;781.1884389000479;None;;;;;;
