primePerson;primeGender;prime;primeEmotion;corrAnsPrime;target;targetEmotion;corrAnsTar;Cond;ID_Primer;ID_Target;JitterTime;Condition;example.thisRepN;example.thisTrialN;example.thisN;example.thisIndex;study.thisRepN;study.thisTrialN;study.thisN;study.thisIndex;MR_trigger_time;MR_trigger_number;text_intro.started;text_intro.stopped;text_probe.started;text_probe.stopped;polygon_ISI.started;polygon_ISI.stopped;polygon.started;polygon.stopped;primerImage.started;primerImage.stopped;response.started;response.stopped;key_resp.keys;key_resp.corr;key_resp.rt;key_resp.started;key_resp.stopped;slider_Text.started;slider_Text.stopped;slider_ex.response;slider_ex.rt;slider_ex.history;slider_ex.started;slider_ex.stopped;Rating;slider_resp_response.keys;slider_resp_response.started;slider_resp_response.stopped;text_start.started;text_start.stopped;text_slider.started;text_slider.stopped;slider_stud.response;slider_stud.rt;slider_stud.history;slider_stud.started;slider_stud.stopped;slider_resp_study.keys;slider_resp_study.rt;slider_resp_study.started;slider_resp_study.stopped;text_ende.started;text_ende.stopped;participant;date;expName;psychopyVersion;frameRate;
1111;m;1111_m_m_h_a.jpg;happy;9;example_30.4ns.avi;neutral;7;incongruent;120.0;170.0;189.5874364012288;;0;0;0;0;;;;;30.54853449994698;1;30.62610200000927;32.626310100080445;32.626310100080445;None;34.64352000015788;None;38.33449640008621;38.65101610007696;39.80100750015117;39.817754900082946;44.142623000079766;None;8;0;0.8891282000113279;44.142623000079766;None;45.692405600100756;None;None;None;[];45.692405600100756;None;5;None;45.692405600100756;None;;;;;;;;;;;;;;;;S11407;2022_Apr_28_1102;VideoMask;2021.1.2;120.15071675203983;
1113;f;1113_y_f_s_a.jpg;sad;7;example_30.3ns.avi;neutral;7;incongruent;130.0;170.0;229.02432995836998;;0;1;1;1;;;;;;;;;;;48.700640900060534;None;50.825525500113145;51.14230659999885;52.300445599947125;52.31712150014937;54.27572949999012;None;8;0;1.2681119001936167;54.27572949999012;None;55.82552620000206;None;None;None;[];55.82552620000206;None;5;None;55.82552620000206;None;;;;;;;;;;;;;;;;S11407;2022_Apr_28_1102;VideoMask;2021.1.2;120.15071675203983;
9.0;f;019_m_f_h_a.jpg;happy;9.0;sad_115.1.wmv;sad;7.0;incongruent;120.0;160.0;128.09063432376465;h_s;;;;;0;0;0;0;;;;;;;59.85877640009858;None;61.1335962000303;61.45027979998849;62.58346570003778;62.60032399999909;64.58364149997942;None;None;0;;64.58364149997942;None;;;;;;;;4;;;;58.842056000139564;None;66.13346150005236;None;None;None;[];66.13346150005236;None;['7'];[0.3865757000166923];66.13346150005236;None;;;S11407;2022_Apr_28_1102;VideoMask;2021.1.2;120.15071675203983;
3.0;m;033_o_m_s_a.jpg;sad;7.0;sad_94.2ns.avi;sad;7.0;congruent;130.0;160.0;182.29120173647655;s_s;;;;;0;1;1;1;;;;;;;69.1334041999653;None;70.84155300003476;71.16718160011806;72.35006360011175;72.36669080005959;74.98334010015242;None;7;0;0.3845047999639064;74.98334010015242;None;;;;;;;;3;;;;;;76.53305370011367;None;None;None;[];76.53305370011367;None;"['7', '7']";"[0.37078940006904304, 0.6829995000734925]";76.53305370011367;None;;;S11407;2022_Apr_28_1102;VideoMask;2021.1.2;120.15071675203983;
8.0;m;008_y_m_h_a.jpg;happy;9.0;happy_26.1ns.avi;happy;9.0;congruent;120.0;150.0;155.9437854594882;h_h;;;;;0;2;2;2;;;;;;;79.54163610003889;None;81.024662300013;81.3413506001234;82.47467650007457;82.49134830012918;84.46642640000209;None;9;0;0.37340119993314147;84.46642640000209;None;;;;;;;;8;;;;;;86.02461740002036;None;None;None;[];86.02461740002036;None;"['9', '9', '9']";"[0.3193008000962436, 0.5994311000686139, 0.8394092000089586]";86.02461740002036;None;;;S11407;2022_Apr_28_1102;VideoMask;2021.1.2;120.15071675203983;
0.0;f;040_y_f_h_a.jpg;happy;9.0;sad_138.1.wmv;sad;7.0;incongruent;120.0;160.0;133.99071306426532;h_s;;;;;0;3;3;3;;;;;;;89.02457990008406;None;90.35773100005463;90.67440970009193;91.79957929998636;91.81611989997327;93.80773130012676;None;7;0;0.640149800106883;93.80773130012676;None;;;;;;;;4;;;;;;95.35769070009701;None;None;None;[];95.35769070009701;None;['7'];[0.29045990016311407];95.35769070009701;None;;;S11407;2022_Apr_28_1102;VideoMask;2021.1.2;120.15071675203983;
8.0;f;028_y_f_s_a.jpg;sad;7.0;sad_64.2ns.avi;sad;7.0;congruent;130.0;160.0;229.88540597086478;s_s;;;;;0;4;4;4;;;;;;;98.36599610000849;None;100.51588600012474;100.8324424000457;102.04086229996756;102.05754190008156;112.965493200114;None;7;0;0.3382582999765873;112.965493200114;None;;;;;;;;3;;;;;;114.5154496000614;None;None;None;[];114.5154496000614;None;"['7', '7', '9', '7']";"[0.3086564999539405, 0.5324223998468369, 0.6203570999205112, 1.1244575998280197]";114.5154496000614;None;;;S11407;2022_Apr_28_1102;VideoMask;2021.1.2;120.15071675203983;
7.0;m;027_o_m_s_a.jpg;sad;7.0;sad_10.4ns.avi;sad;7.0;congruent;130.0;160.0;185.20129417468752;s_s;;;;;0;5;5;5;;;;;;;117.52378940000199;None;119.26517709996551;119.58184690005146;120.76526560005732;120.78188010002486;123.89035609993152;None;7;0;1.3895747000351548;123.89035609993152;None;;;;;;;;4;;;;;;125.44011970004067;None;None;None;[];125.44011970004067;None;"['7', '7']";"[0.34375010011717677, 0.6959168999455869]";125.44011970004067;None;;;S11407;2022_Apr_28_1102;VideoMask;2021.1.2;120.15071675203983;
2.0;f;012_o_f_s_a.jpg;sad;7.0;sad_7.5ns.avi;sad;7.0;congruent;130.0;160.0;220.27842655424388;s_s;;;;;0;6;6;6;;;;;;;128.44843879994005;None;130.48986790003255;130.8065981999971;131.98157780012116;131.99830109998584;134.73172349995002;None;7;0;0.6042490999680012;134.73172349995002;None;;;;;;;;4;;;;;;136.2897958001122;None;None;None;[];136.2897958001122;None;['7'];[0.3820724000688642];136.2897958001122;None;;;S11407;2022_Apr_28_1102;VideoMask;2021.1.2;120.15071675203983;
2.0;f;012_o_f_h_a.jpg;happy;9.0;happy_27.1ns.avi;happy;9.0;congruent;120.0;150.0;146.44967055810616;h_h;;;;;0;7;7;7;;;;;;;139.29802180011757;None;140.714547800133;141.03125420003198;142.172968900064;142.18962189997546;144.65624459995888;None;9;0;0.3276784000918269;144.65624459995888;None;;;;;;;;8;;;;;;146.20617919997312;None;None;None;[];146.20617919997312;None;"['9', '9', '9', '9']";"[0.2977203999180347, 0.5936958999373019, 0.8176969999913126, 1.0736167000140995]";146.20617919997312;None;;;S11407;2022_Apr_28_1102;VideoMask;2021.1.2;120.15071675203983;
8.0;f;028_y_f_h_a.jpg;happy;9.0;sad_119.1.wmv;sad;7.0;incongruent;120.0;160.0;148.71526953572538;h_s;;;;;0;8;8;8;;;;;;;149.2061542000156;None;150.64754869998433;150.96432980010286;152.10572999995202;152.12245020014234;154.16424810001627;None;7;0;0.3955779999960214;154.16424810001627;None;;;;;;;;3;;;;;;155.71427819994278;None;None;None;[];155.71427819994278;None;"['7', '7']";"[0.4536456000059843, 0.8295507999137044]";155.71427819994278;None;;;S11407;2022_Apr_28_1102;VideoMask;2021.1.2;120.15071675203983;
6.0;m;016_y_m_s_a.jpg;sad;7.0;happy_60.4ns.avi;happy;9.0;incongruent;130.0;150.0;126.02367393611817;s_h;;;;;0;9;9;9;;;;;;;158.7141615001019;None;159.98063679994084;160.29739190009423;161.464095500065;161.48074549995363;167.22233270015568;None;9;0;0.3138865998480469;167.22233270015568;None;;;;;;;;8;;;;;;168.79715070012026;None;None;None;[];168.79715070012026;None;"['9', '9', '9', '9', '9']";"[0.186750499997288, 0.4187793000601232, 0.6427069001365453, 0.8668106000404805, 1.1707379000727087]";168.79715070012026;None;;;S11407;2022_Apr_28_1102;VideoMask;2021.1.2;120.15071675203983;
9.0;f;019_m_f_s_a.jpg;sad;7.0;sad_8.4ns.avi;sad;7.0;congruent;130.0;160.0;171.6633093155257;s_s;;;;;0;10;10;10;;;;;;;171.8055304000154;None;173.47179410001263;173.7886659000069;174.93863590015098;174.95530649996363;183.0550651999656;None;7;0;0.4968254999257624;183.0550651999656;None;;;;;;;;4;;;;;;184.59668099996634;None;None;None;[];184.59668099996634;None;['7'];[0.8832602000329643];184.59668099996634;None;;;S11407;2022_Apr_28_1102;VideoMask;2021.1.2;120.15071675203983;
4.0;m;004_o_m_h_a.jpg;happy;9.0;happy_1.1ns.avi;happy;9.0;congruent;120.0;150.0;203.50057144619865;h_h;;;;;0;11;11;11;;;;;;;187.60510560008697;None;189.59631210006773;189.91331750014797;191.12156879995018;191.13820879999548;205.53775020013563;None;9;0;0.3262467000167817;205.53775020013563;None;;;;;;;;6;;;;;;207.08768979995511;None;None;None;[];207.08768979995511;None;['9'];[0.31249820021912456];207.08768979995511;None;;;S11407;2022_Apr_28_1102;VideoMask;2021.1.2;120.15071675203983;
7.0;m;027_o_m_h_a.jpg;happy;9.0;happy_20.1ns.avi;happy;9.0;congruent;120.0;150.0;152.91127178874285;h_h;;;;;0;12;12;12;;;;;;;210.0960943000391;None;211.61241389997303;211.92911579995416;213.0791975001339;213.0958360999357;216.07921340013854;None;9;0;0.3127214000560343;216.07921340013854;None;;;;;;;;6;;;;;;217.6290500999894;None;None;None;[];217.6290500999894;None;['9'];[0.2510075999889523];217.6290500999894;None;;;S11407;2022_Apr_28_1102;VideoMask;2021.1.2;120.15071675203983;
0.0;f;040_y_f_s_a.jpg;sad;7.0;sad_94.3ns.avi;sad;7.0;congruent;130.0;160.0;155.27414203894395;s_s;;;;;0;13;13;13;;;;;;;220.62896000011824;None;222.1120712000411;222.43763770000078;223.6202517999336;223.63696849998087;226.1871396000497;None;7;0;0.27681489987298846;226.1871396000497;None;;;;;;;;4;;;;;;227.7620070001576;None;None;None;[];227.7620070001576;None;['7'];[0.22206209995783865];227.7620070001576;None;;;S11407;2022_Apr_28_1102;VideoMask;2021.1.2;120.15071675203983;
0.0;f;030_o_f_s_a.jpg;sad;7.0;sad_68.1ns.avi;sad;7.0;congruent;130.0;160.0;158.9411396037211;s_s;;;;;0;14;14;14;;;;;;;230.7620560999494;None;232.3034010999836;232.62016219994985;233.77062189998105;233.79502160008997;241.17841310007498;None;7;0;0.2776605000253767;241.17841310007498;None;;;;;;;;2;;;;;;242.7366051999852;None;None;None;[];242.7366051999852;None;"['7', '7', '7']";"[0.27152419998310506, 0.503317799884826, 0.7113447999581695]";242.7366051999852;None;;;S11407;2022_Apr_28_1102;VideoMask;2021.1.2;120.15071675203983;
0.0;f;030_o_f_h_a.jpg;happy;9.0;sad_127.1.wmv;sad;7.0;incongruent;120.0;160.0;180.59976631384873;h_s;;;;;0;15;15;15;;;;;;;245.7449304999318;None;247.46134210005403;247.77810900006443;248.9031915999949;248.91976499999873;250.91140270000324;None;7;0;1.3847094001248479;250.91140270000324;None;;;;;;;;4;;;;;;252.46131390007213;None;None;None;[];252.46131390007213;None;['7'];[0.37076950003392994];252.46131390007213;None;;;S11407;2022_Apr_28_1102;VideoMask;2021.1.2;120.15071675203983;
8.0;m;008_y_m_s_a.jpg;sad;7.0;happy_133.3.wmv;happy;9.0;incongruent;130.0;150.0;152.577966552593;s_h;;;;;0;16;16;16;;;;;;;255.4612102000974;None;256.95271919993684;257.269430299988;258.4029308001045;258.4195322000887;260.4027245999314;None;9;0;0.2852439000271261;260.4027245999314;None;;;;;;;;6;;;;;;261.95262870006263;None;None;None;[];261.95262870006263;None;"['9', '9', '9']";"[0.31148499995470047, 0.9274465998169035, 1.4313550998922437]";261.95262870006263;None;;;S11407;2022_Apr_28_1102;VideoMask;2021.1.2;120.15071675203983;
3.0;m;033_o_m_h_a.jpg;happy;9.0;sad_128.1.wmv;sad;7.0;incongruent;120.0;160.0;171.0492454518585;h_s;;;;;0;17;17;17;;;;;;;264.9526335999835;None;266.5941157999914;266.9109943001531;268.04394869995303;268.060831699986;270.0440873999614;None;7;0;0.2998804000671953;270.0440873999614;None;;;;;;;;2;;;;;;271.6440624999814;None;None;None;[];271.6440624999814;None;"['7', '7', '7', '7']";"[0.2922559999860823, 0.5640422001015395, 0.8279899000190198, 1.2200627999845892]";271.6440624999814;None;;;S11407;2022_Apr_28_1102;VideoMask;2021.1.2;120.15071675203983;
1.0;f;021_o_f_h_a.jpg;happy;9.0;sad_116.1.wmv;sad;7.0;incongruent;120.0;160.0;184.06847610053055;h_s;;;;;0;18;18;18;;;;;;;274.6438863000367;None;276.3937028001528;276.71055730013177;277.8445953000337;277.8688845001161;279.84372629993595;None;7;0;0.3163230000063777;279.84372629993595;None;;;;;;;;4;;;;;;281.3937075000722;None;None;None;[];281.3937075000722;None;"['7', '7', '7']";"[0.3183990002144128, 0.718395700212568, 1.2062619000207633]";281.3937075000722;None;;;S11407;2022_Apr_28_1102;VideoMask;2021.1.2;120.15071675203983;
4.0;m;004_o_m_s_a.jpg;sad;7.0;happy_28.1ns.avi;happy;9.0;incongruent;130.0;150.0;157.40741103039684;s_h;;;;;0;19;19;19;;;;;;;284.39374330011196;None;285.9102068000939;286.22695769998245;287.41834450000897;287.4351208000444;291.7518241000362;None;9;0;0.24829260003753006;291.7518241000362;None;;;;;;;;9;;;;;;293.3600914000999;None;None;None;[];293.3600914000999;None;"['9', '9', '9', '9', '9']";"[0.29606999992392957, 0.5439102998934686, 0.7198449999559671, 0.9198703998699784, 1.1919958998914808]";293.3600914000999;None;;;S11407;2022_Apr_28_1102;VideoMask;2021.1.2;120.15071675203983;
8.0;f;028_y_f_s_a.jpg;sad;7.0;happy_122.3.wmv;happy;9.0;incongruent;130.0;150.0;171.8670540936116;s_h;;;;;0;20;20;20;;;;;;;296.3600509001408;None;298.0014844001271;298.31825320003554;299.4515941001009;299.46824280009605;301.46819730009884;None;9;0;0.5878349000122398;301.46819730009884;None;;;;;;;;7;;;;;;303.01812879997306;None;None;None;[];303.01812879997306;None;"['9', '9']";"[0.2219676999375224, 0.5419455000665039]";303.01812879997306;None;;;S11407;2022_Apr_28_1102;VideoMask;2021.1.2;120.15071675203983;
8.0;m;008_y_m_s_a.jpg;sad;7.0;sad_6.5ns.avi;sad;7.0;congruent;130.0;160.0;170.39333839271438;s_s;;;;;0;21;21;21;;;;;;;306.0181446999777;None;307.65119050000794;307.96797030000016;309.1518912999891;309.18442800012417;314.1013571000658;None;7;0;0.3147803000174463;314.1013571000658;None;;;;;;;;4;;;;;;315.65104510006495;None;None;None;[];315.65104510006495;None;"['7', '9', '7']";"[0.2612016999628395, 0.3010295999702066, 0.7570162999909371]";315.65104510006495;None;;;S11407;2022_Apr_28_1102;VideoMask;2021.1.2;120.15071675203983;
8.0;f;028_y_f_h_a.jpg;happy;9.0;happy_23.1ns.avi;happy;9.0;congruent;120.0;150.0;225.70986890587952;h_h;;;;;0;22;22;22;;;;;;;318.65105360001326;None;320.72581390012056;321.04256190010346;322.183990099933;322.20093500008807;326.75073700002395;None;9;0;0.2014146998990327;326.75073700002395;None;;;;;;;;8;;;;;;328.32572209998034;None;None;None;[];328.32572209998034;None;"['9', '9', '9', '9']";"[0.22631729999557137, 0.5063072999473661, 0.7463197000324726, 1.0103368000127375]";328.32572209998034;None;;;S11407;2022_Apr_28_1102;VideoMask;2021.1.2;120.15071675203983;
8.0;m;008_y_m_h_a.jpg;happy;9.0;sad_111.1.wmv;sad;7.0;incongruent;120.0;160.0;152.63076835312847;h_s;;;;;0;23;23;23;;;;;;;331.3339255999308;None;332.80877240002155;333.12554319994524;334.25882970006205;334.2755253999494;336.2588414000347;None;7;0;0.3812452999409288;336.2588414000347;None;;;;;;;;4;;;;;;337.8086973000318;None;None;None;[];337.8086973000318;None;['7'];[0.3035995999816805];337.8086973000318;None;;;S11407;2022_Apr_28_1102;VideoMask;2021.1.2;120.15071675203983;
0.0;f;040_y_f_s_a.jpg;sad;7.0;sad_67.2ns.avi;sad;7.0;congruent;130.0;160.0;220.9892697323079;s_s;;;;;0;24;24;24;;;;;;;340.8086580999661;None;342.8752295000013;343.1918913000263;344.37528760009445;344.39177930005826;353.54997489997186;None;7;0;0.2901953000109643;353.54997489997186;None;;;;;;;;2;;;;;;355.0999078999739;None;None;None;[];355.0999078999739;None;"['7', '7', '7']";"[0.2843849000055343, 0.5322596998885274, 0.7403110000304878]";355.0999078999739;None;;;S11407;2022_Apr_28_1102;VideoMask;2021.1.2;120.15071675203983;
8.0;m;008_y_m_s_a.jpg;sad;7.0;happy_29.1ns.avi;happy;9.0;incongruent;130.0;150.0;120.0316142834122;s_h;;;;;0;25;25;25;;;;;;;358.1082953000441;None;359.30803299997933;359.62465519993566;360.7919985000044;360.81639480008744;363.4497173000127;None;9;0;0.36632220004685223;363.4497173000127;None;;;;;;;;7;;;;;;364.99961309996434;None;None;None;[];364.99961309996434;None;"['9', '9']";"[0.3286097999662161, 0.608629500027746]";364.99961309996434;None;;;S11407;2022_Apr_28_1102;VideoMask;2021.1.2;120.15071675203983;
6.0;m;016_y_m_s_a.jpg;sad;7.0;sad_8.3ns.avi;sad;7.0;congruent;130.0;160.0;152.85371098242734;s_s;;;;;0;26;26;26;;;;;;;368.00795470015146;None;369.49103110004216;369.8076943999622;371.0075147000607;371.02448699995875;378.6991777000949;None;7;0;0.2930485000833869;378.6991777000949;None;;;;;;;;4;;;;;;380.2491701999679;None;None;None;[];380.2491701999679;None;"['7', '7']";"[0.31893840013071895, 0.7510697001125664]";380.2491701999679;None;;;S11407;2022_Apr_28_1102;VideoMask;2021.1.2;120.15071675203983;
6.0;m;016_y_m_h_a.jpg;happy;9.0;sad_114.1.wmv;sad;7.0;incongruent;120.0;160.0;136.20550699298644;h_s;;;;;0;27;27;27;;;;;;;383.25750790000893;None;384.5988980999682;384.91549129993655;386.04072390007786;386.0572635999415;388.0488539999351;None;7;0;0.2952581997960806;388.0488539999351;None;;;;;;;;3;;;;;;389.598848399939;None;None;None;[];389.598848399939;None;"['7', '7']";"[0.513477599946782, 1.5294049000367522]";389.598848399939;None;;;S11407;2022_Apr_28_1102;VideoMask;2021.1.2;120.15071675203983;
7.0;m;027_o_m_s_a.jpg;sad;7.0;happy_117.3.wmv;happy;9.0;incongruent;130.0;150.0;215.61964028550614;s_h;;;;;0;28;28;28;;;;;;;392.5988319001626;None;394.59858190012164;394.9153309999965;396.0405357000418;396.05769510008395;398.0486217001453;None;None;0;;398.0486217001453;None;;;;;;;;3;;;;;;399.61503710015677;None;None;None;[];399.61503710015677;None;"['7', '7']";"[9.977329599903896, 0.4731070001143962]";399.61503710015677;None;;;S11407;2022_Apr_28_1102;VideoMask;2021.1.2;120.15071675203983;
6.0;m;016_y_m_h_a.jpg;happy;9.0;happy_9.2ns.avi;happy;9.0;congruent;120.0;150.0;130.52042428082717;h_h;;;;;0;29;29;29;;;;;;;402.59862380009145;None;403.8900335000362;404.2067611000966;405.3901126999408;405.4067514000926;411.27323610009626;None;9;0;0.27899009990505874;411.27323610009626;None;;;;;;;;7;;;;;;412.82317960006185;None;None;None;[];412.82317960006185;None;"['9', '9', '9']";"[0.36906289984472096, 0.9612158997915685, 1.3450445998460054]";412.82317960006185;None;;;S11407;2022_Apr_28_1102;VideoMask;2021.1.2;120.15071675203983;
0.0;f;040_y_f_s_a.jpg;sad;7.0;happy_127.3.wmv;happy;9.0;incongruent;130.0;150.0;131.7195455720239;s_h;;;;;0;30;30;30;;;;;;;415.82327629998326;None;417.1229177999776;417.4396792000625;418.58976390003227;418.60635809996165;420.6396171001252;None;9;0;0.2645388001110405;420.6396171001252;None;;;;;;;;6;;;;;;422.18956990004517;None;None;None;[];422.18956990004517;None;"['9', '9']";"[0.2187747999560088, 0.6506705000065267]";422.18956990004517;None;;;S11407;2022_Apr_28_1102;VideoMask;2021.1.2;120.15071675203983;
0.0;f;030_o_f_s_a.jpg;sad;7.0;happy_125.3.wmv;happy;9.0;incongruent;130.0;150.0;220.51454909128134;s_h;;;;;0;31;31;31;;;;;;;425.1896093999967;None;427.2392800000962;427.55594970006496;428.6980961000081;428.72275499999523;430.68930580001324;None;9;0;0.3829842999111861;430.68930580001324;None;;;;;;;;7;;;;;;432.26423040009104;None;None;None;[];432.26423040009104;None;"['9', '9']";"[0.2482501999475062, 0.5199154000729322]";432.26423040009104;None;;;S11407;2022_Apr_28_1102;VideoMask;2021.1.2;120.15071675203983;
0.0;f;030_o_f_s_a.jpg;sad;7.0;sad_64.3ns.avi;sad;7.0;congruent;130.0;160.0;165.78667874766072;s_s;;;;;0;32;32;32;;;;;;;435.2641040000599;None;436.85563779994845;437.17228109994903;438.3140780001413;438.3307881001383;443.30575260007754;None;7;0;0.40649050008505583;443.30575260007754;None;;;;;;;;4;;;;;;444.85555690014735;None;None;None;[];444.85555690014735;None;"['7', '7']";"[0.39266010001301765, 0.8250504999887198]";444.85555690014735;None;;;S11407;2022_Apr_28_1102;VideoMask;2021.1.2;120.15071675203983;
3.0;m;013_y_m_s_a.jpg;sad;7.0;sad_7.7ns.avi;sad;7.0;congruent;130.0;160.0;196.24182255763262;s_s;;;;;0;33;33;33;;;;;;;447.86392070003785;None;449.70529070007615;450.02197739994153;451.1968731000088;451.21364810015075;457.16413059993647;None;7;0;0.27643380011431873;457.16413059993647;None;;;;;;;;3;;;;;;458.84680050006136;None;None;None;[];458.84680050006136;None;"['7', '7']";"[0.28157630003988743, 0.5213985000737011]";458.84680050006136;None;;;S11407;2022_Apr_28_1102;VideoMask;2021.1.2;120.15071675203983;
3.0;m;013_y_m_h_a.jpg;happy;9.0;happy_9.1ns.avi;happy;9.0;congruent;120.0;150.0;165.1890303600433;h_h;;;;;0;34;34;34;;;;;;;461.85521219996735;None;463.43819919996895;463.754914799938;464.9464740001131;464.9632566999644;468.12163179996423;None;9;0;0.3267073000315577;468.12163179996423;None;;;;;;;;8;;;;;;469.67147910012864;None;None;None;[];469.67147910012864;None;"['9', '9', '9']";"[0.22474930016323924, 0.536749399965629, 0.7767583001405001]";469.67147910012864;None;;;S11407;2022_Apr_28_1102;VideoMask;2021.1.2;120.15071675203983;
4.0;m;004_o_m_h_a.jpg;happy;9.0;sad_95.1ns.avi;sad;7.0;incongruent;120.0;160.0;152.68270002069931;h_s;;;;;0;35;35;35;;;;;;;472.6713680999819;None;474.1713372999802;474.4879270000383;475.68790449993685;475.7049527000636;484.412991899997;None;7;0;0.3233242998830974;484.412991899997;None;;;;;;;;3;;;;;;485.9709978001192;None;None;None;[];485.9709978001192;None;"['7', '7']";"[0.3893981999717653, 0.6374402998480946]";485.9709978001192;None;;;S11407;2022_Apr_28_1102;VideoMask;2021.1.2;120.15071675203983;
3.0;m;013_y_m_h_a.jpg;happy;9.0;sad_113.2.wmv;sad;7.0;incongruent;120.0;160.0;217.4973891947951;h_s;;;;;0;36;36;36;;;;;;;488.9792220001109;None;491.00411080010235;491.32074730005115;492.44587039994076;492.4624292999506;494.45407600002363;None;7;0;0.2983629999216646;494.45407600002363;None;;;;;;;;4;;;;;;496.17904080008157;None;None;None;[];496.17904080008157;None;['7'];[0.3491450999863446];496.17904080008157;None;;;S11407;2022_Apr_28_1102;VideoMask;2021.1.2;120.15071675203983;
4.0;m;004_o_m_h_a.jpg;happy;9.0;happy_25.1ns.avi;happy;9.0;congruent;120.0;150.0;216.63044503818386;h_h;;;;;0;37;37;37;;;;;;;499.17893350007944;None;501.18716400000267;501.50381330004893;502.68717229994945;502.70391870010644;506.32875979994424;None;9;0;0.31149409990757704;506.32875979994424;None;;;;;;;;7;;;;;;507.87864789995365;None;None;None;[];507.87864789995365;None;"['9', '9']";"[0.27377950004301965, 0.5456703000236303]";507.87864789995365;None;;;S11407;2022_Apr_28_1102;VideoMask;2021.1.2;120.15071675203983;
4.0;m;004_o_m_s_a.jpg;sad;7.0;happy_131.2.wmv;happy;9.0;incongruent;130.0;150.0;181.38407540847405;s_h;;;;;0;38;38;38;;;;;;;510.87856180011295;None;512.5950621000957;512.9117574000265;514.0450126000214;514.0618577999994;516.0451120999642;None;9;0;0.3072749001439661;516.0451120999642;None;;;;;;;;7;;;;;;517.7116764001548;None;None;None;[];517.7116764001548;None;"['9', '9', '9']";"[0.2887712998781353, 0.55264290003106, 0.8805968000087887]";517.7116764001548;None;;;S11407;2022_Apr_28_1102;VideoMask;2021.1.2;120.15071675203983;
0.0;f;040_y_f_h_a.jpg;happy;9.0;happy_24.3ns.avi;happy;9.0;congruent;120.0;150.0;213.25460698950434;h_h;;;;;0;39;39;39;;;;;;;520.7116152001545;None;522.678099400131;522.9948342000134;524.1869553001598;524.2115454000887;526.0532132000662;None;9;0;0.43512480007484555;526.0532132000662;None;;;;;;;;8;;;;;;527.6114131000359;None;None;None;[];527.6114131000359;None;"['9', '9', '9', '9']";"[0.30901630013249815, 0.5888603001367301, 0.8288980999495834, 1.1811901000328362]";527.6114131000359;None;;;S11407;2022_Apr_28_1102;VideoMask;2021.1.2;120.15071675203983;
2.0;f;012_o_f_s_a.jpg;sad;7.0;happy_139.1.wmv;happy;9.0;incongruent;130.0;150.0;162.31500468041804;s_h;;;;;0;40;40;40;;;;;;;530.611351700034;None;532.16948650009;532.4861832000315;533.6200057000387;533.6445238001179;535.6194661001209;None;9;0;0.3089288000483066;535.6194661001209;None;;;;;;;;6;;;;;;537.1694602000061;None;None;None;[];537.1694602000061;None;['9'];[0.2871232000179589];537.1694602000061;None;;;S11407;2022_Apr_28_1102;VideoMask;2021.1.2;120.15071675203983;
0.0;f;030_o_f_h_a.jpg;happy;9.0;happy_24.1ns.avi;happy;9.0;congruent;120.0;150.0;168.36256624020774;h_h;;;;;0;41;41;41;;;;;;;540.1777210000437;None;541.7859056999441;542.1025652999524;543.3108445000835;543.3276097001508;546.5608725999482;None;9;0;0.3275440998841077;546.5608725999482;None;;;;;;;;7;;;;;;548.1107280999422;None;None;None;[];548.1107280999422;None;"['9', '9', '9']";"[0.8419054998084903, 1.1856662000063807, 1.5377349997870624]";548.1107280999422;None;;;S11407;2022_Apr_28_1102;VideoMask;2021.1.2;120.15071675203983;
2.0;f;012_o_f_h_a.jpg;happy;9.0;sad_113.1.wmv;sad;7.0;incongruent;120.0;160.0;177.44551734737394;h_s;;;;;0;42;42;42;;;;;;;551.1190164000727;None;552.8021605000831;553.1188962999731;554.252800000133;554.2856455999427;556.2689493999351;None;7;0;0.33959860005415976;556.2689493999351;None;;;;;;;;4;;;;;;557.8271594999824;None;None;None;[];557.8271594999824;None;"['7', '7']";"[0.4691860000602901, 0.8771097999997437]";557.8271594999824;None;;;S11407;2022_Apr_28_1102;VideoMask;2021.1.2;120.15071675203983;
3.0;m;033_o_m_s_a.jpg;sad;7.0;sad_64.5ns.avi;sad;7.0;congruent;130.0;160.0;130.55717223801247;s_s;;;;;0;43;43;43;;;;;;;560.8271776000038;None;562.1270117000677;562.4436674001627;563.5936432001181;563.610397099983;570.1601569000632;None;7;0;0.3202901999466121;570.1601569000632;None;;;;;;;;4;;;;;;571.7100796999875;None;None;None;[];571.7100796999875;None;"['7', '7']";"[0.594555500196293, 1.0503561000805348]";571.7100796999875;None;;;S11407;2022_Apr_28_1102;VideoMask;2021.1.2;120.15071675203983;
7.0;m;027_o_m_h_a.jpg;happy;9.0;sad_117.1.wmv;sad;7.0;incongruent;120.0;160.0;181.28665202824095;h_s;;;;;0;44;44;44;;;;;;;574.7100774999708;None;576.4348061000928;576.7514575000387;577.8938531000167;577.9263255000114;579.8848462000024;None;7;0;0.363694200059399;579.8848462000024;None;;;;;;;;4;;;;;;581.4346710001118;None;None;None;[];581.4346710001118;None;['7'];[0.5096543000545353];581.4346710001118;None;;;S11407;2022_Apr_28_1102;VideoMask;2021.1.2;120.15071675203983;
3.0;m;033_o_m_s_a.jpg;sad;7.0;happy_126.3.wmv;happy;9.0;incongruent;130.0;150.0;198.85252030535366;s_h;;;;;0;45;45;45;;;;;;;584.4347735999618;None;586.2928241000045;586.6094223000109;587.742802800145;587.7594129999634;589.7429329999723;None;9;0;0.8656784000340849;589.7429329999723;None;;;;;;;;6;;;;;;591.300967700081;None;None;None;[];591.300967700081;None;['9'];[0.27570450003258884];591.300967700081;None;;;S11407;2022_Apr_28_1102;VideoMask;2021.1.2;120.15071675203983;
3.0;m;033_o_m_h_a.jpg;happy;9.0;sad_136.1.wmv;sad;7.0;incongruent;120.0;160.0;176.97002883463455;h_s;;;;;0;46;46;46;;;;;;;594.3011422001291;None;595.9758995000739;596.292605600087;597.4177580000833;597.4342513999436;599.4259089000989;None;7;0;0.3104906000662595;599.4259089000989;None;;;;;;;;4;;;;;;600.9758848999627;None;None;None;[];600.9758848999627;None;['7'];[0.2965920001734048];600.9758848999627;None;;;S11407;2022_Apr_28_1102;VideoMask;2021.1.2;120.15071675203983;
9.0;f;019_m_f_h_a.jpg;happy;9.0;happy_10.1ns.avi;happy;9.0;congruent;120.0;150.0;157.2463435658512;h_h;;;;;0;47;47;47;;;;;;;603.9758616001345;None;605.5005739000626;605.8173573000822;607.025733300019;607.0421488001011;614.408741600113;None;9;0;0.27160200010985136;614.408741600113;None;;;;;;;;7;;;;;;615.958757000044;None;None;None;[];615.958757000044;None;"['9', '9']";"[0.2979582999832928, 1.0176812999416143]";615.958757000044;None;;;S11407;2022_Apr_28_1102;VideoMask;2021.1.2;120.15071675203983;
2.0;f;012_o_f_h_a.jpg;happy;9.0;happy_2.2ns.avi;happy;9.0;congruent;120.0;150.0;206.34800317295262;h_h;;;;;0;48;48;48;;;;;;;618.9586555999704;None;620.9169519999996;621.2336256999988;622.3752658001613;622.3918942001183;634.5665760999545;None;9;0;0.33811810007318854;634.5665760999545;None;;;;;;;;6;;;;;;636.1164957000874;None;None;None;[];636.1164957000874;None;"['9', '9']";"[0.24402339989319444, 0.7962907000910491]";636.1164957000874;None;;;S11407;2022_Apr_28_1102;VideoMask;2021.1.2;120.15071675203983;
3.0;m;033_o_m_h_a.jpg;happy;9.0;happy_24.2ns.avi;happy;9.0;congruent;120.0;150.0;167.9423847659953;h_h;;;;;0;49;49;49;;;;;;;639.1248284999747;None;640.7079052000772;641.0245283001568;642.1745953001082;642.1912714000791;645.8995203000959;None;9;0;0.4210838000290096;645.8995203000959;None;;;;;;;;8;;;;;;647.4578081001528;None;None;None;[];647.4578081001528;None;"['9', '9', '9']";"[0.28671090002171695, 0.630590199958533, 0.9746429999358952]";647.4578081001528;None;;;S11407;2022_Apr_28_1102;VideoMask;2021.1.2;120.15071675203983;
1.0;f;021_o_f_s_a.jpg;sad;7.0;happy_61.2ns.avi;happy;9.0;incongruent;130.0;150.0;210.94664004826666;s_h;;;;;0;50;50;50;;;;;;;650.457739100093;None;652.415870900033;652.7325852999929;653.9409215999767;653.9576106001623;658.3908790000714;None;9;0;0.25757199991494417;658.3908790000714;None;;;;;;;;7;;;;;;659.9407445001416;None;None;None;[];659.9407445001416;None;"['9', '9']";"[0.300032899947837, 0.595685999840498]";659.9407445001416;None;;;S11407;2022_Apr_28_1102;VideoMask;2021.1.2;120.15071675203983;
4.0;m;004_o_m_s_a.jpg;sad;7.0;sad_2.4ns.avi;sad;7.0;congruent;130.0;160.0;153.02079367163634;s_s;;;;;0;51;51;51;;;;;;;662.9491141999606;None;664.4487838000059;664.7656133000273;665.8996103000827;665.9240194000304;673.8656375000719;None;7;0;0.398846099851653;673.8656375000719;None;;;;;;;;4;;;;;;675.4402998001315;None;None;None;[];675.4402998001315;None;['7'];[0.5283812000416219];675.4402998001315;None;;;S11407;2022_Apr_28_1102;VideoMask;2021.1.2;120.15071675203983;
8.0;m;008_y_m_h_a.jpg;happy;9.0;happy_1.2ns.avi;happy;9.0;congruent;120.0;150.0;210.98946429383824;h_h;;;;;0;52;52;52;;;;;;;678.4485568001401;None;680.4399930001236;680.7568040001206;681.9568400001153;681.9734461000189;694.6904231000226;None;9;0;0.23010120005346835;694.6904231000226;None;;;;;;;;7;;;;;;696.2563324000221;None;None;None;[];696.2563324000221;None;"['9', '9']";"[0.39216029993258417, 0.6802411999087781]";696.2563324000221;None;;;S11407;2022_Apr_28_1102;VideoMask;2021.1.2;120.15071675203983;
2.0;f;012_o_f_s_a.jpg;sad;7.0;happy_52.2ns.avi;happy;9.0;incongruent;130.0;150.0;172.57202848318138;s_h;;;;;0;53;53;53;;;;;;;699.2646558000706;None;700.8978433001321;701.2143896999769;702.3478117999621;702.364432200091;705.8977459999733;None;9;0;0.2627775000873953;705.8977459999733;None;;;;;;;;8;;;;;;707.4476787999738;None;None;None;[];707.4476787999738;None;"['9', '9', '9']";"[0.26485020015388727, 0.5207584002055228, 0.7207626001909375]";707.4476787999738;None;;;S11407;2022_Apr_28_1102;VideoMask;2021.1.2;120.15071675203983;
9.0;f;019_m_f_s_a.jpg;sad;7.0;happy_61.1ns.avi;happy;9.0;incongruent;130.0;150.0;181.3003220572762;s_h;;;;;0;54;54;54;;;;;;;710.4476652999874;None;712.1807194000576;712.4974577999674;713.6643068999983;713.6813467999455;721.0224638001528;None;9;0;0.20226870011538267;721.0224638001528;None;;;;;;;;8;;;;;;722.5889173999894;None;None;None;[];722.5889173999894;None;"['9', '9', '9']";"[0.29153540008701384, 0.531609000172466, 0.7636251000221819]";722.5889173999894;None;;;S11407;2022_Apr_28_1102;VideoMask;2021.1.2;120.15071675203983;
0.0;f;030_o_f_h_a.jpg;happy;9.0;sad_133.1.wmv;sad;7.0;incongruent;120.0;160.0;198.86251500867985;h_s;;;;;0;55;55;55;;;;;;;725.58894279995;None;727.455410500057;727.7720206000376;728.8970749001019;728.9136823001318;730.9136316999793;None;7;0;0.34295970015227795;730.9136316999793;None;;;;;;;;4;;;;;;732.4636039999314;None;None;None;[];732.4636039999314;None;['7'];[0.34495060006156564];732.4636039999314;None;;;S11407;2022_Apr_28_1102;VideoMask;2021.1.2;120.15071675203983;
0.0;f;040_y_f_h_a.jpg;happy;9.0;sad_128.2.wmv;sad;7.0;incongruent;120.0;160.0;206.10005857915363;h_s;;;;;0;56;56;56;;;;;;;735.4635553001426;None;737.3966572000645;737.7133573000319;738.87157139997;738.8883378999308;740.8633695000317;None;7;0;0.2974034999497235;740.8633695000317;None;;;;;;;;3;;;;;;742.4216537000611;None;None;None;[];742.4216537000611;None;"['7', '7']";"[0.4912424997892231, 1.2433658998925239]";742.4216537000611;None;;;S11407;2022_Apr_28_1102;VideoMask;2021.1.2;120.15071675203983;
1.0;f;021_o_f_s_a.jpg;sad;7.0;sad_9.5ns.avi;sad;7.0;congruent;130.0;160.0;206.16642757875042;s_s;;;;;0;57;57;57;;;;;;;745.4216219999362;None;747.3463697000407;747.6631150001194;748.8381340999622;748.8547849999741;754.5214309000876;None;7;0;0.2712315998505801;754.5214309000876;None;;;;;;;;3;;;;;;756.0712314001285;None;None;None;[];756.0712314001285;None;"['7', '7']";"[0.2254143999889493, 0.46529469988308847]";756.0712314001285;None;;;S11407;2022_Apr_28_1102;VideoMask;2021.1.2;120.15071675203983;
1.0;f;021_o_f_h_a.jpg;happy;9.0;happy_12.1ns.avi;happy;9.0;congruent;120.0;150.0;132.59080005900228;h_h;;;;;0;58;58;58;;;;;;;759.0712604001164;None;760.3958908999339;760.7126686000265;761.8800566999707;761.9043799999636;769.4626583000645;None;8;0;0.2340432999189943;769.4626583000645;None;;;;;;;;5;;;;;;771.0207740999758;None;None;None;[];771.0207740999758;None;None;;771.0207740999758;None;;;S11407;2022_Apr_28_1102;VideoMask;2021.1.2;120.15071675203983;
3.0;m;013_y_m_s_a.jpg;sad;7.0;happy_56.2ns.avi;happy;9.0;incongruent;130.0;150.0;163.39234110935848;s_h;;;;;0;59;59;59;;;;;;;774.0372737001162;None;775.6038967000786;775.920544099994;777.1286117001437;777.1453925999813;782.0870783000719;None;9;0;0.4255788999143988;782.0870783000719;None;;;;;;;;6;;;;;;783.6370596000925;None;None;None;[];783.6370596000925;None;['9'];[0.3476803998928517];783.6370596000925;None;;;S11407;2022_Apr_28_1102;VideoMask;2021.1.2;120.15071675203983;
;;;;;;;;;;;;;;;;;;;;;;;;;;;;;;;;;;;;;;;;;;;;;;;;;;;;;;;;;;;;;;;;786.6453674000222;None;;;;;;
