primePerson;primeGender;prime;primeEmotion;corrAnsPrime;target;targetEmotion;corrAnsTar;Cond;ID_Primer;ID_Target;JitterTime;Condition;example.thisRepN;example.thisTrialN;example.thisN;example.thisIndex;study.thisRepN;study.thisTrialN;study.thisN;study.thisIndex;MR_trigger_time;MR_trigger_number;text_intro.started;text_intro.stopped;text_probe.started;text_probe.stopped;polygon_ISI.started;polygon_ISI.stopped;polygon.started;polygon.stopped;primerImage.started;primerImage.stopped;response.started;response.stopped;key_resp.keys;key_resp.corr;key_resp.rt;key_resp.started;key_resp.stopped;slider_Text.started;slider_Text.stopped;slider_ex.response;slider_ex.rt;slider_ex.history;slider_ex.started;slider_ex.stopped;Rating;slider_resp_response.keys;slider_resp_response.rt;slider_resp_response.started;slider_resp_response.stopped;text_start.started;text_start.stopped;text_slider.started;text_slider.stopped;slider_stud.response;slider_stud.rt;slider_stud.history;slider_stud.started;slider_stud.stopped;slider_resp_study.keys;slider_resp_study.rt;slider_resp_study.started;slider_resp_study.stopped;text_ende.started;text_ende.stopped;participant;date;expName;psychopyVersion;frameRate;
1111;m;1111_m_m_h_a.jpg;happy;9;example_30.4ns.avi;neutral;7;incongruent;120.0;170.0;189.5874364012288;;0;0;0;0;;;;;27.323203399952035;1;27.41786309995223;29.451342999993358;29.451342999993358;None;31.460169999976642;None;33.77637969999341;34.10108890000265;35.2342507999856;35.25095560000045;39.56762709998293;None;8;0;0.6647800999926403;39.56762709998293;None;41.15096869994886;None;None;None;[];41.15096869994886;None;4;['7'];[2.0413918999838643];41.15096869994886;None;;;;;;;;;;;;;;;;S12013;2023_Feb_10_1635;VideoMask;2021.1.2;121.12241718913961;
1113;f;1113_y_f_s_a.jpg;sad;7;example_30.3ns.avi;neutral;7;incongruent;130.0;170.0;229.02432995836998;;0;1;1;1;;;;;;;;;;;44.134178399981465;None;46.28384689998347;46.60062119999202;47.73415619996376;47.75068459997419;49.73486259998754;None;8;0;0.7212290999596007;49.73486259998754;None;51.40896369999973;None;None;None;[];51.40896369999973;None;5;None;;51.40896369999973;None;;;;;;;;;;;;;;;;S12013;2023_Feb_10_1635;VideoMask;2021.1.2;121.12241718913961;
9.0;f;019_m_f_h_a.jpg;happy;9.0;sad_115.1.wmv;sad;7.0;incongruent;120.0;160.0;128.09063432376465;h_s;;;;;0;0;0;0;;;;;;;55.44214559998363;None;56.742056799994316;57.05865449999692;58.22543399996357;58.2421328999917;60.208720199996606;None;7;0;0.7115611000335775;60.208720199996606;None;;;;;;;;2;;;;;54.44232699996792;None;61.80870289995801;None;None;None;[];61.80870289995801;None;"['7', '7', '7']";"[0.8633856000378728, 1.3119832000229508, 2.495742600003723]";61.80870289995801;None;;;S12013;2023_Feb_10_1635;VideoMask;2021.1.2;121.12241718913961;
3.0;m;033_o_m_s_a.jpg;sad;7.0;sad_94.2ns.avi;sad;7.0;congruent;130.0;160.0;182.29120173647655;s_s;;;;;0;1;1;1;;;;;;;64.80855349998455;None;66.56668379995972;66.8832142999745;68.05007249995833;68.06667379999999;70.70814129995415;None;7;0;0.5485505999531597;70.70814129995415;None;;;;;;;;2;;;;;;;72.50829999998678;None;None;None;[];72.50829999998678;None;"['7', '7', '7', '7']";"[0.44405400002142414, 0.6759205000125803, 0.9720394000178203, 1.4038582000066526]";72.50829999998678;None;;;S12013;2023_Feb_10_1635;VideoMask;2021.1.2;121.12241718913961;
8.0;m;008_y_m_h_a.jpg;happy;9.0;happy_26.1ns.avi;happy;9.0;congruent;120.0;150.0;155.9437854594882;h_h;;;;;0;2;2;2;;;;;;;75.51650460000383;None;77.03307780000614;77.34980099997483;78.51633869996294;78.53290389996255;80.48353969998425;None;9;0;0.8444421999738552;80.48353969998425;None;;;;;;;;6;;;;;;;82.27464179997332;None;None;None;[];82.27464179997332;None;['9'];[0.5176084999693558];82.27464179997332;None;;;S12013;2023_Feb_10_1635;VideoMask;2021.1.2;121.12241718913961;
0.0;f;040_y_f_h_a.jpg;happy;9.0;sad_138.1.wmv;sad;7.0;incongruent;120.0;160.0;133.99071306426532;h_s;;;;;0;3;3;3;;;;;;;85.282682799967;None;86.63279509998392;86.94937619997654;88.09951539995382;88.11597469996195;90.08263429999352;None;7;0;0.9182407000334933;90.08263429999352;None;;;;;;;;3;;;;;;;91.75757969997358;None;None;None;[];91.75757969997358;None;"['7', '7']";"[0.5546713000512682, 0.8988236000295728]";91.75757969997358;None;;;S12013;2023_Feb_10_1635;VideoMask;2021.1.2;121.12241718913961;
8.0;f;028_y_f_s_a.jpg;sad;7.0;sad_64.2ns.avi;sad;7.0;congruent;130.0;160.0;229.88540597086478;s_s;;;;;0;4;4;4;;;;;;;94.7575107999728;None;96.99087379995035;97.30734649999067;98.44069249997847;98.45747569995001;109.44112959998893;None;7;0;0.6473805999848992;109.44112959998893;None;;;;;;;;2;;;;;;;111.31537359999493;None;None;None;[];111.31537359999493;None;"['7', '7', '7', '7']";"[0.3648206999641843, 0.6527582000126131, 0.9889627000084147, 1.4129459999967366]";111.31537359999493;None;;;S12013;2023_Feb_10_1635;VideoMask;2021.1.2;121.12241718913961;
7.0;m;027_o_m_s_a.jpg;sad;7.0;sad_10.4ns.avi;sad;7.0;congruent;130.0;160.0;185.20129417468752;s_s;;;;;0;5;5;5;;;;;;;114.32369729998754;None;116.09841039997991;116.41518569999607;117.57348789996468;117.59010589995887;120.71504669997375;None;7;0;0.6530344999628142;120.71504669997375;None;;;;;;;;2;;;;;;;122.26499449997209;None;None;None;[];122.26499449997209;None;"['7', '7', '7']";"[0.5513264000182971, 0.8630678000045009, 1.2311056000180542]";122.26499449997209;None;;;S12013;2023_Feb_10_1635;VideoMask;2021.1.2;121.12241718913961;
2.0;f;012_o_f_s_a.jpg;sad;7.0;sad_7.5ns.avi;sad;7.0;congruent;130.0;160.0;220.27842655424388;s_s;;;;;0;6;6;6;;;;;;;125.26500229997328;None;127.30640729999868;127.62299659999553;128.76479919999838;128.78137919999426;131.54831489996286;None;7;0;0.48402799997711554;131.54831489996286;None;;;;;;;;3;;;;;;;133.1062228999799;None;None;None;[];133.1062228999799;None;"['7', '7']";"[0.39806770003633574, 0.6858345000073314]";133.1062228999799;None;;;S12013;2023_Feb_10_1635;VideoMask;2021.1.2;121.12241718913961;
2.0;f;012_o_f_h_a.jpg;happy;9.0;happy_27.1ns.avi;happy;9.0;congruent;120.0;150.0;146.44967055810616;h_h;;;;;0;7;7;7;;;;;;;136.10636499995599;None;137.5393519999925;137.85605539998505;139.00584259995958;139.02266819996294;141.48107409995282;None;9;0;0.6072545999777503;141.48107409995282;None;;;;;;;;6;;;;;;;143.03103849996114;None;None;None;[];143.03103849996114;None;['9'];[0.44110060000093654];143.03103849996114;None;;;S12013;2023_Feb_10_1635;VideoMask;2021.1.2;121.12241718913961;
8.0;f;028_y_f_h_a.jpg;happy;9.0;sad_119.1.wmv;sad;7.0;incongruent;120.0;160.0;148.71526953572538;h_s;;;;;0;8;8;8;;;;;;;146.03933770000003;None;147.50571040000068;147.82247029995779;148.96416969998972;148.9807173999725;151.0223683999502;None;7;0;0.562050900014583;151.0223683999502;None;;;;;;;;4;;;;;;;152.57237849995727;None;None;None;[];152.57237849995727;None;['7'];[0.555921999970451];152.57237849995727;None;;;S12013;2023_Feb_10_1635;VideoMask;2021.1.2;121.12241718913961;
6.0;m;016_y_m_s_a.jpg;sad;7.0;happy_60.4ns.avi;happy;9.0;incongruent;130.0;150.0;126.02367393611817;s_h;;;;;0;9;9;9;;;;;;;155.58056699996814;None;156.88890099996934;157.20552359998692;158.363769699994;158.3804647999932;164.1304492999916;None;9;0;0.6618440999882296;164.1304492999916;None;;;;;;;;5;;;;;;;165.6802636999637;None;None;None;[];165.6802636999637;None;None;;165.6802636999637;None;;;S12013;2023_Feb_10_1635;VideoMask;2021.1.2;121.12241718913961;
9.0;f;019_m_f_s_a.jpg;sad;7.0;sad_8.4ns.avi;sad;7.0;congruent;130.0;160.0;171.6633093155257;s_s;;;;;0;10;10;10;;;;;;;168.71354069997324;None;170.40512049995596;170.72178959997837;171.87172149994876;171.88849219999975;179.98827459994936;None;7;0;0.7720594999846071;179.98827459994936;None;;;;;;;;2;;;;;;;181.53809859999456;None;None;None;[];181.53809859999456;None;"['7', '7', '7']";"[0.4222938999882899, 0.7580369000206701, 1.198157100006938]";181.53809859999456;None;;;S12013;2023_Feb_10_1635;VideoMask;2021.1.2;121.12241718913961;
4.0;m;004_o_m_h_a.jpg;happy;9.0;happy_1.1ns.avi;happy;9.0;congruent;120.0;150.0;203.50057144619865;h_h;;;;;0;11;11;11;;;;;;;184.54642989998683;None;186.53776689997176;186.85443469998427;187.99627609999152;188.0128643999924;202.47085079998942;None;8;0;0.6015098000061698;202.47085079998942;None;;;;;;;;5;;;;;;;204.02064959995914;None;None;None;[];204.02064959995914;None;None;;204.02064959995914;None;;;S12013;2023_Feb_10_1635;VideoMask;2021.1.2;121.12241718913961;
7.0;m;027_o_m_h_a.jpg;happy;9.0;happy_20.1ns.avi;happy;9.0;congruent;120.0;150.0;152.91127178874285;h_h;;;;;0;12;12;12;;;;;;;207.04556189995492;None;208.55394069995964;208.87041469995165;209.9871112999972;210.00388519995613;213.02044369996293;None;9;0;0.6757738000014797;213.02044369996293;None;;;;;;;;6;;;;;;;214.5704280999489;None;None;None;[];214.5704280999489;None;['9'];[0.5259200999862514];214.5704280999489;None;;;S12013;2023_Feb_10_1635;VideoMask;2021.1.2;121.12241718913961;
0.0;f;040_y_f_s_a.jpg;sad;7.0;sad_94.3ns.avi;sad;7.0;congruent;130.0;160.0;155.27414203894395;s_s;;;;;0;13;13;13;;;;;;;217.57024969998747;None;219.0867845999892;219.40347139997175;220.53667089994997;220.55352119996678;223.16190869995626;None;8;0;0.6224153999937698;223.16190869995626;None;;;;;;;;3;;;;;;;224.7200501000043;None;None;None;[];224.7200501000043;None;"['7', '7']";"[0.41628389997640625, 0.7280188999720849]";224.7200501000043;None;;;S12013;2023_Feb_10_1635;VideoMask;2021.1.2;121.12241718913961;
0.0;f;030_o_f_s_a.jpg;sad;7.0;sad_68.1ns.avi;sad;7.0;congruent;130.0;160.0;158.9411396037211;s_s;;;;;0;14;14;14;;;;;;;227.72826949995942;None;229.28633879998233;229.60315749997972;230.7788132999558;230.80318649997935;238.17819299997063;None;7;0;0.6144169000326656;238.17819299997063;None;;;;;;;;3;;;;;;;239.73625319998246;None;None;None;[];239.73625319998246;None;"['7', '7']";"[0.4879894999903627, 0.7278596999822184]";239.73625319998246;None;;;S12013;2023_Feb_10_1635;VideoMask;2021.1.2;121.12241718913961;
0.0;f;030_o_f_h_a.jpg;happy;9.0;sad_127.1.wmv;sad;7.0;incongruent;120.0;160.0;180.59976631384873;h_s;;;;;0;15;15;15;;;;;;;242.73624319996452;None;244.4609829999972;244.77766959997825;245.9027038999484;245.91938799998024;247.91099819994997;None;7;0;1.2091866999980994;247.91099819994997;None;;;;;;;;4;;;;;;;249.46091969998088;None;None;None;[];249.46091969998088;None;['7'];[0.45130220003193244];249.46091969998088;None;;;S12013;2023_Feb_10_1635;VideoMask;2021.1.2;121.12241718913961;
8.0;m;008_y_m_s_a.jpg;sad;7.0;happy_133.3.wmv;happy;9.0;incongruent;130.0;150.0;152.577966552593;s_h;;;;;0;16;16;16;;;;;;;252.4692834999878;None;253.96895369997947;254.28554159996565;255.41076469997643;255.42725329997484;257.4190507999738;None;9;0;0.7972279999521561;257.4190507999738;None;;;;;;;;5;;;;;;;258.96897519996855;None;None;None;[];258.96897519996855;None;None;;258.96897519996855;None;;;S12013;2023_Feb_10_1635;VideoMask;2021.1.2;121.12241718913961;
3.0;m;033_o_m_h_a.jpg;happy;9.0;sad_128.1.wmv;sad;7.0;incongruent;120.0;160.0;171.0492454518585;h_s;;;;;0;17;17;17;;;;;;;262.00214419997064;None;263.65200859995093;263.9687760999659;265.10190209996654;265.11875319998944;267.1021031999844;None;8;0;0.8583942000404932;267.1021031999844;None;;;;;;;;4;;;;;;;268.65199329995085;None;None;None;[];268.65199329995085;None;"['7', '7', '7']";"[0.4442735000047833, 1.236325899953954, 2.108249499986414]";268.65199329995085;None;;;S12013;2023_Feb_10_1635;VideoMask;2021.1.2;121.12241718913961;
1.0;f;021_o_f_h_a.jpg;happy;9.0;sad_116.1.wmv;sad;7.0;incongruent;120.0;160.0;184.06847610053055;h_s;;;;;0;18;18;18;;;;;;;271.6692560999654;None;273.4433577999589;273.76006459997734;274.8934991999995;274.9100884999498;276.89342089998536;None;7;0;1.0908303000032902;276.89342089998536;None;;;;;;;;4;;;;;;;278.443346199987;None;None;None;[];278.443346199987;None;['7'];[0.868592599988915];278.443346199987;None;;;S12013;2023_Feb_10_1635;VideoMask;2021.1.2;121.12241718913961;
4.0;m;004_o_m_s_a.jpg;sad;7.0;happy_28.1ns.avi;happy;9.0;incongruent;130.0;150.0;157.40741103039684;s_h;;;;;0;19;19;19;;;;;;;281.4515563999885;None;283.00969049998093;283.32642679999117;284.4678842999856;284.48481989995344;288.8513643000042;None;9;0;0.5166468000388704;288.8513643000042;None;;;;;;;;7;;;;;;;290.4012229999644;None;None;None;[];290.4012229999644;None;"['9', '9', '9']";"[0.3588441999745555, 0.6868429000023752, 1.4470666999695823]";290.4012229999644;None;;;S12013;2023_Feb_10_1635;VideoMask;2021.1.2;121.12241718913961;
8.0;f;028_y_f_s_a.jpg;sad;7.0;happy_122.3.wmv;happy;9.0;incongruent;130.0;150.0;171.8670540936116;s_h;;;;;0;20;20;20;;;;;;;293.4011545999674;None;295.05097539996495;295.36771079996834;296.5011424999684;296.51775989995804;298.50100469996687;None;9;0;0.7312055999645963;298.50100469996687;None;;;;;;;;6;;;;;;;300.05096219998086;None;None;None;[];300.05096219998086;None;['9'];[0.453485100006219];300.05096219998086;None;;;S12013;2023_Feb_10_1635;VideoMask;2021.1.2;121.12241718913961;
8.0;m;008_y_m_s_a.jpg;sad;7.0;sad_6.5ns.avi;sad;7.0;congruent;130.0;160.0;170.39333839271438;s_s;;;;;0;21;21;21;;;;;;;303.0592601999524;None;304.7089315999765;305.02564949996304;306.17582249996485;306.1923583999742;311.1590226999833;None;7;0;0.4573435000493191;311.1590226999833;None;;;;;;;;2;;;;;;;312.7089203999494;None;None;None;[];312.7089203999494;None;"['7', '7', '7']";"[0.2992992000072263, 0.5471615999704227, 0.771229800011497]";312.7089203999494;None;;;S12013;2023_Feb_10_1635;VideoMask;2021.1.2;121.12241718913961;
8.0;f;028_y_f_h_a.jpg;happy;9.0;happy_23.1ns.avi;happy;9.0;congruent;120.0;150.0;225.70986890587952;h_h;;;;;0;22;22;22;;;;;;;315.71715039998526;None;317.82545379997464;318.14214329997776;319.3252647999907;319.3420072000008;323.8502796999528;None;9;0;0.38996010000118986;323.8502796999528;None;;;;;;;;8;;;;;;;325.400149299996;None;None;None;[];325.400149299996;None;"['9', '9', '9', '9', '9']";"[0.33623929996974766, 0.6238795999670401, 0.9199227999779396, 1.2563526000012644, 1.640077299962286]";325.400149299996;None;;;S12013;2023_Feb_10_1635;VideoMask;2021.1.2;121.12241718913961;
8.0;m;008_y_m_h_a.jpg;happy;9.0;sad_111.1.wmv;sad;7.0;incongruent;120.0;160.0;152.63076835312847;h_s;;;;;0;23;23;23;;;;;;;328.40849219996016;None;329.9082079999498;330.22494299995014;331.3583180999849;331.375041399966;333.35822529997677;None;7;0;0.5779504000092857;333.35822529997677;None;;;;;;;;4;;;;;;;334.9665277999593;None;None;None;[];334.9665277999593;None;"['7', '7']";"[0.38545659999363124, 0.74551799998153]";334.9665277999593;None;;;S12013;2023_Feb_10_1635;VideoMask;2021.1.2;121.12241718913961;
0.0;f;040_y_f_s_a.jpg;sad;7.0;sad_67.2ns.avi;sad;7.0;congruent;130.0;160.0;220.9892697323079;s_s;;;;;0;24;24;24;;;;;;;337.9665350999567;None;340.0663921999512;340.3828758999589;341.5663539999514;341.58296479994897;350.7411936999997;None;7;0;0.5308764000074007;350.7411936999997;None;;;;;;;;3;;;;;;;352.2908685999573;None;None;None;[];352.2908685999573;None;"['7', '7']";"[0.38107949995901436, 0.709219399956055]";352.2908685999573;None;;;S12013;2023_Feb_10_1635;VideoMask;2021.1.2;121.12241718913961;
8.0;m;008_y_m_s_a.jpg;sad;7.0;happy_29.1ns.avi;happy;9.0;incongruent;130.0;150.0;120.0316142834122;s_h;;;;;0;25;25;25;;;;;;;355.29923909995705;None;356.53236879996257;356.8490884999628;358.01620909996564;358.04078749998007;360.6742058999953;None;9;0;0.533938999986276;360.6742058999953;None;;;;;;;;6;;;;;;;362.2240189999575;None;None;None;[];362.2240189999575;None;['9'];[0.43237669998779893];362.2240189999575;None;;;S12013;2023_Feb_10_1635;VideoMask;2021.1.2;121.12241718913961;
6.0;m;016_y_m_s_a.jpg;sad;7.0;sad_8.3ns.avi;sad;7.0;congruent;130.0;160.0;152.85371098242734;s_s;;;;;0;26;26;26;;;;;;;365.22402659995714;None;366.7655199999572;367.0820990999928;368.26526419998845;368.28206359996693;375.97362319997046;None;7;0;0.6425473999697715;375.97362319997046;None;;;;;;;;2;;;;;;;377.52344849996734;None;None;None;[];377.52344849996734;None;"['7', '7', '7']";"[0.4287748000351712, 1.1007330000284128, 2.7328048000345007]";377.52344849996734;None;;;S12013;2023_Feb_10_1635;VideoMask;2021.1.2;121.12241718913961;
6.0;m;016_y_m_h_a.jpg;happy;9.0;sad_114.1.wmv;sad;7.0;incongruent;120.0;160.0;136.20550699298644;h_s;;;;;0;27;27;27;;;;;;;380.52350519999163;None;381.88987819995964;382.20672429999104;383.33994969999185;383.3566661999794;385.33985319995554;None;7;0;0.4044360999832861;385.33985319995554;None;;;;;;;;2;;;;;;;386.88966549996985;None;None;None;[];386.88966549996985;None;"['7', '7', '7']";"[0.35830750002060086, 0.614459500007797, 0.9104586000321433]";386.88966549996985;None;;;S12013;2023_Feb_10_1635;VideoMask;2021.1.2;121.12241718913961;
7.0;m;027_o_m_s_a.jpg;sad;7.0;happy_117.3.wmv;happy;9.0;incongruent;130.0;150.0;215.61964028550614;s_h;;;;;0;28;28;28;;;;;;;389.88976589997765;None;391.914558199991;392.2312456999789;393.35637779999524;393.37296899996;395.3646337999962;None;9;0;1.3316077000345103;395.3646337999962;None;;;;;;;;5;;;;;;;396.91453189996537;None;None;None;[];396.91453189996537;None;"['9', '7']";"[0.4773317000363022, 2.0778532000258565]";396.91453189996537;None;;;S12013;2023_Feb_10_1635;VideoMask;2021.1.2;121.12241718913961;
6.0;m;016_y_m_h_a.jpg;happy;9.0;happy_9.2ns.avi;happy;9.0;congruent;120.0;150.0;130.52042428082717;h_h;;;;;0;29;29;29;;;;;;;399.92284739995375;None;401.2642937999917;401.58099829999264;402.7310658999486;402.7477001999505;408.63921449996997;None;9;0;0.441125400015153;408.63921449996997;None;;;;;;;;6;;;;;;;410.18910289998166;None;None;None;[];410.18910289998166;None;['9'];[0.44311170000582933];410.18910289998166;None;;;S12013;2023_Feb_10_1635;VideoMask;2021.1.2;121.12241718913961;
0.0;f;040_y_f_s_a.jpg;sad;7.0;happy_127.3.wmv;happy;9.0;incongruent;130.0;150.0;131.7195455720239;s_h;;;;;0;30;30;30;;;;;;;413.18920019996585;None;414.50545509997755;414.8224141999963;415.9556633000029;415.9723809999996;418.02219029999105;None;9;0;0.8659887000103481;418.02219029999105;None;;;;;;;;6;;;;;;;419.5721402000054;None;None;None;[];419.5721402000054;None;['9'];[0.43607100000372157];419.5721402000054;None;;;S12013;2023_Feb_10_1635;VideoMask;2021.1.2;121.12241718913961;
0.0;f;030_o_f_s_a.jpg;sad;7.0;happy_125.3.wmv;happy;9.0;incongruent;130.0;150.0;220.51454909128134;s_h;;;;;0;31;31;31;;;;;;;422.58031109999865;None;424.6551790999947;424.9718523999909;426.1132897999487;426.13012240000535;428.1053533999948;None;9;0;0.998946999956388;428.1053533999948;None;;;;;;;;5;;;;;;;429.6635274;None;None;None;[];429.6635274;None;None;;429.6635274;None;;;S12013;2023_Feb_10_1635;VideoMask;2021.1.2;121.12241718913961;
0.0;f;030_o_f_s_a.jpg;sad;7.0;sad_64.3ns.avi;sad;7.0;congruent;130.0;160.0;165.78667874766072;s_s;;;;;0;32;32;32;;;;;;;432.69678060000297;None;434.304810600006;434.6215914999484;435.78003749996424;435.7966086999513;440.7548578999704;None;7;0;0.5893515999778174;440.7548578999704;None;;;;;;;;1;;;;;;;442.2964229999925;None;None;None;[];442.2964229999925;None;"['7', '7', '7', '7']";"[0.3919270999613218, 0.6316804999951273, 1.4158375000115484, 1.7682465999969281]";442.2964229999925;None;;;S12013;2023_Feb_10_1635;VideoMask;2021.1.2;121.12241718913961;
3.0;m;013_y_m_s_a.jpg;sad;7.0;sad_7.7ns.avi;sad;7.0;congruent;130.0;160.0;196.24182255763262;s_s;;;;;0;33;33;33;;;;;;;445.29630309995264;None;447.1712320999941;447.48785579996184;448.62931259995094;448.6460111999768;454.62940539995907;None;7;0;0.6508883999777026;454.62940539995907;None;;;;;;;;2;;;;;;;456.1793013999704;None;None;None;[];456.1793013999704;None;"['7', '7', '7']";"[0.364870699995663, 0.6367567999986932, 0.8928550000418909]";456.1793013999704;None;;;S12013;2023_Feb_10_1635;VideoMask;2021.1.2;121.12241718913961;
3.0;m;013_y_m_h_a.jpg;happy;9.0;happy_9.1ns.avi;happy;9.0;congruent;120.0;150.0;165.1890303600433;h_h;;;;;0;34;34;34;;;;;;;459.17930809996324;None;460.8042556999717;461.1207100999891;462.2637912000064;462.30455409997376;465.47916389995953;None;9;0;0.6090796000207774;465.47916389995953;None;;;;;;;;7;;;;;;;467.028948399995;None;None;None;[];467.028948399995;None;"['9', '9']";"[0.4112033999990672, 0.7230401000124402]";467.028948399995;None;;;S12013;2023_Feb_10_1635;VideoMask;2021.1.2;121.12241718913961;
4.0;m;004_o_m_h_a.jpg;happy;9.0;sad_95.1ns.avi;sad;7.0;incongruent;120.0;160.0;152.68270002069931;h_s;;;;;0;35;35;35;;;;;;;470.03739049995784;None;471.5619638999924;471.87875269999495;473.0621343999519;473.0788447999512;481.80350909999106;None;7;0;0.46078009996563196;481.80350909999106;None;;;;;;;;1;;;;;;;483.36176129995147;None;None;None;[];483.36176129995147;None;"['7', '7', '7', '7']";"[0.34252960002049804, 0.5664160000160336, 0.7665718999924138, 0.9985233999905176]";483.36176129995147;None;;;S12013;2023_Feb_10_1635;VideoMask;2021.1.2;121.12241718913961;
3.0;m;013_y_m_h_a.jpg;happy;9.0;sad_113.2.wmv;sad;7.0;incongruent;120.0;160.0;217.4973891947951;h_s;;;;;0;36;36;36;;;;;;;486.3701286999858;None;488.4364634999656;488.7530815999489;489.8781788999913;489.8948095999658;491.8865262999898;None;7;0;1.2097281999886036;491.8865262999898;None;;;;;;;;3;;;;;;;493.4363607999985;None;None;None;[];493.4363607999985;None;"['7', '7']";"[0.379969900008291, 0.7240150999859907]";493.4363607999985;None;;;S12013;2023_Feb_10_1635;VideoMask;2021.1.2;121.12241718913961;
4.0;m;004_o_m_h_a.jpg;happy;9.0;happy_25.1ns.avi;happy;9.0;congruent;120.0;150.0;216.63044503818386;h_h;;;;;0;37;37;37;;;;;;;496.44471289997455;None;498.469455799961;498.7862177999923;499.9527593999519;499.96987889998127;503.6112152999849;None;9;0;1.100917899981141;503.6112152999849;None;;;;;;;;6;;;;;;;505.1694335999782;None;None;None;[];505.1694335999782;None;['9'];[0.3429708000039682];505.1694335999782;None;;;S12013;2023_Feb_10_1635;VideoMask;2021.1.2;121.12241718913961;
4.0;m;004_o_m_s_a.jpg;sad;7.0;happy_131.2.wmv;happy;9.0;incongruent;130.0;150.0;181.38407540847405;s_h;;;;;0;38;38;38;;;;;;;508.16947159997653;None;509.9190863999538;510.23584829998435;511.37727299996186;511.3942152999807;513.3691260999767;None;9;0;0.9990885999868624;513.3691260999767;None;;;;;;;;5;;;;;;;514.919092600001;None;None;None;[];514.919092600001;None;None;;514.919092600001;None;;;S12013;2023_Feb_10_1635;VideoMask;2021.1.2;121.12241718913961;
0.0;f;040_y_f_h_a.jpg;happy;9.0;happy_24.3ns.avi;happy;9.0;congruent;120.0;150.0;213.25460698950434;h_h;;;;;0;39;39;39;;;;;;;517.9439133999986;None;519.9354849999654;520.2521698999917;521.4522696999484;521.4689337000018;523.3104749000049;None;9;0;0.729736800014507;523.3104749000049;None;;;;;;;;5;;;;;;;524.8604315999546;None;None;None;[];524.8604315999546;None;None;;524.8604315999546;None;;;S12013;2023_Feb_10_1635;VideoMask;2021.1.2;121.12241718913961;
2.0;f;012_o_f_s_a.jpg;sad;7.0;happy_139.1.wmv;happy;9.0;incongruent;130.0;150.0;162.31500468041804;s_h;;;;;0;40;40;40;;;;;;;527.8769229999743;None;529.4518099999987;529.7684689000016;530.9018944999552;530.9183525999542;532.9017623999971;None;9;0;1.042518200003542;532.9017623999971;None;;;;;;;;5;;;;;;;534.4517809999525;None;None;None;[];534.4517809999525;None;None;;534.4517809999525;None;;;S12013;2023_Feb_10_1635;VideoMask;2021.1.2;121.12241718913961;
0.0;f;030_o_f_h_a.jpg;happy;9.0;happy_24.1ns.avi;happy;9.0;congruent;120.0;150.0;168.36256624020774;h_h;;;;;0;41;41;41;;;;;;;537.4682704999577;None;539.1098039999488;539.4265263999696;540.5599488999578;540.5766250999877;543.8848804999725;None;9;0;0.37940199999138713;543.8848804999725;None;;;;;;;;7;;;;;;;545.4348195999628;None;None;None;[];545.4348195999628;None;"['9', '9']";"[0.3655219000065699, 0.7654044000082649]";545.4348195999628;None;;;S12013;2023_Feb_10_1635;VideoMask;2021.1.2;121.12241718913961;
2.0;f;012_o_f_h_a.jpg;happy;9.0;sad_113.1.wmv;sad;7.0;incongruent;120.0;160.0;177.44551734737394;h_s;;;;;0;42;42;42;;;;;;;548.4347363999696;None;550.1261471000034;550.4427800999838;551.5759596999851;551.59294209996;553.5762370000011;None;7;0;0.624015600013081;553.5762370000011;None;;;;;;;;5;;;;;;;555.1261210999801;None;None;None;[];555.1261210999801;None;"['7', '9']";"[0.5222886000410654, 1.7942336000269279]";555.1261210999801;None;;;S12013;2023_Feb_10_1635;VideoMask;2021.1.2;121.12241718913961;
3.0;m;033_o_m_s_a.jpg;sad;7.0;sad_64.5ns.avi;sad;7.0;congruent;130.0;160.0;130.55717223801247;s_s;;;;;0;43;43;43;;;;;;;558.1261059999815;None;559.4677274999558;559.7842667999794;560.9590980999637;560.9757704999647;567.5009673999739;None;7;0;0.531215799972415;567.5009673999739;None;;;;;;;;2;;;;;;;569.0506331999786;None;None;None;[];569.0506331999786;None;"['7', '7', '7']";"[0.35753330000443384, 0.597641600004863, 0.8216530000208877]";569.0506331999786;None;;;S12013;2023_Feb_10_1635;VideoMask;2021.1.2;121.12241718913961;
7.0;m;027_o_m_h_a.jpg;happy;9.0;sad_117.1.wmv;sad;7.0;incongruent;120.0;160.0;181.28665202824095;h_s;;;;;0;44;44;44;;;;;;;572.058971099963;None;573.8003737999825;574.1172840999789;575.2838162999833;575.3005172999692;577.2504401999759;None;7;0;1.2619196000159718;577.2504401999759;None;;;;;;;;4;;;;;;;578.8087234999985;None;None;None;[];578.8087234999985;None;['7'];[0.38344669999787584];578.8087234999985;None;;;S12013;2023_Feb_10_1635;VideoMask;2021.1.2;121.12241718913961;
3.0;m;033_o_m_s_a.jpg;sad;7.0;happy_126.3.wmv;happy;9.0;incongruent;130.0;150.0;198.85252030535366;s_h;;;;;0;45;45;45;;;;;;;581.816938599979;None;583.7000761999516;584.0169310999918;585.17489689996;585.1916808999958;587.1501566999941;None;9;0;1.3540561000118032;587.1501566999941;None;;;;;;;;6;;;;;;;588.7083902999875;None;None;None;[];588.7083902999875;None;['9'];[0.8280372000299394];588.7083902999875;None;;;S12013;2023_Feb_10_1635;VideoMask;2021.1.2;121.12241718913961;
3.0;m;033_o_m_h_a.jpg;happy;9.0;sad_136.1.wmv;sad;7.0;incongruent;120.0;160.0;176.97002883463455;h_s;;;;;0;46;46;46;;;;;;;591.7083706999547;None;593.4080835999921;593.7249472999829;594.8499046999495;594.8664304999984;596.8581179999746;None;7;0;0.9823089999845251;596.8581179999746;None;;;;;;;;3;;;;;;;598.4080793999601;None;None;None;[];598.4080793999601;None;"['7', '7']";"[0.5926035000011325, 1.4241789999650791]";598.4080793999601;None;;;S12013;2023_Feb_10_1635;VideoMask;2021.1.2;121.12241718913961;
9.0;f;019_m_f_h_a.jpg;happy;9.0;happy_10.1ns.avi;happy;9.0;congruent;120.0;150.0;157.2463435658512;h_h;;;;;0;47;47;47;;;;;;;601.4163043999579;None;602.9746631999733;603.2911631999887;604.4828060999862;604.4995289999642;611.8661145999795;None;9;0;0.43805349996546283;611.8661145999795;None;;;;;;;;8;;;;;;;613.4159396999748;None;None;None;[];613.4159396999748;None;"['9', '9', '9', '9', '9']";"[0.36841890000505373, 0.5920329999644309, 0.8081473999773152, 1.1284379999851808, 1.6166482999688014]";613.4159396999748;None;;;S12013;2023_Feb_10_1635;VideoMask;2021.1.2;121.12241718913961;
2.0;f;012_o_f_h_a.jpg;happy;9.0;happy_2.2ns.avi;happy;9.0;congruent;120.0;150.0;206.34800317295262;h_h;;;;;0;48;48;48;;;;;;;616.4159881999949;None;618.3988947999896;618.7156456999946;619.882909899985;619.8989734999486;632.0573882999597;None;8;0;1.414774100005161;632.0573882999597;None;;;;;;;;5;;;;;;;634.2235986999585;None;None;None;[];634.2235986999585;None;None;;634.2235986999585;None;;;S12013;2023_Feb_10_1635;VideoMask;2021.1.2;121.12241718913961;
3.0;m;033_o_m_h_a.jpg;happy;9.0;happy_24.2ns.avi;happy;9.0;congruent;120.0;150.0;167.9423847659953;h_h;;;;;0;49;49;49;;;;;;;637.2399611999863;None;638.8733285999624;639.1900873999693;640.3234401999507;640.3400307999691;644.0483343999949;None;9;0;0.4479598000179976;644.0483343999949;None;;;;;;;;6;;;;;;;645.5982327999664;None;None;None;[];645.5982327999664;None;"['9', '9']";"[0.37822509999386966, 0.9301718999631703]";645.5982327999664;None;;;S12013;2023_Feb_10_1635;VideoMask;2021.1.2;121.12241718913961;
1.0;f;021_o_f_s_a.jpg;sad;7.0;happy_61.2ns.avi;happy;9.0;incongruent;130.0;150.0;210.94664004826666;s_h;;;;;0;50;50;50;;;;;;;648.5983000999549;None;650.5979851000011;650.9146640999825;652.0564257999649;652.072932399984;656.5729256999912;None;9;0;0.61927890003426;656.5729256999912;None;;;;;;;;6;;;;;;;658.1228471999639;None;None;None;[];658.1228471999639;None;['9'];[0.40565519995288923];658.1228471999639;None;;;S12013;2023_Feb_10_1635;VideoMask;2021.1.2;121.12241718913961;
4.0;m;004_o_m_s_a.jpg;sad;7.0;sad_2.4ns.avi;sad;7.0;congruent;130.0;160.0;153.02079367163634;s_s;;;;;0;51;51;51;;;;;;;661.1228430999909;None;662.6391429999494;662.9559751999914;664.0893056999776;664.1059340999927;672.0558605999686;None;7;0;0.8162034999695607;672.0558605999686;None;;;;;;;;4;;;;;;;673.6140389999491;None;None;None;[];673.6140389999491;None;"['7', '7']";"[0.3944599000387825, 1.026536900026258]";673.6140389999491;None;;;S12013;2023_Feb_10_1635;VideoMask;2021.1.2;121.12241718913961;
8.0;m;008_y_m_h_a.jpg;happy;9.0;happy_1.2ns.avi;happy;9.0;congruent;120.0;150.0;210.98946429383824;h_h;;;;;0;52;52;52;;;;;;;676.6140051999828;None;678.6638987999759;678.9804113999708;680.1054950999678;680.1221015999909;692.90520379995;None;9;0;0.6870728000067174;692.90520379995;None;;;;;;;;6;;;;;;;694.4550067999517;None;None;None;[];694.4550067999517;None;['9'];[0.4173904999624938];694.4550067999517;None;;;S12013;2023_Feb_10_1635;VideoMask;2021.1.2;121.12241718913961;
2.0;f;012_o_f_s_a.jpg;sad;7.0;happy_52.2ns.avi;happy;9.0;incongruent;130.0;150.0;172.57202848318138;s_h;;;;;0;53;53;53;;;;;;;697.4549292000011;None;699.1213950999663;699.4381174999871;700.5881541999988;700.6048398999847;704.1297075999901;None;9;0;0.7266143000451848;704.1297075999901;None;;;;;;;;6;;;;;;;705.7463133999845;None;None;None;[];705.7463133999845;None;['9'];[2.6460599999991246];705.7463133999845;None;;;S12013;2023_Feb_10_1635;VideoMask;2021.1.2;121.12241718913961;
9.0;f;019_m_f_s_a.jpg;sad;7.0;happy_61.1ns.avi;happy;9.0;incongruent;130.0;150.0;181.3003220572762;s_h;;;;;0;54;54;54;;;;;;;708.7545647999505;None;710.5462651999551;710.8627109999652;712.0378093000036;712.0544290999533;719.3875463999575;None;9;0;0.39675210003042594;719.3875463999575;None;;;;;;;;7;;;;;;;721.5041692999657;None;None;None;[];721.5041692999657;None;"['9', '9']";"[0.36795600003097206, 0.6879469000268728]";721.5041692999657;None;;;S12013;2023_Feb_10_1635;VideoMask;2021.1.2;121.12241718913961;
0.0;f;030_o_f_h_a.jpg;happy;9.0;sad_133.1.wmv;sad;7.0;incongruent;120.0;160.0;198.86251500867985;h_s;;;;;0;55;55;55;;;;;;;724.5041601999546;None;726.3705068999552;726.6871941999998;727.8123926999979;727.8290048000054;729.8205354999518;None;7;0;0.6196702999877743;729.8205354999518;None;;;;;;;;3;;;;;;;731.3703952999786;None;None;None;[];731.3703952999786;None;"['7', '7']";"[0.3819676000275649, 0.7101967000053264]";731.3703952999786;None;;;S12013;2023_Feb_10_1635;VideoMask;2021.1.2;121.12241718913961;
0.0;f;040_y_f_h_a.jpg;happy;9.0;sad_128.2.wmv;sad;7.0;incongruent;120.0;160.0;206.10005857915363;h_s;;;;;0;56;56;56;;;;;;;734.3788324999623;None;736.320187699981;736.637023999996;737.77009429998;737.7869403999648;739.7701975999516;None;7;0;0.6620801000390202;739.7701975999516;None;;;;;;;;3;;;;;;;741.3202521000057;None;None;None;[];741.3202521000057;None;"['7', '7']";"[0.39198859996395186, 0.6718034999794327]";741.3202521000057;None;;;S12013;2023_Feb_10_1635;VideoMask;2021.1.2;121.12241718913961;
1.0;f;021_o_f_s_a.jpg;sad;7.0;sad_9.5ns.avi;sad;7.0;congruent;130.0;160.0;206.16642757875042;s_s;;;;;0;57;57;57;;;;;;;744.3200406999676;None;746.2614775999682;746.5782470999984;747.7533485000022;747.7699061000021;753.4365485999733;None;7;0;0.43562619999283925;753.4365485999733;None;;;;;;;;1;;;;;;;754.9863868999528;None;None;None;[];754.9863868999528;None;"['7', '7', '7', '7', '7']";"[0.2618930999888107, 0.5018676999607123, 0.717648999998346, 0.9498332999646664, 1.3099655999685638]";754.9863868999528;None;;;S12013;2023_Feb_10_1635;VideoMask;2021.1.2;121.12241718913961;
1.0;f;021_o_f_h_a.jpg;happy;9.0;happy_12.1ns.avi;happy;9.0;congruent;120.0;150.0;132.59080005900228;h_h;;;;;0;58;58;58;;;;;;;757.9947797000059;None;759.3613297999837;759.6779558999697;760.8025733999675;760.8195481000002;768.427733199962;None;8;0;0.5327061000280082;768.427733199962;None;;;;;;;;7;;;;;;;769.985904000001;None;None;None;[];769.985904000001;None;"['9', '9']";"[0.3506014000158757, 0.6622631999780424]";769.985904000001;None;;;S12013;2023_Feb_10_1635;VideoMask;2021.1.2;121.12241718913961;
3.0;m;013_y_m_s_a.jpg;sad;7.0;happy_56.2ns.avi;happy;9.0;incongruent;130.0;150.0;163.39234110935848;s_h;;;;;0;59;59;59;;;;;;;772.9858974999515;None;774.5857789999573;774.9023730999907;776.0524809999624;776.0688959999825;781.0607022999902;None;9;0;1.307622199994512;781.0607022999902;None;;;;;;;;5;;;;;;;782.610491600004;None;None;None;[];782.610491600004;None;None;;782.610491600004;None;;;S12013;2023_Feb_10_1635;VideoMask;2021.1.2;121.12241718913961;
;;;;;;;;;;;;;;;;;;;;;;;;;;;;;;;;;;;;;;;;;;;;;;;;;;;;;;;;;;;;;;;;;785.6354331999901;None;;;;;;
