primePerson;primeGender;prime;primeEmotion;corrAnsPrime;target;targetEmotion;corrAnsTar;Cond;ID_Primer;ID_Target;JitterTime;Condition;example.thisRepN;example.thisTrialN;example.thisN;example.thisIndex;study.thisRepN;study.thisTrialN;study.thisN;study.thisIndex;MR_trigger_time;MR_trigger_number;text_intro.started;text_intro.stopped;text_probe.started;text_probe.stopped;polygon_ISI.started;polygon_ISI.stopped;polygon.started;polygon.stopped;primerImage.started;primerImage.stopped;response.started;response.stopped;key_resp.keys;key_resp.corr;key_resp.started;key_resp.stopped;slider_Text.started;slider_Text.stopped;slider_ex.response;slider_ex.rt;slider_ex.history;slider_ex.started;slider_ex.stopped;Rating;slider_resp_response.keys;slider_resp_response.rt;slider_resp_response.started;slider_resp_response.stopped;key_resp.rt;text_start.started;text_start.stopped;text_slider.started;text_slider.stopped;slider_stud.response;slider_stud.rt;slider_stud.history;slider_stud.started;slider_stud.stopped;slider_resp_study.keys;slider_resp_study.rt;slider_resp_study.started;slider_resp_study.stopped;text_ende.started;text_ende.stopped;participant;date;expName;psychopyVersion;frameRate;
1111;m;1111_m_m_h_a.jpg;happy;9;example_30.4ns.avi;neutral;7;incongruent;120.0;170.0;189.5874364012288;;0;0;0;0;;;;;31.803867000038736;1;31.881353400065564;33.881575700012036;33.881575700012036;None;35.91472270002123;None;38.13125590002164;38.457061400054954;39.606290800031275;39.62291420006659;43.93130420008674;None;None;0;43.93130420008674;None;45.49762020003982;None;None;None;[];45.49762020003982;None;6;['9'];[0.12981309997849166];45.49762020003982;None;;;;;;;;;;;;;;;;;S11816;2022_Oct_24_1504;VideoMask;2021.1.2;120.13036551434217;
1113;f;1113_y_f_s_a.jpg;sad;7;example_30.3ns.avi;neutral;7;incongruent;130.0;170.0;229.02432995836998;;0;1;1;1;;;;;;;;;;;48.48946640000213;None;50.614243900054134;50.93099780008197;52.114250599988736;52.13088660000358;54.06414949998725;None;8;0;54.06414949998725;None;55.60581350000575;None;None;None;[];55.60581350000575;None;5;None;;55.60581350000575;None;1.2272639999864623;;;;;;;;;;;;;;;;S11816;2022_Oct_24_1504;VideoMask;2021.1.2;120.13036551434217;
9.0;f;019_m_f_h_a.jpg;happy;9.0;sad_115.1.wmv;sad;7.0;incongruent;120.0;160.0;128.09063432376465;h_s;;;;;0;0;0;0;;;;;;;59.63901340006851;None;60.922199700027704;61.238971700076945;62.37213470006827;62.388724800082855;64.3722337000072;None;7;0;64.3722337000072;None;;;;;;;;4;;;;;0.655256099998951;58.63910070003476;None;65.9305077000754;None;None;None;[];65.9305077000754;None;['7'];[1.0249794999836013];65.9305077000754;None;;;S11816;2022_Oct_24_1504;VideoMask;2021.1.2;120.13036551434217;
3.0;m;033_o_m_s_a.jpg;sad;7.0;sad_94.2ns.avi;sad;7.0;congruent;130.0;160.0;182.29120173647655;s_s;;;;;0;1;1;1;;;;;;;68.93047790008131;None;70.66357860004064;70.98026470001787;72.18033480003942;72.19698550004978;74.80534170009196;None;7;0;74.80534170009196;None;;;;;;;;5;;;;;0.5979909999296069;;;76.35517680004705;None;None;None;[];76.35517680004705;None;None;;76.35517680004705;None;;;S11816;2022_Oct_24_1504;VideoMask;2021.1.2;120.13036551434217;
8.0;m;008_y_m_h_a.jpg;happy;9.0;happy_26.1ns.avi;happy;9.0;congruent;120.0;150.0;155.9437854594882;h_h;;;;;0;2;2;2;;;;;;;79.38843170006294;None;80.8882520000916;81.20494070008863;82.33833040005993;82.3549692000961;84.32999860006385;None;9;0;84.32999860006385;None;;;;;;;;5;;;;;0.5614283999893814;;;85.88818390003871;None;None;None;[];85.88818390003871;None;None;;85.88818390003871;None;;;S11816;2022_Oct_24_1504;VideoMask;2021.1.2;120.13036551434217;
0.0;f;040_y_f_h_a.jpg;happy;9.0;sad_138.1.wmv;sad;7.0;incongruent;120.0;160.0;133.99071306426532;h_s;;;;;0;3;3;3;;;;;;;88.90469130000565;None;90.23794370004907;90.55469690007158;91.68801690009423;91.70471830002498;93.68789270007983;None;None;0;93.68789270007983;None;;;;;;;;4;;;;;;;;95.23795149999205;None;None;None;[];95.23795149999205;None;['7'];[0.25362390000373125];95.23795149999205;None;;;S11816;2022_Oct_24_1504;VideoMask;2021.1.2;120.13036551434217;
8.0;f;028_y_f_s_a.jpg;sad;7.0;sad_64.2ns.avi;sad;7.0;congruent;130.0;160.0;229.88540597086478;s_s;;;;;0;4;4;4;;;;;;;98.23799659998622;None;100.44591040001251;100.7626546000829;101.91271619999316;101.92926110001281;112.8958262000233;None;7;0;112.8958262000233;None;;;;;;;;5;;;;;1.2436666000867262;;;114.43730350001715;None;None;None;[];114.43730350001715;None;None;;114.43730350001715;None;;;S11816;2022_Oct_24_1504;VideoMask;2021.1.2;120.13036551434217;
7.0;m;027_o_m_s_a.jpg;sad;7.0;sad_10.4ns.avi;sad;7.0;congruent;130.0;160.0;185.20129417468752;s_s;;;;;0;5;5;5;;;;;;;117.45370569999795;None;119.22882220009342;119.54544290003832;120.72046580002643;120.73768630006816;123.86186930001713;None;7;0;123.86186930001713;None;;;;;;;;4;;;;;0.6216113999253139;;;125.41197170002852;None;None;None;[];125.41197170002852;None;['7'];[1.175400200067088];125.41197170002852;None;;;S11816;2022_Oct_24_1504;VideoMask;2021.1.2;120.13036551434217;
2.0;f;012_o_f_s_a.jpg;sad;7.0;sad_7.5ns.avi;sad;7.0;congruent;130.0;160.0;220.27842655424388;s_s;;;;;0;6;6;6;;;;;;;128.42028020008001;None;130.45338110008743;130.7700552000897;131.92076160002034;131.95342290005647;134.6952493999852;None;7;0;134.6952493999852;None;;;;;;;;3;;;;;0.6042513999855146;;;136.25328850001097;None;None;None;[];136.25328850001097;None;"['7', '7']";"[0.32613039994612336, 0.5580287999473512]";136.25328850001097;None;;;S11816;2022_Oct_24_1504;VideoMask;2021.1.2;120.13036551434217;
2.0;f;012_o_f_h_a.jpg;happy;9.0;happy_27.1ns.avi;happy;9.0;congruent;120.0;150.0;146.44967055810616;h_h;;;;;0;7;7;7;;;;;;;139.26167869998608;None;140.69470340001862;141.01137690001633;142.16113310004584;142.1781155000208;144.63699500006624;None;9;0;144.63699500006624;None;;;;;;;;6;;;;;0.3746824999107048;;;146.36129250004888;None;None;None;[];146.36129250004888;None;['9'];[1.8344940000679344];146.36129250004888;None;;;S11816;2022_Oct_24_1504;VideoMask;2021.1.2;120.13036551434217;
8.0;f;028_y_f_h_a.jpg;happy;9.0;sad_119.1.wmv;sad;7.0;incongruent;120.0;160.0;148.71526953572538;h_s;;;;;0;8;8;8;;;;;;;149.3696089000441;None;150.81935950007755;151.13616240001284;152.26948890008498;152.28611420001835;154.33605090004858;None;7;0;154.33605090004858;None;;;;;;;;5;;;;;0.5554024000884965;;;155.87767770001665;None;None;None;[];155.87767770001665;None;None;;155.87767770001665;None;;;S11816;2022_Oct_24_1504;VideoMask;2021.1.2;120.13036551434217;
6.0;m;016_y_m_s_a.jpg;sad;7.0;happy_60.4ns.avi;happy;9.0;incongruent;130.0;150.0;126.02367393611817;s_h;;;;;0;9;9;9;;;;;;;158.89409930002876;None;160.21089680003934;160.52746090001892;161.70241160003934;161.71913510002196;167.45229980000295;None;9;0;167.45229980000295;None;;;;;;;;5;;;;;0.4471481000073254;;;168.9939281999832;None;None;None;[];168.9939281999832;None;None;;168.9939281999832;None;;;S11816;2022_Oct_24_1504;VideoMask;2021.1.2;120.13036551434217;
9.0;f;019_m_f_s_a.jpg;sad;7.0;sad_8.4ns.avi;sad;7.0;congruent;130.0;160.0;171.6633093155257;s_s;;;;;0;10;10;10;;;;;;;172.0104223000817;None;173.7102356000105;174.02694520005025;175.16081929998472;175.18555629998446;183.29359030001797;None;7;0;183.29359030001797;None;;;;;;;;5;;;;;0.5897192999254912;;;184.84340290003456;None;None;None;[];184.84340290003456;None;None;;184.84340290003456;None;;;S11816;2022_Oct_24_1504;VideoMask;2021.1.2;120.13036551434217;
4.0;m;004_o_m_h_a.jpg;happy;9.0;happy_1.1ns.avi;happy;9.0;congruent;120.0;150.0;203.50057144619865;h_h;;;;;0;11;11;11;;;;;;;187.87667360005435;None;189.8683047000086;190.18487280001864;191.30987960007042;191.32656950003002;205.80112519999966;None;None;0;205.80112519999966;None;;;;;;;;6;;;;;;;;207.3508916000137;None;None;None;[];207.3508916000137;None;"['9', '9', '7']";"[0.39654250000603497, 1.1727569000795484, 1.6926837000064552]";207.3508916000137;None;;;S11816;2022_Oct_24_1504;VideoMask;2021.1.2;120.13036551434217;
7.0;m;027_o_m_h_a.jpg;happy;9.0;happy_20.1ns.avi;happy;9.0;congruent;120.0;150.0;152.91127178874285;h_h;;;;;0;12;12;12;;;;;;;210.35927520005498;None;211.85079400008544;212.1675103000598;213.29256209998857;213.30924189998768;216.3175172000192;None;9;0;216.3175172000192;None;;;;;;;;6;;;;;0.942098299972713;;;217.8673909000354;None;None;None;[];217.8673909000354;None;['9'];[0.6880392000311986];217.8673909000354;None;;;S11816;2022_Oct_24_1504;VideoMask;2021.1.2;120.13036551434217;
0.0;f;040_y_f_s_a.jpg;sad;7.0;sad_94.3ns.avi;sad;7.0;congruent;130.0;160.0;155.27414203894395;s_s;;;;;0;13;13;13;;;;;;;220.875775200082;None;222.37539900001138;222.69217380008195;223.84203890000936;223.85866959998384;226.45051620004233;None;8;0;226.45051620004233;None;;;;;;;;5;;;;;1.416931000072509;;;228.00042140006553;None;None;None;[];228.00042140006553;None;None;;228.00042140006553;None;;;S11816;2022_Oct_24_1504;VideoMask;2021.1.2;120.13036551434217;
0.0;f;030_o_f_s_a.jpg;sad;7.0;sad_68.1ns.avi;sad;7.0;congruent;130.0;160.0;158.9411396037211;s_s;;;;;0;14;14;14;;;;;;;231.025345900096;None;232.58338060008828;232.90018070000224;234.05849219998345;234.07519550004508;241.45837530004792;None;7;0;241.45837530004792;None;;;;;;;;5;;;;;0.46500229998491704;;;243.01659840007778;None;None;None;[];243.01659840007778;None;None;;243.01659840007778;None;;;S11816;2022_Oct_24_1504;VideoMask;2021.1.2;120.13036551434217;
0.0;f;030_o_f_h_a.jpg;happy;9.0;sad_127.1.wmv;sad;7.0;incongruent;120.0;160.0;180.59976631384873;h_s;;;;;0;15;15;15;;;;;;;246.041516300058;None;247.76624690007884;248.08303830004297;249.20819310005754;249.22475649998523;251.21635820006486;None;None;0;251.21635820006486;None;;;;;;;;5;;;;;;;;252.76609749998897;None;None;None;[];252.76609749998897;None;None;;252.76609749998897;None;;;S11816;2022_Oct_24_1504;VideoMask;2021.1.2;120.13036551434217;
8.0;m;008_y_m_s_a.jpg;sad;7.0;happy_133.3.wmv;happy;9.0;incongruent;130.0;150.0;152.577966552593;s_h;;;;;0;16;16;16;;;;;;;255.79956260009203;None;257.282674600021;257.59948249999434;258.7245152000105;258.7410057000816;260.7326843000483;None;9;0;260.7326843000483;None;;;;;;;;7;;;;;0.4948166999965906;;;262.2743651000783;None;None;None;[];262.2743651000783;None;"['9', '9']";"[0.30515739996917546, 1.0811872000340372]";262.2743651000783;None;;;S11816;2022_Oct_24_1504;VideoMask;2021.1.2;120.13036551434217;
3.0;m;033_o_m_h_a.jpg;happy;9.0;sad_128.1.wmv;sad;7.0;incongruent;120.0;160.0;171.0492454518585;h_s;;;;;0;17;17;17;;;;;;;265.28260410006624;None;266.9323865000624;267.24910050001927;268.38284189999104;268.4073776000878;270.38236200006213;None;8;0;270.38236200006213;None;;;;;;;;4;;;;;1.2371563999913633;;;272.0322707000887;None;None;None;[];272.0322707000887;None;"['7', '7']";"[0.13134349999018013, 0.8432638000231236]";272.0322707000887;None;;;S11816;2022_Oct_24_1504;VideoMask;2021.1.2;120.13036551434217;
1.0;f;021_o_f_h_a.jpg;happy;9.0;sad_116.1.wmv;sad;7.0;incongruent;120.0;160.0;184.06847610053055;h_s;;;;;0;18;18;18;;;;;;;275.03233240009286;None;276.79041480005253;277.107131900033;278.27420300000813;278.29061939998064;280.24054790008813;None;7;0;280.24054790008813;None;;;;;;;;5;;;;;0.6028496000217274;;;281.790383500047;None;None;None;[];281.790383500047;None;None;;281.790383500047;None;;;S11816;2022_Oct_24_1504;VideoMask;2021.1.2;120.13036551434217;
4.0;m;004_o_m_s_a.jpg;sad;7.0;happy_28.1ns.avi;happy;9.0;incongruent;130.0;150.0;157.40741103039684;s_h;;;;;0;19;19;19;;;;;;;284.82363830006216;None;286.3567660000408;286.6734263000544;287.8732572000008;287.8900265999837;292.1984685000498;None;9;0;292.1984685000498;None;;;;;;;;7;;;;;0.3570344999898225;;;293.7400148999877;None;None;None;[];293.7400148999877;None;"['9', '9']";"[0.42372309998609126, 0.7114172999281436]";293.7400148999877;None;;;S11816;2022_Oct_24_1504;VideoMask;2021.1.2;120.13036551434217;
8.0;f;028_y_f_s_a.jpg;sad;7.0;happy_122.3.wmv;happy;9.0;incongruent;130.0;150.0;171.8670540936116;s_h;;;;;0;20;20;20;;;;;;;296.73993470007554;None;298.3981992000481;298.7148054999998;299.8563070000382;299.8731203000061;301.8480480000144;None;9;0;301.8480480000144;None;;;;;;;;5;;;;;1.3634198000654578;;;303.53134200000204;None;None;None;[];303.53134200000204;None;None;;303.53134200000204;None;;;S11816;2022_Oct_24_1504;VideoMask;2021.1.2;120.13036551434217;
8.0;m;008_y_m_s_a.jpg;sad;7.0;sad_6.5ns.avi;sad;7.0;congruent;130.0;160.0;170.39333839271438;s_s;;;;;0;21;21;21;;;;;;;306.56461320002563;None;308.20608060003724;308.5228577000089;309.70612900005654;309.72281220008153;314.65602170000784;None;7;0;314.65602170000784;None;;;;;;;;5;;;;;0.675451899995096;;;316.2059469000669;None;None;None;[];316.2059469000669;None;None;;316.2059469000669;None;;;S11816;2022_Oct_24_1504;VideoMask;2021.1.2;120.13036551434217;
8.0;f;028_y_f_h_a.jpg;happy;9.0;happy_23.1ns.avi;happy;9.0;congruent;120.0;150.0;225.70986890587952;h_h;;;;;0;22;22;22;;;;;;;319.2307951999828;None;321.3308146999916;321.64739549998194;322.8139500999823;322.83075329998974;327.3556377000641;None;9;0;327.3556377000641;None;;;;;;;;6;;;;;0.6238782000727952;;;328.90558390005026;None;None;None;[];328.90558390005026;None;['9'];[1.4263470000587404];328.90558390005026;None;;;S11816;2022_Oct_24_1504;VideoMask;2021.1.2;120.13036551434217;
8.0;m;008_y_m_h_a.jpg;happy;9.0;sad_111.1.wmv;sad;7.0;incongruent;120.0;160.0;152.63076835312847;h_s;;;;;0;23;23;23;;;;;;;331.9138804000104;None;333.39698050008155;333.7137936000945;334.8554069000529;334.87204370007385;336.8469909999985;None;7;0;336.8469909999985;None;;;;;;;;5;;;;;0.812648699968122;;;338.39695720002055;None;None;None;[];338.39695720002055;None;None;;338.39695720002055;None;;;S11816;2022_Oct_24_1504;VideoMask;2021.1.2;120.13036551434217;
0.0;f;040_y_f_s_a.jpg;sad;7.0;sad_67.2ns.avi;sad;7.0;congruent;130.0;160.0;220.9892697323079;s_s;;;;;0;24;24;24;;;;;;;341.42180690006353;None;343.52176730008796;343.83837540005334;344.99670320004225;345.01345990004484;354.1964245000854;None;7;0;354.1964245000854;None;;;;;;;;5;;;;;0.551063199993223;;;355.74639370001387;None;None;None;[];355.74639370001387;None;None;;355.74639370001387;None;;;S11816;2022_Oct_24_1504;VideoMask;2021.1.2;120.13036551434217;
8.0;m;008_y_m_s_a.jpg;sad;7.0;happy_29.1ns.avi;happy;9.0;incongruent;130.0;150.0;120.0316142834122;s_h;;;;;0;25;25;25;;;;;;;358.7712081000209;None;359.996165700024;360.3128112000413;361.4712472000392;361.4878735000966;364.1379641999956;None;9;0;364.1379641999956;None;;;;;;;;5;;;;;0.8175224000588059;;;365.687758199987;None;None;None;[];365.687758199987;None;None;;365.687758199987;None;;;S11816;2022_Oct_24_1504;VideoMask;2021.1.2;120.13036551434217;
6.0;m;016_y_m_s_a.jpg;sad;7.0;sad_8.3ns.avi;sad;7.0;congruent;130.0;160.0;152.85371098242734;s_s;;;;;0;26;26;26;;;;;;;368.7126912000822;None;370.2459139000857;370.56253330002073;371.7373920000391;371.75440289999824;379.45394090004265;None;7;0;379.45394090004265;None;;;;;;;;5;;;;;0.9655465000541881;;;381.23725190002006;None;None;None;[];381.23725190002006;None;None;;381.23725190002006;None;;;S11816;2022_Oct_24_1504;VideoMask;2021.1.2;120.13036551434217;
6.0;m;016_y_m_h_a.jpg;happy;9.0;sad_114.1.wmv;sad;7.0;incongruent;120.0;160.0;136.20550699298644;h_s;;;;;0;27;27;27;;;;;;;384.2536861000117;None;385.60378380003385;385.92036240000743;387.0454974999884;387.0621368000284;389.0537030000705;None;7;0;389.0537030000705;None;;;;;;;;5;;;;;1.0698876000242308;;;390.6036929000402;None;None;None;[];390.6036929000402;None;None;;390.6036929000402;None;;;S11816;2022_Oct_24_1504;VideoMask;2021.1.2;120.13036551434217;
7.0;m;027_o_m_s_a.jpg;sad;7.0;happy_117.3.wmv;happy;9.0;incongruent;130.0;150.0;215.61964028550614;s_h;;;;;0;28;28;28;;;;;;;393.6285647000186;None;395.63670899998397;395.95359960000496;397.08669110003393;397.10358220001217;399.0867088000523;None;7;0;399.0867088000523;None;;;;;;;;5;;;;;1.2928325000684708;;;400.636659800075;None;None;None;[];400.636659800075;None;None;;400.636659800075;None;;;S11816;2022_Oct_24_1504;VideoMask;2021.1.2;120.13036551434217;
6.0;m;016_y_m_h_a.jpg;happy;9.0;happy_9.2ns.avi;happy;9.0;congruent;120.0;150.0;130.52042428082717;h_h;;;;;0;29;29;29;;;;;;;403.66984210000373;None;405.0032409999985;405.31978360004723;406.5115232000826;406.52811620000284;412.3945563000161;None;9;0;412.3945563000161;None;;;;;;;;6;;;;;0.5930005999980494;;;414.0778143000789;None;None;None;[];414.0778143000789;None;['9'];[0.44567339995410293];414.0778143000789;None;;;S11816;2022_Oct_24_1504;VideoMask;2021.1.2;120.13036551434217;
0.0;f;040_y_f_s_a.jpg;sad;7.0;happy_127.3.wmv;happy;9.0;incongruent;130.0;150.0;131.7195455720239;s_h;;;;;0;30;30;30;;;;;;;417.0946118000429;None;418.40270450001117;418.7193430000916;419.8444142000517;419.86106900009327;421.91932200000156;None;9;0;421.91932200000156;None;;;;;;;;6;;;;;0.7881912000011653;;;423.46926839998923;None;None;None;[];423.46926839998923;None;['9'];[0.30223369994200766];423.46926839998923;None;;;S11816;2022_Oct_24_1504;VideoMask;2021.1.2;120.13036551434217;
0.0;f;030_o_f_s_a.jpg;sad;7.0;happy_125.3.wmv;happy;9.0;incongruent;130.0;150.0;220.51454909128134;s_h;;;;;0;31;31;31;;;;;;;426.4776748000877;None;428.5273107000394;428.84404270001687;429.97740169998724;429.9940741000464;431.9773271000013;None;9;0;431.9773271000013;None;;;;;;;;4;;;;;1.4341914999531582;;;433.5272501000436;None;None;None;[];433.5272501000436;None;['7'];[2.012505399994552];433.5272501000436;None;;;S11816;2022_Oct_24_1504;VideoMask;2021.1.2;120.13036551434217;
0.0;f;030_o_f_s_a.jpg;sad;7.0;sad_64.3ns.avi;sad;7.0;congruent;130.0;160.0;165.78667874766072;s_s;;;;;0;32;32;32;;;;;;;436.5356716000242;None;438.1435926000122;438.46037960005924;439.5855187000707;439.60205079999287;444.59372190001886;None;7;0;444.59372190001886;None;;;;;;;;5;;;;;0.5939049000153318;;;446.143561600009;None;None;None;[];446.143561600009;None;None;;446.143561600009;None;;;S11816;2022_Oct_24_1504;VideoMask;2021.1.2;120.13036551434217;
3.0;m;013_y_m_s_a.jpg;sad;7.0;sad_7.7ns.avi;sad;7.0;congruent;130.0;160.0;196.24182255763262;s_s;;;;;0;33;33;33;;;;;;;449.1685628000414;None;451.03498360002413;451.35163360007573;452.5182270000223;452.53482940001413;458.484964900068;None;7;0;458.484964900068;None;;;;;;;;4;;;;;0.7985241999849677;;;460.0348057000665;None;None;None;[];460.0348057000665;None;['7'];[1.3528336000163108];460.0348057000665;None;;;S11816;2022_Oct_24_1504;VideoMask;2021.1.2;120.13036551434217;
3.0;m;013_y_m_h_a.jpg;happy;9.0;happy_9.1ns.avi;happy;9.0;congruent;120.0;150.0;165.1890303600433;h_h;;;;;0;34;34;34;;;;;;;463.03481019998435;None;464.64286600006744;464.9596050999826;466.1433355000336;466.16860510001425;469.31796550005674;None;9;0;469.31796550005674;None;;;;;;;;4;;;;;0.8856905000284314;;;470.8677929000696;None;None;None;[];470.8677929000696;None;['7'];[0.3837700999574736];470.8677929000696;None;;;S11816;2022_Oct_24_1504;VideoMask;2021.1.2;120.13036551434217;
4.0;m;004_o_m_h_a.jpg;happy;9.0;sad_95.1ns.avi;sad;7.0;incongruent;120.0;160.0;152.68270002069931;h_s;;;;;0;35;35;35;;;;;;;473.8676998000592;None;475.4260304000927;475.7425685999915;476.9093473000685;476.92595910001546;485.66742579999845;None;8;0;485.66742579999845;None;;;;;;;;3;;;;;1.3361435000551865;;;487.2255973999854;None;None;None;[];487.2255973999854;None;"['7', '7']";"[0.2900581000139937, 1.3461895999498665]";487.2255973999854;None;;;S11816;2022_Oct_24_1504;VideoMask;2021.1.2;120.13036551434217;
3.0;m;013_y_m_h_a.jpg;happy;9.0;sad_113.2.wmv;sad;7.0;incongruent;120.0;160.0;217.4973891947951;h_s;;;;;0;36;36;36;;;;;;;490.233954400057;None;492.2753323999932;492.5920315000694;493.7171329000266;493.73375600005966;495.7253620000556;None;None;0;495.7253620000556;None;;;;;;;;4;;;;;;;;497.2751301000826;None;None;None;[];497.2751301000826;None;"['7', '7', '9']";"[0.1044892999343574, 0.7044497999595478, 1.9683630999643356]";497.2751301000826;None;;;S11816;2022_Oct_24_1504;VideoMask;2021.1.2;120.13036551434217;
4.0;m;004_o_m_h_a.jpg;happy;9.0;happy_25.1ns.avi;happy;9.0;congruent;120.0;150.0;216.63044503818386;h_h;;;;;0;37;37;37;;;;;;;500.2752690000925;None;502.3000600000378;502.6167126999935;503.80849429999944;503.82512110006064;507.441799000022;None;9;0;507.441799000022;None;;;;;;;;5;;;;;0.8897816999815404;;;508.99988370004576;None;None;None;[];508.99988370004576;None;None;;508.99988370004576;None;;;S11816;2022_Oct_24_1504;VideoMask;2021.1.2;120.13036551434217;
4.0;m;004_o_m_s_a.jpg;sad;7.0;happy_131.2.wmv;happy;9.0;incongruent;130.0;150.0;181.38407540847405;s_h;;;;;0;38;38;38;;;;;;;512.0248340000398;None;513.749612600077;514.0664252000861;515.1995576000772;515.2163986000232;517.199703500024;None;9;0;517.199703500024;None;;;;;;;;4;;;;;0.5718055000761524;;;518.7495732000098;None;None;None;[];518.7495732000098;None;['7'];[1.157969299936667];518.7495732000098;None;;;S11816;2022_Oct_24_1504;VideoMask;2021.1.2;120.13036551434217;
0.0;f;040_y_f_h_a.jpg;happy;9.0;happy_24.3ns.avi;happy;9.0;congruent;120.0;150.0;213.25460698950434;h_h;;;;;0;39;39;39;;;;;;;521.7496245000511;None;523.7326521000359;524.049414100009;525.2743822000921;525.2910515000112;527.1077844999963;None;9;0;527.1077844999963;None;;;;;;;;5;;;;;0.7600147998891771;;;528.6576319000451;None;None;None;[];528.6576319000451;None;None;;528.6576319000451;None;;;S11816;2022_Oct_24_1504;VideoMask;2021.1.2;120.13036551434217;
2.0;f;012_o_f_s_a.jpg;sad;7.0;happy_139.1.wmv;happy;9.0;incongruent;130.0;150.0;162.31500468041804;s_h;;;;;0;40;40;40;;;;;;;531.6906982000219;None;533.2573859000113;533.5740087000886;534.7074032999808;534.7241589000914;536.7074248000281;None;9;0;536.7074248000281;None;;;;;;;;5;;;;;0.6562038999982178;;;538.2739764000289;None;None;None;[];538.2739764000289;None;None;;538.2739764000289;None;;;S11816;2022_Oct_24_1504;VideoMask;2021.1.2;120.13036551434217;
0.0;f;030_o_f_h_a.jpg;happy;9.0;happy_24.1ns.avi;happy;9.0;congruent;120.0;150.0;168.36256624020774;h_h;;;;;0;41;41;41;;;;;;;541.2988419000758;None;542.9320669000736;543.2488213999895;544.4154548000079;544.4321040000068;547.7070407000137;None;9;0;547.7070407000137;None;;;;;;;;5;;;;;1.128470900002867;;;549.2735458000097;None;None;None;[];549.2735458000097;None;None;;549.2735458000097;None;;;S11816;2022_Oct_24_1504;VideoMask;2021.1.2;120.13036551434217;
2.0;f;012_o_f_h_a.jpg;happy;9.0;sad_113.1.wmv;sad;7.0;incongruent;120.0;160.0;177.44551734737394;h_s;;;;;0;42;42;42;;;;;;;552.2985849999823;None;553.990077800001;554.3067729000468;555.4566990000894;555.4733321000822;557.4402692000149;None;7;0;557.4402692000149;None;;;;;;;;5;;;;;0.6032185999210924;;;558.9900562000694;None;None;None;[];558.9900562000694;None;None;;558.9900562000694;None;;;S11816;2022_Oct_24_1504;VideoMask;2021.1.2;120.13036551434217;
3.0;m;033_o_m_s_a.jpg;sad;7.0;sad_64.5ns.avi;sad;7.0;congruent;130.0;160.0;130.55717223801247;s_s;;;;;0;43;43;43;;;;;;;562.0233110000845;None;563.3481202999828;563.6648379000835;564.8314486000454;564.8482017000206;571.3814596000593;None;7;0;571.3814596000593;None;;;;;;;;4;;;;;0.6701259999535978;;;572.9312558000674;None;None;None;[];572.9312558000674;None;['7'];[0.4484443999826908];572.9312558000674;None;;;S11816;2022_Oct_24_1504;VideoMask;2021.1.2;120.13036551434217;
7.0;m;027_o_m_h_a.jpg;happy;9.0;sad_117.1.wmv;sad;7.0;incongruent;120.0;160.0;181.28665202824095;h_s;;;;;0;44;44;44;;;;;;;575.9313007000601;None;577.6643471000716;577.9810603000224;579.1224678000435;579.1392172999913;581.1143148000119;None;None;0;581.1143148000119;None;;;;;;;;4;;;;;;;;582.6641122000292;None;None;None;[];582.6641122000292;None;"['7', '9']";"[0.08331100002396852, 1.4035244999686256]";582.6641122000292;None;;;S11816;2022_Oct_24_1504;VideoMask;2021.1.2;120.13036551434217;
3.0;m;033_o_m_s_a.jpg;sad;7.0;happy_126.3.wmv;happy;9.0;incongruent;130.0;150.0;198.85252030535366;s_h;;;;;0;45;45;45;;;;;;;585.6725656000199;None;587.5475725000724;587.864170200075;589.0222855000757;589.0389264000114;590.997363600065;None;9;0;590.997363600065;None;;;;;;;;5;;;;;0.4862004000460729;;;592.5473186000017;None;None;None;[];592.5473186000017;None;None;;592.5473186000017;None;;;S11816;2022_Oct_24_1504;VideoMask;2021.1.2;120.13036551434217;
3.0;m;033_o_m_h_a.jpg;happy;9.0;sad_136.1.wmv;sad;7.0;incongruent;120.0;160.0;176.97002883463455;h_s;;;;;0;46;46;46;;;;;;;595.5721779000014;None;597.2552337000379;597.5720854999963;598.697212100029;598.7136948000407;600.7053648000583;None;7;0;600.7053648000583;None;;;;;;;;5;;;;;0.47422390000429004;;;602.2553494999884;None;None;None;[];602.2553494999884;None;None;;602.2553494999884;None;;;S11816;2022_Oct_24_1504;VideoMask;2021.1.2;120.13036551434217;
9.0;f;019_m_f_h_a.jpg;happy;9.0;happy_10.1ns.avi;happy;9.0;congruent;120.0;150.0;157.2463435658512;h_h;;;;;0;47;47;47;;;;;;;605.2800942000467;None;606.8552445999812;607.1717666999903;608.2968424999854;608.3134570000693;615.7465759000042;None;9;0;615.7465759000042;None;;;;;;;;6;;;;;0.6090198999736458;;;617.2967774000717;None;None;None;[];617.2967774000717;None;['9'];[0.3547931999200955];617.2967774000717;None;;;S11816;2022_Oct_24_1504;VideoMask;2021.1.2;120.13036551434217;
2.0;f;012_o_f_h_a.jpg;happy;9.0;happy_2.2ns.avi;happy;9.0;congruent;120.0;150.0;206.34800317295262;h_h;;;;;0;48;48;48;;;;;;;620.3048202000791;None;622.2880841000006;622.6046225000173;623.7380606000079;623.7545411000028;635.937767400057;None;9;0;635.937767400057;None;;;;;;;;5;;;;;0.6420633998932317;;;637.4958874000004;None;None;None;[];637.4958874000004;None;None;;637.4958874000004;None;;;S11816;2022_Oct_24_1504;VideoMask;2021.1.2;120.13036551434217;
3.0;m;033_o_m_h_a.jpg;happy;9.0;happy_24.2ns.avi;happy;9.0;congruent;120.0;150.0;167.9423847659953;h_h;;;;;0;49;49;49;;;;;;;640.5123228000011;None;642.137384200003;642.4540059000719;643.6457038000226;643.662400900037;647.3205743000144;None;9;0;647.3205743000144;None;;;;;;;;5;;;;;1.1229479999747127;;;648.8705341999885;None;None;None;[];648.8705341999885;None;None;;648.8705341999885;None;;;S11816;2022_Oct_24_1504;VideoMask;2021.1.2;120.13036551434217;
1.0;f;021_o_f_s_a.jpg;sad;7.0;happy_61.2ns.avi;happy;9.0;incongruent;130.0;150.0;210.94664004826666;s_h;;;;;0;50;50;50;;;;;;;651.8869914000388;None;653.8787334000226;654.195290200063;655.3617930000182;655.3784678000957;659.8536582000088;None;9;0;659.8536582000088;None;;;;;;;;6;;;;;0.39790569990873337;;;661.4033265000908;None;None;None;[];661.4033265000908;None;['9'];[0.28043129993602633];661.4033265000908;None;;;S11816;2022_Oct_24_1504;VideoMask;2021.1.2;120.13036551434217;
4.0;m;004_o_m_s_a.jpg;sad;7.0;sad_2.4ns.avi;sad;7.0;congruent;130.0;160.0;153.02079367163634;s_s;;;;;0;51;51;51;;;;;;;664.411737699993;None;665.9200360000832;666.2365842000581;667.3866780999815;667.4032978999894;675.3364720999962;None;7;0;675.3364720999962;None;;;;;;;;5;;;;;0.787133099976927;;;676.8946816000389;None;None;None;[];676.8946816000389;None;None;;676.8946816000389;None;;;S11816;2022_Oct_24_1504;VideoMask;2021.1.2;120.13036551434217;
8.0;m;008_y_m_h_a.jpg;happy;9.0;happy_1.2ns.avi;happy;9.0;congruent;120.0;150.0;210.98946429383824;h_h;;;;;0;52;52;52;;;;;;;679.9111457000254;None;681.9528313000919;682.2694236000534;683.4611387000186;683.4778166000033;696.2108127999818;None;9;0;696.2108127999818;None;;;;;;;;5;;;;;0.624763400061056;;;697.7689997000853;None;None;None;[];697.7689997000853;None;None;;697.7689997000853;None;;;S11816;2022_Oct_24_1504;VideoMask;2021.1.2;120.13036551434217;
2.0;f;012_o_f_s_a.jpg;sad;7.0;happy_52.2ns.avi;happy;9.0;incongruent;130.0;150.0;172.57202848318138;s_h;;;;;0;53;53;53;;;;;;;700.7936789999949;None;702.4437087000115;702.7604435000103;703.9188012999948;703.9354024000932;707.4436228000559;None;9;0;707.4436228000559;None;;;;;;;;6;;;;;0.5520423999987543;;;708.9936174000613;None;None;None;[];708.9936174000613;None;"['9', '9']";"[0.37823749997187406, 1.042358599952422]";708.9936174000613;None;;;S11816;2022_Oct_24_1504;VideoMask;2021.1.2;120.13036551434217;
9.0;f;019_m_f_s_a.jpg;sad;7.0;happy_61.1ns.avi;happy;9.0;incongruent;130.0;150.0;181.3003220572762;s_h;;;;;0;54;54;54;;;;;;;712.0019800000591;None;713.785200900049;714.1017766000004;715.2768401000649;715.2933507000562;722.6265524000628;None;9;0;722.6265524000628;None;;;;;;;;5;;;;;0.7770693000638857;;;724.1764532000525;None;None;None;[];724.1764532000525;None;None;;724.1764532000525;None;;;S11816;2022_Oct_24_1504;VideoMask;2021.1.2;120.13036551434217;
0.0;f;030_o_f_h_a.jpg;happy;9.0;sad_133.1.wmv;sad;7.0;incongruent;120.0;160.0;198.86251500867985;h_s;;;;;0;55;55;55;;;;;;;727.2012889999896;None;729.0762639000313;729.3929320999887;730.5262893000618;730.5432947000954;732.5263691000873;None;7;0;732.5263691000873;None;;;;;;;;4;;;;;0.5653123999945819;;;734.0762364000548;None;None;None;[];734.0762364000548;None;['7'];[0.5675773000111803];734.0762364000548;None;;;S11816;2022_Oct_24_1504;VideoMask;2021.1.2;120.13036551434217;
0.0;f;040_y_f_h_a.jpg;happy;9.0;sad_128.2.wmv;sad;7.0;incongruent;120.0;160.0;206.10005857915363;h_s;;;;;0;56;56;56;;;;;;;737.0761621000711;None;739.0092453000834;739.3260247000726;740.4760366000701;740.4924270000774;742.4676076000324;None;7;0;742.4676076000324;None;;;;;;;;5;;;;;1.1200394000625238;;;744.1174655000214;None;None;None;[];744.1174655000214;None;None;;744.1174655000214;None;;;S11816;2022_Oct_24_1504;VideoMask;2021.1.2;120.13036551434217;
1.0;f;021_o_f_s_a.jpg;sad;7.0;sad_9.5ns.avi;sad;7.0;congruent;130.0;160.0;206.16642757875042;s_s;;;;;0;57;57;57;;;;;;;747.1339819000568;None;749.0672556000063;749.3839221000671;750.5591230000136;750.5756703000516;756.2421343000606;None;7;0;756.2421343000606;None;;;;;;;;3;;;;;0.4575230999616906;;;757.7921281000599;None;None;None;[];757.7921281000599;None;"['7', '7', '7']";"[0.27560920000541955, 0.4594558000098914, 0.8675173000665382]";757.7921281000599;None;;;S11816;2022_Oct_24_1504;VideoMask;2021.1.2;120.13036551434217;
1.0;f;021_o_f_h_a.jpg;happy;9.0;happy_12.1ns.avi;happy;9.0;congruent;120.0;150.0;132.59080005900228;h_h;;;;;0;58;58;58;;;;;;;760.7921305000782;None;762.1418960000155;762.4586185000371;763.6006105000852;763.6173225000966;771.2084052000428;None;8;0;771.2084052000428;None;;;;;;;;6;;;;;0.6432004999369383;;;772.7750178000424;None;None;None;[];772.7750178000424;None;['9'];[0.4686170000350103];772.7750178000424;None;;;S11816;2022_Oct_24_1504;VideoMask;2021.1.2;120.13036551434217;
3.0;m;013_y_m_s_a.jpg;sad;7.0;happy_56.2ns.avi;happy;9.0;incongruent;130.0;150.0;163.39234110935848;s_h;;;;;0;59;59;59;;;;;;;775.7749219000107;None;777.3665153000038;777.6830046999967;778.8746337000048;778.8914480999811;783.8412205000641;None;9;0;783.8412205000641;None;;;;;;;;6;;;;;0.4665062000276521;;;785.391246400075;None;None;None;[];785.391246400075;None;['9'];[1.1406509999651462];785.391246400075;None;;;S11816;2022_Oct_24_1504;VideoMask;2021.1.2;120.13036551434217;
;;;;;;;;;;;;;;;;;;;;;;;;;;;;;;;;;;;;;;;;;;;;;;;;;;;;;;;;;;;;;;;;;788.3912053999957;None;;;;;;
