primePerson;primeGender;prime;primeEmotion;corrAnsPrime;target;targetEmotion;corrAnsTar;Cond;ID_Primer;ID_Target;JitterTime;Condition;example.thisRepN;example.thisTrialN;example.thisN;example.thisIndex;study.thisRepN;study.thisTrialN;study.thisN;study.thisIndex;MR_trigger_time;MR_trigger_number;text_intro.started;text_intro.stopped;text_probe.started;text_probe.stopped;polygon_ISI.started;polygon_ISI.stopped;polygon.started;polygon.stopped;primerImage.started;primerImage.stopped;response.started;response.stopped;key_resp.keys;key_resp.corr;key_resp.rt;key_resp.started;key_resp.stopped;slider_Text.started;slider_Text.stopped;slider_ex.response;slider_ex.rt;slider_ex.history;slider_ex.started;slider_ex.stopped;Rating;slider_resp_response.keys;slider_resp_response.started;slider_resp_response.stopped;text_start.started;text_start.stopped;text_slider.started;text_slider.stopped;slider_stud.response;slider_stud.rt;slider_stud.history;slider_stud.started;slider_stud.stopped;slider_resp_study.keys;slider_resp_study.rt;slider_resp_study.started;slider_resp_study.stopped;text_ende.started;text_ende.stopped;participant;date;expName;psychopyVersion;frameRate;
1111;m;1111_m_m_h_a.jpg;happy;9;example_30.4ns.avi;neutral;7;incongruent;120.0;170.0;189.5874364012288;;0;0;0;0;;;;;81.78439079999225;1;81.87918859999627;83.87940130001516;83.87940130001516;None;85.90409840000211;None;88.13758490001783;88.46257279999554;89.62921040001675;89.64577820000704;93.92901540000457;None;8;0;0.9216169000137597;93.92901540000457;None;95.49563980000676;None;None;None;[];95.49563980000676;None;5;None;95.49563980000676;None;;;;;;;;;;;;;;;;S11446;2022_May_12_1839;VideoMask;2021.1.2;119.94103697010422;
1113;f;1113_y_f_s_a.jpg;sad;7;example_30.3ns.avi;neutral;7;incongruent;130.0;170.0;229.02432995836998;;0;1;1;1;;;;;;;;;;;98.50389730001916;None;100.62041279999539;100.93705700000282;102.07047639999655;102.08710010000505;104.08706550000352;None;None;0;;104.08706550000352;None;105.63679360001697;None;None;None;[];105.63679360001697;None;5;None;105.63679360001697;None;;;;;;;;;;;;;;;;S11446;2022_May_12_1839;VideoMask;2021.1.2;119.94103697010422;
9.0;f;019_m_f_h_a.jpg;happy;9.0;sad_115.1.wmv;sad;7.0;incongruent;120.0;160.0;128.09063432376465;h_s;;;;;0;0;0;0;;;;;;;109.67023290001089;None;110.96169680001913;111.2783202000137;112.41165829999954;112.42846970001119;114.41173100000015;None;7;0;0.8228514999791514;114.41173100000015;None;;;;;;;;2;;;;108.67027440000675;None;115.96155780000845;None;None;None;[];115.96155780000845;None;"['7', '7', '7']";"[0.7130141999805346, 1.2407041999977082, 1.5369380000047386]";115.96155780000845;None;;;S11446;2022_May_12_1839;VideoMask;2021.1.2;119.94103697010422;
3.0;m;033_o_m_s_a.jpg;sad;7.0;sad_94.2ns.avi;sad;7.0;congruent;130.0;160.0;182.29120173647655;s_s;;;;;0;1;1;1;;;;;;;118.97843960000318;None;120.71141260000877;121.02820830000564;122.22814300001482;122.24473269999726;124.85307929999544;None;7;0;1.1414396000036504;124.85307929999544;None;;;;;;;;1;;;;;;126.4197029999923;None;None;None;[];126.4197029999923;None;"['7', '7', '7', '7', '7']";"[0.4948117999883834, 0.7828741999983322, 1.0227580999780912, 1.238622699980624, 1.8389151000010315]";126.4197029999923;None;;;S11446;2022_May_12_1839;VideoMask;2021.1.2;119.94103697010422;
8.0;m;008_y_m_h_a.jpg;happy;9.0;happy_26.1ns.avi;happy;9.0;congruent;120.0;150.0;155.9437854594882;h_h;;;;;0;2;2;2;;;;;;;129.41969139999128;None;130.91100009999354;131.22788170000422;132.42787320000934;132.44448910001665;134.3527660999971;None;9;0;0.7616710999864154;134.3527660999971;None;;;;;;;;8;;;;;;135.90276460000314;None;None;None;[];135.90276460000314;None;"['9', '9', '9']";"[0.571691200020723, 0.8517697000061162, 1.7639095000049565]";135.90276460000314;None;;;S11446;2022_May_12_1839;VideoMask;2021.1.2;119.94103697010422;
0.0;f;040_y_f_h_a.jpg;happy;9.0;sad_138.1.wmv;sad;7.0;incongruent;120.0;160.0;133.99071306426532;h_s;;;;;0;3;3;3;;;;;;;138.91102679999312;None;140.25247520001722;140.56919259999995;141.69429040001705;141.71086409999407;143.70248120001634;None;7;0;1.148054499994032;143.70248120001634;None;;;;;;;;2;;;;;;145.25246330001391;None;None;None;[];145.25246330001391;None;"['7', '7', '7']";"[0.35022699998808093, 0.5901512000127696, 1.9660231999878306]";145.25246330001391;None;;;S11446;2022_May_12_1839;VideoMask;2021.1.2;119.94103697010422;
8.0;f;028_y_f_s_a.jpg;sad;7.0;sad_64.2ns.avi;sad;7.0;congruent;130.0;160.0;229.88540597086478;s_s;;;;;0;4;4;4;;;;;;;148.2608431999979;None;150.4773164000071;150.79389739999897;151.9522477000137;151.9689909000008;162.92704060001415;None;7;0;0.6434814999811351;162.92704060001415;None;;;;;;;;1;;;;;;164.47687909999513;None;None;None;[];164.47687909999513;None;"['7', '7', '7', '7']";"[0.3496754999796394, 0.597462399979122, 0.7894242999900598, 0.9894888999988325]";164.47687909999513;None;;;S11446;2022_May_12_1839;VideoMask;2021.1.2;119.94103697010422;
7.0;m;027_o_m_s_a.jpg;sad;7.0;sad_10.4ns.avi;sad;7.0;congruent;130.0;160.0;185.20129417468752;s_s;;;;;0;5;5;5;;;;;;;167.4767720999953;None;169.24332740000682;169.56006990000606;170.70980020001298;170.7264533000125;173.87660439999308;None;8;0;0.9739355999918189;173.87660439999308;None;;;;;;;;5;;;;;;175.42649310000706;None;None;None;[];175.42649310000706;None;None;;175.42649310000706;None;;;S11446;2022_May_12_1839;VideoMask;2021.1.2;119.94103697010422;
2.0;f;012_o_f_s_a.jpg;sad;7.0;sad_7.5ns.avi;sad;7.0;congruent;130.0;160.0;220.27842655424388;s_s;;;;;0;6;6;6;;;;;;;178.44293720001588;None;180.48454330000095;180.80132830000366;181.96788880001986;181.98446540001896;184.72647200000938;None;7;0;0.2601056999992579;184.72647200000938;None;;;;;;;;1;;;;;;186.3178569000156;None;None;None;[];186.3178569000156;None;"['7', '7', '7', '7']";"[0.38082749999011867, 0.5806469999952242, 0.7567106999922544, 0.9484593000088353]";186.3178569000156;None;;;S11446;2022_May_12_1839;VideoMask;2021.1.2;119.94103697010422;
2.0;f;012_o_f_h_a.jpg;happy;9.0;happy_27.1ns.avi;happy;9.0;congruent;120.0;150.0;146.44967055810616;h_h;;;;;0;7;7;7;;;;;;;189.3179034999921;None;190.742587500019;191.05929780000588;192.2173172000039;192.2349297000037;194.68430610001087;None;9;0;0.5580623999994714;194.68430610001087;None;;;;;;;;9;;;;;;196.23421480000252;None;None;None;[];196.23421480000252;None;"['9', '9', '9', '9']";"[0.30433320000884123, 0.6004195999994408, 0.82446240002173, 1.3442500000237487]";196.23421480000252;None;;;S11446;2022_May_12_1839;VideoMask;2021.1.2;119.94103697010422;
8.0;f;028_y_f_h_a.jpg;happy;9.0;sad_119.1.wmv;sad;7.0;incongruent;120.0;160.0;148.71526953572538;h_s;;;;;0;8;8;8;;;;;;;199.23409410001477;None;200.68394960000296;201.00062450001133;202.13408889999846;202.15069060001406;204.20061420000275;None;7;0;0.7458374999987427;204.20061420000275;None;;;;;;;;1;;;;;;205.75059280000278;None;None;None;[];205.75059280000278;None;"['7', '7', '7', '7']";"[0.3001220000151079, 0.5720220000075642, 0.78792230002, 1.003852599998936]";205.75059280000278;None;;;S11446;2022_May_12_1839;VideoMask;2021.1.2;119.94103697010422;
6.0;m;016_y_m_s_a.jpg;sad;7.0;happy_60.4ns.avi;happy;9.0;incongruent;130.0;150.0;126.02367393611817;s_h;;;;;0;9;9;9;;;;;;;208.7504820000031;None;210.0587068000168;210.37532019999344;211.5341219000111;211.550587500009;217.300327200006;None;8;0;1.0782541000226047;217.300327200006;None;;;;;;;;7;;;;;;218.90017350000562;None;None;None;[];218.90017350000562;None;"['9', '9']";"[1.246566999994684, 1.5584223000041675]";218.90017350000562;None;;;S11446;2022_May_12_1839;VideoMask;2021.1.2;119.94103697010422;
9.0;f;019_m_f_s_a.jpg;sad;7.0;sad_8.4ns.avi;sad;7.0;congruent;130.0;160.0;171.6633093155257;s_s;;;;;0;10;10;10;;;;;;;221.9085452000145;None;223.6081775999919;223.92498020001221;225.12516270001652;225.1416850000096;233.19975180001347;None;7;0;1.1466834000020754;233.19975180001347;None;;;;;;;;1;;;;;;234.74968470001477;None;None;None;[];234.74968470001477;None;"['7', '7', '7', '7']";"[0.4287209000030998, 0.7728103999979794, 1.0207042999973055, 1.4930311999924015]";234.74968470001477;None;;;S11446;2022_May_12_1839;VideoMask;2021.1.2;119.94103697010422;
4.0;m;004_o_m_h_a.jpg;happy;9.0;happy_1.1ns.avi;happy;9.0;congruent;120.0;150.0;203.50057144619865;h_h;;;;;0;11;11;11;;;;;;;237.7579837999947;None;239.74122290001833;240.05775790000916;241.23265079999692;241.24933150000288;255.67405200001667;None;8;0;1.232524499995634;255.67405200001667;None;;;;;;;;7;;;;;;257.2239851000195;None;None;None;[];257.2239851000195;None;"['9', '9']";"[0.6423442999948747, 1.1545769000076689]";257.2239851000195;None;;;S11446;2022_May_12_1839;VideoMask;2021.1.2;119.94103697010422;
7.0;m;027_o_m_h_a.jpg;happy;9.0;happy_20.1ns.avi;happy;9.0;congruent;120.0;150.0;152.91127178874285;h_h;;;;;0;12;12;12;;;;;;;260.22400590000325;None;261.74885480001103;262.06560870000976;263.22381650001626;263.2404857999936;266.2154142000072;None;9;0;0.6031414000026416;266.2154142000072;None;;;;;;;;7;;;;;;267.76535299999523;None;None;None;[];267.76535299999523;None;"['9', '9']";"[0.37351370000396855, 1.1413872000121046]";267.76535299999523;None;;;S11446;2022_May_12_1839;VideoMask;2021.1.2;119.94103697010422;
0.0;f;040_y_f_s_a.jpg;sad;7.0;sad_94.3ns.avi;sad;7.0;congruent;130.0;160.0;155.27414203894395;s_s;;;;;0;13;13;13;;;;;;;270.77356359999976;None;272.28185250001843;272.59835489999386;273.75671539999894;273.77409710001666;276.3567169000162;None;8;0;1.27778770000441;276.3567169000162;None;;;;;;;;3;;;;;;277.9067092000041;None;None;None;[];277.9067092000041;None;"['7', '7']";"[0.5758534999913536, 1.0877792999963276]";277.9067092000041;None;;;S11446;2022_May_12_1839;VideoMask;2021.1.2;119.94103697010422;
0.0;f;030_o_f_s_a.jpg;sad;7.0;sad_68.1ns.avi;sad;7.0;congruent;130.0;160.0;158.9411396037211;s_s;;;;;0;14;14;14;;;;;;;280.9066441000032;None;282.46479339999496;282.7814811000135;283.98151149999467;283.9981504000025;291.3395693000057;None;8;0;1.326980799989542;291.3395693000057;None;;;;;;;;1;;;;;;292.8895390999969;None;None;None;[];292.8895390999969;None;"['7', '7', '7', '7', '7']";"[0.36901700001908466, 0.6412063000025228, 0.8811914000252727, 1.1289709999982733, 1.4649859000055585]";292.8895390999969;None;;;S11446;2022_May_12_1839;VideoMask;2021.1.2;119.94103697010422;
0.0;f;030_o_f_h_a.jpg;happy;9.0;sad_127.1.wmv;sad;7.0;incongruent;120.0;160.0;180.59976631384873;h_s;;;;;0;15;15;15;;;;;;;295.8895860000048;None;297.6227906999993;297.9393478000129;299.0643373999919;299.081007700006;301.0727046999964;None;8;0;1.0419789999723434;301.0727046999964;None;;;;;;;;5;;;;;;302.73901330001536;None;None;None;[];302.73901330001536;None;None;;302.73901330001536;None;;;S11446;2022_May_12_1839;VideoMask;2021.1.2;119.94103697010422;
8.0;m;008_y_m_s_a.jpg;sad;7.0;happy_133.3.wmv;happy;9.0;incongruent;130.0;150.0;152.577966552593;s_h;;;;;0;16;16;16;;;;;;;305.76423269999214;None;307.2556232000061;307.57244560000254;308.69745179999154;308.7140902999963;310.7056184000103;None;9;0;0.7289606000122149;310.7056184000103;None;;;;;;;;6;;;;;;312.25566860000254;None;None;None;[];312.25566860000254;None;['9'];[0.6431521000049543];312.25566860000254;None;;;S11446;2022_May_12_1839;VideoMask;2021.1.2;119.94103697010422;
3.0;m;033_o_m_h_a.jpg;happy;9.0;sad_128.1.wmv;sad;7.0;incongruent;120.0;160.0;171.0492454518585;h_s;;;;;0;17;17;17;;;;;;;315.2555316000071;None;316.9054971000005;317.2220496000082;318.3726000000024;318.39695819999906;320.3554346000019;None;8;0;0.6951298000058159;320.3554346000019;None;;;;;;;;5;;;;;;321.9053738999937;None;None;None;[];321.9053738999937;None;None;;321.9053738999937;None;;;S11446;2022_May_12_1839;VideoMask;2021.1.2;119.94103697010422;
1.0;f;021_o_f_h_a.jpg;happy;9.0;sad_116.1.wmv;sad;7.0;incongruent;120.0;160.0;184.06847610053055;h_s;;;;;0;18;18;18;;;;;;;324.9218184000056;None;326.6717073000036;326.98846150000463;328.1305297999934;328.15520800001104;330.12175099999877;None;7;0;0.4329362999997102;330.12175099999877;None;;;;;;;;4;;;;;;331.6717016000184;None;None;None;[];331.6717016000184;None;"['7', '7', '7']";"[0.4428852000273764, 0.9631665000051726, 2.0028965000237804]";331.6717016000184;None;;;S11446;2022_May_12_1839;VideoMask;2021.1.2;119.94103697010422;
4.0;m;004_o_m_s_a.jpg;sad;7.0;happy_28.1ns.avi;happy;9.0;incongruent;130.0;150.0;157.40741103039684;s_h;;;;;0;19;19;19;;;;;;;334.68012510001427;None;336.22997060001944;336.546493700007;337.7547229999909;337.77149720001034;342.07142570000724;None;9;0;0.5471245000080671;342.07142570000724;None;;;;;;;;9;;;;;;343.62133470000117;None;None;None;[];343.62133470000117;None;"['9', '9', '9', '9', '9', '9']";"[0.3576470999978483, 0.6853963000176009, 1.0772619000053965, 1.5092850000073668, 1.9734934000007343, 2.3250340000086]";343.62133470000117;None;;;S11446;2022_May_12_1839;VideoMask;2021.1.2;119.94103697010422;
8.0;f;028_y_f_s_a.jpg;sad;7.0;happy_122.3.wmv;happy;9.0;incongruent;130.0;150.0;171.8670540936116;s_h;;;;;0;20;20;20;;;;;;;346.62965869999607;None;348.28771649999544;348.60446450000745;349.7382235999976;349.76260610000463;351.7377519000147;None;8;0;0.6568652999994811;351.7377519000147;None;;;;;;;;5;;;;;;353.2877436999988;None;None;None;[];353.2877436999988;None;None;;353.2877436999988;None;;;S11446;2022_May_12_1839;VideoMask;2021.1.2;119.94103697010422;
8.0;m;008_y_m_s_a.jpg;sad;7.0;sad_6.5ns.avi;sad;7.0;congruent;130.0;160.0;170.39333839271438;s_s;;;;;0;21;21;21;;;;;;;356.30413340000086;None;357.96248400001787;358.2791724000126;359.43747989999247;359.45421389999683;364.4123981000157;None;7;0;0.438183599995682;364.4123981000157;None;;;;;;;;2;;;;;;366.045486100018;None;None;None;[];366.045486100018;None;"['7', '7', '7']";"[0.3650259999849368, 0.6530326000065543, 0.9810987999953795]";366.045486100018;None;;;S11446;2022_May_12_1839;VideoMask;2021.1.2;119.94103697010422;
8.0;f;028_y_f_h_a.jpg;happy;9.0;happy_23.1ns.avi;happy;9.0;congruent;120.0;150.0;225.70986890587952;h_h;;;;;0;22;22;22;;;;;;;369.04548550001346;None;371.1453701000137;371.470622199995;372.6452644999954;372.6620779999939;377.1703050000069;None;9;0;1.400347300019348;377.1703050000069;None;;;;;;;;4;;;;;;378.7202552999952;None;None;None;[];378.7202552999952;None;"['7', '7']";"[0.9863644000142813, 1.4743216000206303]";378.7202552999952;None;;;S11446;2022_May_12_1839;VideoMask;2021.1.2;119.94103697010422;
8.0;m;008_y_m_h_a.jpg;happy;9.0;sad_111.1.wmv;sad;7.0;incongruent;120.0;160.0;152.63076835312847;h_s;;;;;0;23;23;23;;;;;;;381.7200576000032;None;383.2117239999934;383.5284350000147;384.6621395999973;384.6867349999957;386.66167040000437;None;7;0;0.45288120000623167;386.66167040000437;None;;;;;;;;3;;;;;;388.21163180001895;None;None;None;[];388.21163180001895;None;"['7', '7']";"[0.36709529999643564, 1.1910877999907825]";388.21163180001895;None;;;S11446;2022_May_12_1839;VideoMask;2021.1.2;119.94103697010422;
0.0;f;040_y_f_s_a.jpg;sad;7.0;sad_67.2ns.avi;sad;7.0;congruent;130.0;160.0;220.9892697323079;s_s;;;;;0;24;24;24;;;;;;;391.2200292000198;None;393.319831300003;393.63644540001405;394.8281566000078;394.8445818000182;404.0111482999928;None;7;0;0.8393022999807727;404.0111482999928;None;;;;;;;;1;;;;;;405.56108330001007;None;None;None;[];405.56108330001007;None;"['7', '7', '7', '7']";"[0.2975055999995675, 0.5614423000079114, 0.8975869000132661, 1.2175336999935098]";405.56108330001007;None;;;S11446;2022_May_12_1839;VideoMask;2021.1.2;119.94103697010422;
8.0;m;008_y_m_s_a.jpg;sad;7.0;happy_29.1ns.avi;happy;9.0;incongruent;130.0;150.0;120.0316142834122;s_h;;;;;0;25;25;25;;;;;;;408.5611704000039;None;409.78583939999226;410.10256030000164;411.26093390001915;411.27760359999957;413.9275079999934;None;8;0;0.8511209999851417;413.9275079999934;None;;;;;;;;7;;;;;;415.47746580000967;None;None;None;[];415.47746580000967;None;"['9', '9']";"[0.3249684000038542, 0.8692077999876346]";415.47746580000967;None;;;S11446;2022_May_12_1839;VideoMask;2021.1.2;119.94103697010422;
6.0;m;016_y_m_s_a.jpg;sad;7.0;sad_8.3ns.avi;sad;7.0;congruent;130.0;160.0;152.85371098242734;s_s;;;;;0;26;26;26;;;;;;;418.4774866999942;None;420.0023233999964;420.31892330001574;421.4937962999975;421.51064409999526;429.210353100003;None;8;0;1.0163235000218265;429.210353100003;None;;;;;;;;2;;;;;;430.76032309999573;None;None;None;[];430.76032309999573;None;"['7', '7', '7']";"[0.5222516000212636, 0.9062015000090469, 1.7864826000004541]";430.76032309999573;None;;;S11446;2022_May_12_1839;VideoMask;2021.1.2;119.94103697010422;
6.0;m;016_y_m_h_a.jpg;happy;9.0;sad_114.1.wmv;sad;7.0;incongruent;120.0;160.0;136.20550699298644;h_s;;;;;0;27;27;27;;;;;;;433.760222300014;None;435.1184012000158;435.43514079999295;436.5684522000083;436.58538420000696;438.5685538999969;None;7;0;1.1700163999921642;438.5685538999969;None;;;;;;;;1;;;;;;440.11837569999625;None;None;None;[];440.11837569999625;None;"['7', '7', '7', '7', '7', '7']";"[0.5322277000232134, 0.8362861000059638, 1.0520669000106864, 1.3404683000117075, 1.7401344000245444, 2.1322120999975596]";440.11837569999625;None;;;S11446;2022_May_12_1839;VideoMask;2021.1.2;119.94103697010422;
7.0;m;027_o_m_s_a.jpg;sad;7.0;happy_117.3.wmv;happy;9.0;incongruent;130.0;150.0;215.61964028550614;s_h;;;;;0;28;28;28;;;;;;;443.11827949999133;None;445.13478930000565;445.4514201999991;446.5848307000124;446.6014957000152;448.5847481999954;None;8;0;0.7217932000057772;448.5847481999954;None;;;;;;;;4;;;;;;450.13476390001597;None;None;None;[];450.13476390001597;None;['7'];[1.1398705999890808];450.13476390001597;None;;;S11446;2022_May_12_1839;VideoMask;2021.1.2;119.94103697010422;
6.0;m;016_y_m_h_a.jpg;happy;9.0;happy_9.2ns.avi;happy;9.0;congruent;120.0;150.0;130.52042428082717;h_h;;;;;0;29;29;29;;;;;;;453.13472590001766;None;454.4595083000022;454.77620210000896;455.97624750001705;455.9928753999993;461.83434930001386;None;9;0;0.608158299990464;461.83434930001386;None;;;;;;;;7;;;;;;463.384343600017;None;None;None;[];463.384343600017;None;"['9', '9']";"[0.4981706000107806, 1.0666170000040438]";463.384343600017;None;;;S11446;2022_May_12_1839;VideoMask;2021.1.2;119.94103697010422;
0.0;f;040_y_f_s_a.jpg;sad;7.0;happy_127.3.wmv;happy;9.0;incongruent;130.0;150.0;131.7195455720239;s_h;;;;;0;30;30;30;;;;;;;466.39268099999754;None;467.70916379999835;468.0256572999933;469.1508671999909;469.1674994000059;471.2257353000168;None;None;0;;471.2257353000168;None;;;;;;;;5;;;;;;472.7756781000062;None;None;None;[];472.7756781000062;None;None;;472.7756781000062;None;;;S11446;2022_May_12_1839;VideoMask;2021.1.2;119.94103697010422;
0.0;f;030_o_f_s_a.jpg;sad;7.0;happy_125.3.wmv;happy;9.0;incongruent;130.0;150.0;220.51454909128134;s_h;;;;;0;31;31;31;;;;;;;475.80894780001836;None;477.8837058999925;478.20047139999224;479.3344422999944;479.35883979999926;481.33367270001327;None;9;0;0.8849687000038102;481.33367270001327;None;;;;;;;;5;;;;;;482.88370390000637;None;None;None;[];482.88370390000637;None;None;;482.88370390000637;None;;;S11446;2022_May_12_1839;VideoMask;2021.1.2;119.94103697010422;
0.0;f;030_o_f_s_a.jpg;sad;7.0;sad_64.3ns.avi;sad;7.0;congruent;130.0;160.0;165.78667874766072;s_s;;;;;0;32;32;32;;;;;;;485.9085415000154;None;487.5167261000024;487.83350120001705;488.98355699999956;489.0002070000046;493.9666999000183;None;8;0;1.0678864999790676;493.9666999000183;None;;;;;;;;4;;;;;;495.51666940000723;None;None;None;[];495.51666940000723;None;['7'];[1.2141732000163756];495.51666940000723;None;;;S11446;2022_May_12_1839;VideoMask;2021.1.2;119.94103697010422;
3.0;m;013_y_m_s_a.jpg;sad;7.0;sad_7.7ns.avi;sad;7.0;congruent;130.0;160.0;196.24182255763262;s_s;;;;;0;33;33;33;;;;;;;498.52496080001583;None;500.40807880001375;500.7248383999977;501.9080654999998;501.9247722;507.8669182000158;None;7;0;0.6798167999950238;507.8669182000158;None;;;;;;;;2;;;;;;509.4412230000016;None;None;None;[];509.4412230000016;None;"['7', '7', '7']";"[0.3853272999986075, 0.7454902000026777, 1.129380400001537]";509.4412230000016;None;;;S11446;2022_May_12_1839;VideoMask;2021.1.2;119.94103697010422;
3.0;m;013_y_m_h_a.jpg;happy;9.0;happy_9.1ns.avi;happy;9.0;congruent;120.0;150.0;165.1890303600433;h_h;;;;;0;34;34;34;;;;;;;512.4412649000005;None;514.0576436000119;514.3743627000076;515.5743495000061;515.591072900017;518.7409312000091;None;9;0;0.8058356000110507;518.7409312000091;None;;;;;;;;7;;;;;;520.2908998999919;None;None;None;[];520.2908998999919;None;"['9', '9']";"[0.5998816999781411, 1.311863099981565]";520.2908998999919;None;;;S11446;2022_May_12_1839;VideoMask;2021.1.2;119.94103697010422;
4.0;m;004_o_m_h_a.jpg;happy;9.0;sad_95.1ns.avi;sad;7.0;incongruent;120.0;160.0;152.68270002069931;h_s;;;;;0;35;35;35;;;;;;;523.2992665999918;None;524.8407748000172;525.1572474999994;526.457421500003;526.4737887000083;535.082192700007;None;7;0;0.8083536999765784;535.082192700007;None;;;;;;;;1;;;;;;536.6320726000122;None;None;None;[];536.6320726000122;None;"['7', '7', '7', '7', '7', '7']";"[0.2505263999919407, 0.48251970001729205, 0.7224401000130456, 1.0266424000146799, 1.4346669999940787, 1.7227178000030108]";536.6320726000122;None;;;S11446;2022_May_12_1839;VideoMask;2021.1.2;119.94103697010422;
3.0;m;013_y_m_h_a.jpg;happy;9.0;sad_113.2.wmv;sad;7.0;incongruent;120.0;160.0;217.4973891947951;h_s;;;;;0;36;36;36;;;;;;;539.6403448999918;None;541.681780200015;541.9985716000083;543.1235833000101;543.140147099999;545.1318087000109;None;8;0;1.43911800000933;545.1318087000109;None;;;;;;;;3;;;;;;546.681776500016;None;None;None;[];546.681776500016;None;"['7', '7']";"[0.3129213000065647, 0.6329895000089891]";546.681776500016;None;;;S11446;2022_May_12_1839;VideoMask;2021.1.2;119.94103697010422;
4.0;m;004_o_m_h_a.jpg;happy;9.0;happy_25.1ns.avi;happy;9.0;congruent;120.0;150.0;216.63044503818386;h_h;;;;;0;37;37;37;;;;;;;549.6901603000006;None;551.7315884999989;552.0482224000152;553.2399092999985;553.2572091000038;556.8732610000006;None;9;0;1.1133831999904942;556.8732610000006;None;;;;;;;;6;;;;;;558.4314124000084;None;None;None;[];558.4314124000084;None;['9'];[1.1714296000136528];558.4314124000084;None;;;S11446;2022_May_12_1839;VideoMask;2021.1.2;119.94103697010422;
4.0;m;004_o_m_s_a.jpg;sad;7.0;happy_131.2.wmv;happy;9.0;incongruent;130.0;150.0;181.38407540847405;s_h;;;;;0;38;38;38;;;;;;;561.431356599991;None;563.1561450000154;563.4728057000029;564.6060863000166;564.6226948999974;566.6060697000066;None;9;0;0.8446839000098407;566.6060697000066;None;;;;;;;;7;;;;;;568.181093399995;None;None;None;[];568.181093399995;None;"['9', '9', '9']";"[0.2857827999978326, 0.7976977000071201, 1.8378515999938827]";568.181093399995;None;;;S11446;2022_May_12_1839;VideoMask;2021.1.2;119.94103697010422;
0.0;f;040_y_f_h_a.jpg;happy;9.0;happy_24.3ns.avi;happy;9.0;congruent;120.0;150.0;213.25460698950434;h_h;;;;;0;39;39;39;;;;;;;571.1811514000001;None;573.1557841000031;573.4724902000162;574.6225959000003;574.6392296999984;576.5310141000082;None;9;0;0.7036363999941386;576.5310141000082;None;;;;;;;;7;;;;;;578.0891468000191;None;None;None;[];578.0891468000191;None;"['9', '9']";"[0.26557299998239614, 0.978049600002123]";578.0891468000191;None;;;S11446;2022_May_12_1839;VideoMask;2021.1.2;119.94103697010422;
2.0;f;012_o_f_s_a.jpg;sad;7.0;happy_139.1.wmv;happy;9.0;incongruent;130.0;150.0;162.31500468041804;s_h;;;;;0;40;40;40;;;;;;;581.0891130999953;None;582.6638283999928;582.9805551000172;584.1226670000178;584.1472504000121;586.1138102000114;None;9;0;0.5768540000135545;586.1138102000114;None;;;;;;;;8;;;;;;587.6637474000163;None;None;None;[];587.6637474000163;None;"['9', '9', '9']";"[0.9068553000106476, 1.4992087999999058, 1.9071065000025555]";587.6637474000163;None;;;S11446;2022_May_12_1839;VideoMask;2021.1.2;119.94103697010422;
0.0;f;030_o_f_h_a.jpg;happy;9.0;happy_24.1ns.avi;happy;9.0;congruent;120.0;150.0;168.36256624020774;h_h;;;;;0;41;41;41;;;;;;;590.6637409999967;None;592.2887081000081;592.6052672000078;593.764062000002;593.7890568000148;597.0635194999923;None;9;0;0.499108799995156;597.0635194999923;None;;;;;;;;8;;;;;;598.6134614000039;None;None;None;[];598.6134614000039;None;"['9', '9', '9', '9']";"[0.517084800027078, 0.8452535000105854, 1.1253884000179823, 1.4851885000243783]";598.6134614000039;None;;;S11446;2022_May_12_1839;VideoMask;2021.1.2;119.94103697010422;
2.0;f;012_o_f_h_a.jpg;happy;9.0;sad_113.1.wmv;sad;7.0;incongruent;120.0;160.0;177.44551734737394;h_s;;;;;0;42;42;42;;;;;;;601.6135475999909;None;603.3132803000044;603.6298774000024;604.7632309000182;604.7799682000186;606.7633285000047;None;8;0;1.015324400010286;606.7633285000047;None;;;;;;;;2;;;;;;608.3131935000129;None;None;None;[];608.3131935000129;None;"['7', '7', '7']";"[0.30553270000382327, 0.6576799000031315, 1.0976770000124816]";608.3131935000129;None;;;S11446;2022_May_12_1839;VideoMask;2021.1.2;119.94103697010422;
3.0;m;033_o_m_s_a.jpg;sad;7.0;sad_64.5ns.avi;sad;7.0;congruent;130.0;160.0;130.55717223801247;s_s;;;;;0;43;43;43;;;;;;;611.3215735999984;None;612.6547488000069;612.9713211999915;614.1130602000048;614.129688999994;620.6879578999942;None;7;0;0.4989144999999553;620.6879578999942;None;;;;;;;;1;;;;;;622.2377570999961;None;None;None;[];622.2377570999961;None;"['7', '7', '7', '7']";"[0.325164500012761, 0.5729544000059832, 0.8368974000040907, 1.1329602000187151]";622.2377570999961;None;;;S11446;2022_May_12_1839;VideoMask;2021.1.2;119.94103697010422;
7.0;m;027_o_m_h_a.jpg;happy;9.0;sad_117.1.wmv;sad;7.0;incongruent;120.0;160.0;181.28665202824095;h_s;;;;;0;44;44;44;;;;;;;625.2377763999975;None;626.9791739000066;627.2958119999967;628.4382087000122;628.470896200015;630.4291387000121;None;None;0;;630.4291387000121;None;;;;;;;;2;;;;;;631.9791790000163;None;None;None;[];631.9791790000163;None;"['7', '7', '7', '7']";"[0.6796089999843389, 0.9194357999949716, 1.1594908999977633, 1.4475629999942612]";631.9791790000163;None;;;S11446;2022_May_12_1839;VideoMask;2021.1.2;119.94103697010422;
3.0;m;033_o_m_s_a.jpg;sad;7.0;happy_126.3.wmv;happy;9.0;incongruent;130.0;150.0;198.85252030535366;s_h;;;;;0;45;45;45;;;;;;;634.9790945000132;None;636.8621866000176;637.1789134000137;638.3121905000007;638.3289454000187;640.3121882000123;None;9;0;0.4664794999989681;640.3121882000123;None;;;;;;;;7;;;;;;641.8621927000058;None;None;None;[];641.8621927000058;None;"['9', '9', '9']";"[0.2685897999908775, 0.636518299987074, 1.1166581000143196]";641.8621927000058;None;;;S11446;2022_May_12_1839;VideoMask;2021.1.2;119.94103697010422;
3.0;m;033_o_m_h_a.jpg;happy;9.0;sad_136.1.wmv;sad;7.0;incongruent;120.0;160.0;176.97002883463455;h_s;;;;;0;46;46;46;;;;;;;644.8620798999909;None;646.5702170000004;646.8868944999995;648.011940700002;648.0286114999908;650.0202256000193;None;7;0;0.830553100007819;650.0202256000193;None;;;;;;;;2;;;;;;651.5701905000024;None;None;None;[];651.5701905000024;None;"['7', '7', '7']";"[0.2804205000284128, 0.6163961000274867, 1.5925350000034086]";651.5701905000024;None;;;S11446;2022_May_12_1839;VideoMask;2021.1.2;119.94103697010422;
9.0;f;019_m_f_h_a.jpg;happy;9.0;happy_10.1ns.avi;happy;9.0;congruent;120.0;150.0;157.2463435658512;h_h;;;;;0;47;47;47;;;;;;;654.570220900001;None;656.1283584000194;656.4449136000185;657.6200485000154;657.6372561000171;665.0281102000154;None;9;0;0.694566299993312;665.0281102000154;None;;;;;;;;7;;;;;;666.5780458000081;None;None;None;[];666.5780458000081;None;"['9', '9', '9']";"[0.23303970001870766, 0.5606811000034213, 0.9286796000087634]";666.5780458000081;None;;;S11446;2022_May_12_1839;VideoMask;2021.1.2;119.94103697010422;
2.0;f;012_o_f_h_a.jpg;happy;9.0;happy_2.2ns.avi;happy;9.0;congruent;120.0;150.0;206.34800317295262;h_h;;;;;0;48;48;48;;;;;;;669.5863871000183;None;671.5694212999952;671.886173100007;673.0279423000175;673.0445112000161;685.2275806000107;None;9;0;0.719171099975938;685.2275806000107;None;;;;;;;;7;;;;;;686.7857054000197;None;None;None;[];686.7857054000197;None;"['9', '9']";"[0.5533708999864757, 1.0250208999786992]";686.7857054000197;None;;;S11446;2022_May_12_1839;VideoMask;2021.1.2;119.94103697010422;
3.0;m;033_o_m_h_a.jpg;happy;9.0;happy_24.2ns.avi;happy;9.0;congruent;120.0;150.0;167.9423847659953;h_h;;;;;0;49;49;49;;;;;;;689.7857233000104;None;691.4357101999922;691.7522078000184;692.9188567000092;692.9355424999958;696.6272395999986;None;9;0;0.4155596000200603;696.6272395999986;None;;;;;;;;7;;;;;;698.1853876000096;None;None;None;[];698.1853876000096;None;"['9', '9', '9']";"[0.32127960000070743, 0.7933456999890041, 1.2814369999978226]";698.1853876000096;None;;;S11446;2022_May_12_1839;VideoMask;2021.1.2;119.94103697010422;
1.0;f;021_o_f_s_a.jpg;sad;7.0;happy_61.2ns.avi;happy;9.0;incongruent;130.0;150.0;210.94664004826666;s_h;;;;;0;50;50;50;;;;;;;701.185341000004;None;703.1853241999925;703.5018369000172;704.6768932999985;704.6941223000176;709.1690946000163;None;8;0;0.4896411999943666;709.1690946000163;None;;;;;;;;6;;;;;;710.7600498000102;None;None;None;[];710.7600498000102;None;['9'];[0.4746811999939382];710.7600498000102;None;;;S11446;2022_May_12_1839;VideoMask;2021.1.2;119.94103697010422;
4.0;m;004_o_m_s_a.jpg;sad;7.0;sad_2.4ns.avi;sad;7.0;congruent;130.0;160.0;153.02079367163634;s_s;;;;;0;51;51;51;;;;;;;713.760039100016;None;715.2599076000042;715.5764827000094;716.7848874999909;716.8015250000171;724.6683562000107;None;7;0;0.574247499986086;724.6683562000107;None;;;;;;;;1;;;;;;726.4844545999949;None;None;None;[];726.4844545999949;None;"['7', '7', '7', '7']";"[0.3347267999779433, 0.5901034999988042, 1.0543226999870967, 1.398271299985936]";726.4844545999949;None;;;S11446;2022_May_12_1839;VideoMask;2021.1.2;119.94103697010422;
8.0;m;008_y_m_h_a.jpg;happy;9.0;happy_1.2ns.avi;happy;9.0;congruent;120.0;150.0;210.98946429383824;h_h;;;;;0;52;52;52;;;;;;;729.4844562000071;None;731.5341994000191;731.8509863000072;733.0427266000188;733.0593311999983;745.7755398000008;None;9;0;1.3553044000000227;745.7755398000008;None;;;;;;;;7;;;;;;747.3255307000072;None;None;None;[];747.3255307000072;None;"['9', '9']";"[0.5010354999976698, 1.4533136000100058]";747.3255307000072;None;;;S11446;2022_May_12_1839;VideoMask;2021.1.2;119.94103697010422;
2.0;f;012_o_f_s_a.jpg;sad;7.0;happy_52.2ns.avi;happy;9.0;incongruent;130.0;150.0;172.57202848318138;s_h;;;;;0;53;53;53;;;;;;;750.3338170000061;None;751.9918901000055;752.3086724000168;753.5587719000177;753.5757510999974;757.0002022999979;None;9;0;0.8187986999982968;757.0002022999979;None;;;;;;;;6;;;;;;758.5918901000114;None;None;None;[];758.5918901000114;None;['9'];[0.48288990001310594];758.5918901000114;None;;;S11446;2022_May_12_1839;VideoMask;2021.1.2;119.94103697010422;
9.0;f;019_m_f_s_a.jpg;sad;7.0;happy_61.1ns.avi;happy;9.0;incongruent;130.0;150.0;181.3003220572762;s_h;;;;;0;54;54;54;;;;;;;761.6002498000162;None;763.3834434000019;763.7000632999989;764.8333716999914;764.8500305000052;772.2248563000176;None;8;0;0.32233729999279603;772.2248563000176;None;;;;;;;;7;;;;;;773.7748138000024;None;None;None;[];773.7748138000024;None;"['9', '9']";"[0.372138000006089, 1.468000499997288]";773.7748138000024;None;;;S11446;2022_May_12_1839;VideoMask;2021.1.2;119.94103697010422;
0.0;f;030_o_f_h_a.jpg;happy;9.0;sad_133.1.wmv;sad;7.0;incongruent;120.0;160.0;198.86251500867985;h_s;;;;;0;55;55;55;;;;;;;776.783041799994;None;778.666217799997;778.9828643999936;780.1079507000104;780.1245578000089;782.116107800015;None;7;0;0.4786659000092186;782.116107800015;None;;;;;;;;2;;;;;;783.6661423000041;None;None;None;[];783.6661423000041;None;"['7', '7', '7']";"[0.31268490001093596, 0.5684460999909788, 0.8165077000157908]";783.6661423000041;None;;;S11446;2022_May_12_1839;VideoMask;2021.1.2;119.94103697010422;
0.0;f;040_y_f_h_a.jpg;happy;9.0;sad_128.2.wmv;sad;7.0;incongruent;120.0;160.0;206.10005857915363;h_s;;;;;0;56;56;56;;;;;;;786.6660407000163;None;788.6075099000009;788.9242240000167;790.0825546999986;790.0990442000038;792.0657848000119;None;7;0;0.5850049000000581;792.0657848000119;None;;;;;;;;1;;;;;;793.6157455999928;None;None;None;[];793.6157455999928;None;"['7', '7', '7', '7']";"[0.23499279998941347, 0.4509187999938149, 0.6989823999756481, 0.995110099989688]";793.6157455999928;None;;;S11446;2022_May_12_1839;VideoMask;2021.1.2;119.94103697010422;
1.0;f;021_o_f_s_a.jpg;sad;7.0;sad_9.5ns.avi;sad;7.0;congruent;130.0;160.0;206.16642757875042;s_s;;;;;0;57;57;57;;;;;;;796.6157814000035;None;798.5571252999944;798.8738477000152;800.074303100002;800.098742000002;805.7404659000167;None;7;0;0.7662669999990612;805.7404659000167;None;;;;;;;;1;;;;;;807.2903989000188;None;None;None;[];807.2903989000188;None;"['7', '7', '7', '7', '7']";"[0.2723777999926824, 0.5923233999928925, 0.9124395999824628, 1.3604616999800783, 1.704293199989479]";807.2903989000188;None;;;S11446;2022_May_12_1839;VideoMask;2021.1.2;119.94103697010422;
1.0;f;021_o_f_h_a.jpg;happy;9.0;happy_12.1ns.avi;happy;9.0;congruent;120.0;150.0;132.59080005900228;h_h;;;;;0;58;58;58;;;;;;;810.2902936000028;None;811.6401871000126;811.9568431999942;813.0816580000101;813.0985256000131;820.7067532000074;None;8;0;1.1118784999998752;820.7067532000074;None;;;;;;;;5;;;;;;822.273260899994;None;None;None;[];822.273260899994;None;['9'];[0.7854312999988906];822.273260899994;None;;;S11446;2022_May_12_1839;VideoMask;2021.1.2;119.94103697010422;
3.0;m;013_y_m_s_a.jpg;sad;7.0;happy_56.2ns.avi;happy;9.0;incongruent;130.0;150.0;163.39234110935848;s_h;;;;;0;59;59;59;;;;;;;825.2816700999974;None;826.864619;827.1813918999978;828.364536100009;828.3812245000154;833.339591099997;None;9;0;0.40719369999715127;833.339591099997;None;;;;;;;;8;;;;;;834.9145166999951;None;None;None;[];834.9145166999951;None;"['9', '9', '9']";"[0.36826319998363033, 0.8322427999810316, 1.2322479999857023]";834.9145166999951;None;;;S11446;2022_May_12_1839;VideoMask;2021.1.2;119.94103697010422;
;;;;;;;;;;;;;;;;;;;;;;;;;;;;;;;;;;;;;;;;;;;;;;;;;;;;;;;;;;;;;;;;837.9227822000103;None;;;;;;
