primePerson;primeGender;prime;primeEmotion;corrAnsPrime;target;targetEmotion;corrAnsTar;Cond;ID_Primer;ID_Target;JitterTime;Condition;example.thisRepN;example.thisTrialN;example.thisN;example.thisIndex;study.thisRepN;study.thisTrialN;study.thisN;study.thisIndex;MR_trigger_time;MR_trigger_number;text_intro.started;text_intro.stopped;text_probe.started;text_probe.stopped;polygon_ISI.started;polygon_ISI.stopped;polygon.started;polygon.stopped;primerImage.started;primerImage.stopped;response.started;response.stopped;key_resp.keys;key_resp.corr;key_resp.started;key_resp.stopped;slider_Text.started;slider_Text.stopped;slider_ex.response;slider_ex.rt;slider_ex.history;slider_ex.started;slider_ex.stopped;Rating;slider_resp_response.keys;slider_resp_response.started;slider_resp_response.stopped;text_start.started;text_start.stopped;text_slider.started;text_slider.stopped;slider_stud.response;slider_stud.rt;slider_stud.history;slider_stud.started;slider_stud.stopped;slider_resp_study.keys;slider_resp_study.rt;slider_resp_study.started;slider_resp_study.stopped;key_resp.rt;text_ende.started;text_ende.stopped;participant;date;expName;psychopyVersion;frameRate;
1111;m;1111_m_m_h_a.jpg;happy;9;example_30.4ns.avi;neutral;7;incongruent;120.0;170.0;189.5874364012288;;0;0;0;0;;;;;25.939296199998353;1;26.033648299984634;28.033644099952653;28.033644099952653;None;30.066938499978278;None;32.091972499969415;32.416878299962264;33.575131799967494;33.59186929999851;37.89171820000047;None;None;0;37.89171820000047;None;39.44148949999362;None;None;None;[];39.44148949999362;None;5;None;39.44148949999362;None;;;;;;;;;;;;;;;;;S11660;2022_Aug_15_1200;VideoMask;2021.1.2;120.03490613701925;
1113;f;1113_y_f_s_a.jpg;sad;7;example_30.3ns.avi;neutral;7;incongruent;130.0;170.0;229.02432995836998;;0;1;1;1;;;;;;;;;;;42.46652610000456;None;44.58300549996784;44.89967209997121;46.041324399993755;46.05812679999508;48.049693599983584;None;None;0;48.049693599983584;None;49.60783559997799;None;None;None;[];49.60783559997799;None;5;None;49.60783559997799;None;;;;;;;;;;;;;;;;;S11660;2022_Aug_15_1200;VideoMask;2021.1.2;120.03490613701925;
9.0;f;019_m_f_h_a.jpg;happy;9.0;sad_115.1.wmv;sad;7.0;incongruent;120.0;160.0;128.09063432376465;h_s;;;;;0;0;0;0;;;;;;;53.641222499951255;None;54.94101829995634;55.257710799982306;56.390890899987426;56.407750299957115;58.390857699967455;None;None;0;58.390857699967455;None;;;;;;;;3;;;;52.624372599995695;None;59.940980699961074;None;None;None;[];59.940980699961074;None;"['7', '7']";"[0.18367749999742955, 0.8794327000505291]";59.940980699961074;None;;;;S11660;2022_Aug_15_1200;VideoMask;2021.1.2;120.03490613701925;
3.0;m;033_o_m_s_a.jpg;sad;7.0;sad_94.2ns.avi;sad;7.0;congruent;130.0;160.0;182.29120173647655;s_s;;;;;0;1;1;1;;;;;;;62.94070350000402;None;64.69910269998945;65.01568859996041;66.18234619998839;66.19908150000265;68.84069759998238;None;7;0;68.84069759998238;None;;;;;;;;3;;;;;;70.39060649997555;None;None;None;[];70.39060649997555;None;"['7', '7', '7']";"[0.7979314000112936, 1.1422193000325933, 1.6700937999994494]";70.39060649997555;None;0.8278051000088453;;;S11660;2022_Aug_15_1200;VideoMask;2021.1.2;120.03490613701925;
8.0;m;008_y_m_h_a.jpg;happy;9.0;happy_26.1ns.avi;happy;9.0;congruent;120.0;150.0;155.9437854594882;h_h;;;;;0;2;2;2;;;;;;;73.39898169995286;None;74.92369289998896;75.24045199999819;76.37379419995705;76.39044729998568;78.36538839997957;None;9;0;78.36538839997957;None;;;;;;;;5;;;;;;79.91531079995912;None;None;None;[];79.91531079995912;None;None;;79.91531079995912;None;1.2711730999872088;;;S11660;2022_Aug_15_1200;VideoMask;2021.1.2;120.03490613701925;
0.0;f;040_y_f_h_a.jpg;happy;9.0;sad_138.1.wmv;sad;7.0;incongruent;120.0;160.0;133.99071306426532;h_s;;;;;0;3;3;3;;;;;;;82.94858079997357;None;84.27327089995379;84.58999319997383;85.71497329999693;85.73159159999341;87.72334889997728;None;7;0;87.72334889997728;None;;;;;;;;5;;;;;;89.27309189998778;None;None;None;[];89.27309189998778;None;['7'];[1.8354563000029884];89.27309189998778;None;1.3689732000348158;;;S11660;2022_Aug_15_1200;VideoMask;2021.1.2;120.03490613701925;
8.0;f;028_y_f_s_a.jpg;sad;7.0;sad_64.2ns.avi;sad;7.0;congruent;130.0;160.0;229.88540597086478;s_s;;;;;0;4;4;4;;;;;;;92.28165509999963;None;94.5148425999796;94.8314728999976;95.9647567999782;95.98133689997485;106.96432699996512;None;9;0;106.96432699996512;None;;;;;;;;3;;;;;;108.53093359997729;None;None;None;[];108.53093359997729;None;"['7', '7']";"[0.7294040999840945, 1.4253787000197917]";108.53093359997729;None;0.6561653999960981;;;S11660;2022_Aug_15_1200;VideoMask;2021.1.2;120.03490613701925;
7.0;m;027_o_m_s_a.jpg;sad;7.0;sad_10.4ns.avi;sad;7.0;congruent;130.0;160.0;185.20129417468752;s_s;;;;;0;5;5;5;;;;;;;111.53093979996629;None;113.28901000000769;113.60560289997375;114.83105819998309;114.847856999957;117.90587439999217;None;7;0;117.90587439999217;None;;;;;;;;3;;;;;;119.44733049999923;None;None;None;[];119.44733049999923;None;"['7', '7']";"[0.5970202999887988, 1.0133203000295907]";119.44733049999923;None;0.9065972000244074;;;S11660;2022_Aug_15_1200;VideoMask;2021.1.2;120.03490613701925;
2.0;f;012_o_f_s_a.jpg;sad;7.0;sad_7.5ns.avi;sad;7.0;congruent;130.0;160.0;220.27842655424388;s_s;;;;;0;6;6;6;;;;;;;122.44744249997893;None;124.80534849996911;125.12200529995607;126.29709790000925;126.31371570000192;129.04718399996636;None;7;0;129.04718399996636;None;;;;;;;;4;;;;;;130.59694909997052;None;None;None;[];130.59694909997052;None;['7'];[0.8156386999762617];130.59694909997052;None;0.7812240999774076;;;S11660;2022_Aug_15_1200;VideoMask;2021.1.2;120.03490613701925;
2.0;f;012_o_f_h_a.jpg;happy;9.0;happy_27.1ns.avi;happy;9.0;congruent;120.0;150.0;146.44967055810616;h_h;;;;;0;7;7;7;;;;;;;133.5969268999761;None;135.0384236999671;135.35505799995735;136.5130894999602;136.53003159997752;138.98000009998213;None;9;0;138.98000009998213;None;;;;;;;;6;;;;;;140.52996059996076;None;None;None;[];140.52996059996076;None;['9'];[0.6426446000114083];140.52996059996076;None;0.9285190999507904;;;S11660;2022_Aug_15_1200;VideoMask;2021.1.2;120.03490613701925;
8.0;f;028_y_f_h_a.jpg;happy;9.0;sad_119.1.wmv;sad;7.0;incongruent;120.0;160.0;148.71526953572538;h_s;;;;;0;8;8;8;;;;;;;143.5381566999713;None;145.00475219998043;145.3214640999795;146.45483219996095;146.47137159999693;148.52144639997277;None;7;0;148.52144639997277;None;;;;;;;;4;;;;;;150.07987429999048;None;None;None;[];150.07987429999048;None;['7'];[0.9326118000317365];150.07987429999048;None;1.0509630999877118;;;S11660;2022_Aug_15_1200;VideoMask;2021.1.2;120.03490613701925;
6.0;m;016_y_m_s_a.jpg;sad;7.0;happy_60.4ns.avi;happy;9.0;incongruent;130.0;150.0;126.02367393611817;s_h;;;;;0;9;9;9;;;;;;;153.07125949999318;None;154.3710295999772;154.68782319995807;155.871788199991;155.90440409997245;161.61259879998397;None;9;0;161.61259879998397;None;;;;;;;;5;;;;;;163.1625647000037;None;None;None;[];163.1625647000037;None;None;;163.1625647000037;None;1.2799204000039026;;;S11660;2022_Aug_15_1200;VideoMask;2021.1.2;120.03490613701925;
9.0;f;019_m_f_s_a.jpg;sad;7.0;sad_8.4ns.avi;sad;7.0;congruent;130.0;160.0;171.6633093155257;s_s;;;;;0;10;10;10;;;;;;;166.187347900006;None;167.8622250999906;168.17896439996548;169.38740249996772;169.40408049995312;177.4455825999612;None;7;0;177.4455825999612;None;;;;;;;;4;;;;;;178.99539409996942;None;None;None;[];178.99539409996942;None;['7'];[0.7449635000084527];178.99539409996942;None;0.7108104999642819;;;S11660;2022_Aug_15_1200;VideoMask;2021.1.2;120.03490613701925;
4.0;m;004_o_m_h_a.jpg;happy;9.0;happy_1.1ns.avi;happy;9.0;congruent;120.0;150.0;203.50057144619865;h_h;;;;;0;11;11;11;;;;;;;181.99531460000435;None;183.9786030999967;184.29517949995352;185.4535363999894;185.47026519995416;199.91962679999415;None;8;0;199.91962679999415;None;;;;;;;;5;;;;;;201.52795630000765;None;None;None;[];201.52795630000765;None;None;;201.52795630000765;None;1.4367575999931432;;;S11660;2022_Aug_15_1200;VideoMask;2021.1.2;120.03490613701925;
7.0;m;027_o_m_h_a.jpg;happy;9.0;happy_20.1ns.avi;happy;9.0;congruent;120.0;150.0;152.91127178874285;h_h;;;;;0;12;12;12;;;;;;;204.54442749998998;None;206.05271929997252;206.36954569997033;207.52781469997717;207.54448609997053;210.51931199996034;None;9;0;210.51931199996034;None;;;;;;;;6;;;;;;212.0692876999965;None;None;None;[];212.0692876999965;None;['9'];[1.6949822999886237];212.0692876999965;None;1.1490663000149652;;;S11660;2022_Aug_15_1200;VideoMask;2021.1.2;120.03490613701925;
0.0;f;040_y_f_s_a.jpg;sad;7.0;sad_94.3ns.avi;sad;7.0;congruent;130.0;160.0;155.27414203894395;s_s;;;;;0;13;13;13;;;;;;;215.0776245999732;None;216.58588849997614;216.9023193999892;218.06890169996768;218.08577279996825;220.6609163999674;None;7;0;220.6609163999674;None;;;;;;;;4;;;;;;222.21892369998386;None;None;None;[];222.21892369998386;None;"['7', '7']";"[1.2177301999763586, 2.7694833999848925]";222.21892369998386;None;1.2633275999687612;;;S11660;2022_Aug_15_1200;VideoMask;2021.1.2;120.03490613701925;
0.0;f;030_o_f_s_a.jpg;sad;7.0;sad_68.1ns.avi;sad;7.0;congruent;130.0;160.0;158.9411396037211;s_s;;;;;0;14;14;14;;;;;;;225.2189613999799;None;226.7769460999989;227.10227199998917;228.29377250000834;228.31031619996065;235.65179380000336;None;None;0;235.65179380000336;None;;;;;;;;4;;;;;;237.21827279997524;None;None;None;[];237.21827279997524;None;"['7', '7', '9']";"[14.92149320000317, 1.4661237999680452, 2.202229199989233]";237.21827279997524;None;;;;S11660;2022_Aug_15_1200;VideoMask;2021.1.2;120.03490613701925;
0.0;f;030_o_f_h_a.jpg;happy;9.0;sad_127.1.wmv;sad;7.0;incongruent;120.0;160.0;180.59976631384873;h_s;;;;;0;15;15;15;;;;;;;240.20179349998944;None;241.91817359998822;242.23501159995794;243.36821039998904;243.3851735999924;245.36820450000232;None;None;0;245.36820450000232;None;;;;;;;;4;;;;;;246.9181985000032;None;None;None;[];246.9181985000032;None;['7'];[1.3741290000034496];246.9181985000032;None;;;;S11660;2022_Aug_15_1200;VideoMask;2021.1.2;120.03490613701925;
8.0;m;008_y_m_s_a.jpg;sad;7.0;happy_133.3.wmv;happy;9.0;incongruent;130.0;150.0;152.577966552593;s_h;;;;;0;16;16;16;;;;;;;249.91807909996714;None;251.426233999955;251.74300029996084;252.86801839998225;252.8845808999613;254.87620639998931;None;None;0;254.87620639998931;None;;;;;;;;5;;;;;;256.42621889995644;None;None;None;[];256.42621889995644;None;None;;256.42621889995644;None;;;;S11660;2022_Aug_15_1200;VideoMask;2021.1.2;120.03490613701925;
3.0;m;033_o_m_h_a.jpg;happy;9.0;sad_128.1.wmv;sad;7.0;incongruent;120.0;160.0;171.0492454518585;h_s;;;;;0;17;17;17;;;;;;;259.450919099967;None;261.1008901000023;261.4175886999583;262.55922469997313;262.575996199972;264.55083469999954;None;None;0;264.55083469999954;None;;;;;;;;5;;;;;;266.10073289996944;None;None;None;[];266.10073289996944;None;None;;266.10073289996944;None;;;;S11660;2022_Aug_15_1200;VideoMask;2021.1.2;120.03490613701925;
1.0;f;021_o_f_h_a.jpg;happy;9.0;sad_116.1.wmv;sad;7.0;incongruent;120.0;160.0;184.06847610053055;h_s;;;;;0;18;18;18;;;;;;;269.134126799996;None;270.8838754000026;271.2005221999716;272.3423323999741;272.3589006999973;274.33377539995126;None;7;0;274.33377539995126;None;;;;;;;;4;;;;;;275.88390389998676;None;None;None;[];275.88390389998676;None;['7'];[0.7844402000191621];275.88390389998676;None;0.9106045999797061;;;S11660;2022_Aug_15_1200;VideoMask;2021.1.2;120.03490613701925;
4.0;m;004_o_m_s_a.jpg;sad;7.0;happy_28.1ns.avi;happy;9.0;incongruent;130.0;150.0;157.40741103039684;s_h;;;;;0;19;19;19;;;;;;;278.8921219999902;None;280.44209329999285;280.7586990999989;281.99188589997357;282.00870289996965;286.28354370000307;None;9;0;286.28354370000307;None;;;;;;;;7;;;;;;287.82518469996285;None;None;None;[];287.82518469996285;None;"['9', '9']";"[0.659270399948582, 1.2910789999878034]";287.82518469996285;None;0.8807131000212394;;;S11660;2022_Aug_15_1200;VideoMask;2021.1.2;120.03490613701925;
8.0;f;028_y_f_s_a.jpg;sad;7.0;happy_122.3.wmv;happy;9.0;incongruent;130.0;150.0;171.8670540936116;s_h;;;;;0;20;20;20;;;;;;;290.8251624999684;None;292.4832712999778;292.7999048999627;293.94148999999743;293.95814549998613;295.9332044000039;None;9;0;295.9332044000039;None;;;;;;;;6;;;;;;297.6497567999759;None;None;None;[];297.6497567999759;None;['9'];[0.5064809999894351];297.6497567999759;None;1.135319699998945;;;S11660;2022_Aug_15_1200;VideoMask;2021.1.2;120.03490613701925;
8.0;m;008_y_m_s_a.jpg;sad;7.0;sad_6.5ns.avi;sad;7.0;congruent;130.0;160.0;170.39333839271438;s_s;;;;;0;21;21;21;;;;;;;300.64978759997757;None;302.30789529997855;302.62460759998066;303.83290039998246;303.84949439996853;308.7661473999615;None;7;0;308.7661473999615;None;;;;;;;;4;;;;;;310.31602759996895;None;None;None;[];310.31602759996895;None;['7'];[0.8242966000107117];310.31602759996895;None;1.261904900020454;;;S11660;2022_Aug_15_1200;VideoMask;2021.1.2;120.03490613701925;
8.0;f;028_y_f_h_a.jpg;happy;9.0;happy_23.1ns.avi;happy;9.0;congruent;120.0;150.0;225.70986890587952;h_h;;;;;0;22;22;22;;;;;;;313.31605039996793;None;315.40746359998593;315.7241168000037;316.85752729995875;316.87413859996013;321.4325065999874;None;9;0;321.4325065999874;None;;;;;;;;7;;;;;;323.0073534999974;None;None;None;[];323.0073534999974;None;"['9', '9']";"[0.5968623000080697, 1.2528289000038058]";323.0073534999974;None;0.6919251000508666;;;S11660;2022_Aug_15_1200;VideoMask;2021.1.2;120.03490613701925;
8.0;m;008_y_m_h_a.jpg;happy;9.0;sad_111.1.wmv;sad;7.0;incongruent;120.0;160.0;152.63076835312847;h_s;;;;;0;23;23;23;;;;;;;326.0072830999852;None;327.52378899999894;327.84059209999396;328.97359660000075;328.99026679998497;330.97374849999323;None;7;0;330.97374849999323;None;;;;;;;;5;;;;;;332.51537370000733;None;None;None;[];332.51537370000733;None;None;;332.51537370000733;None;0.9105239000055008;;;S11660;2022_Aug_15_1200;VideoMask;2021.1.2;120.03490613701925;
0.0;f;040_y_f_s_a.jpg;sad;7.0;sad_67.2ns.avi;sad;7.0;congruent;130.0;160.0;220.9892697323079;s_s;;;;;0;24;24;24;;;;;;;335.5317245000042;None;337.64026859996375;337.965652999992;339.1401431999984;339.1567907999852;348.3148627000046;None;7;0;348.3148627000046;None;;;;;;;;3;;;;;;349.8647619999829;None;None;None;[];349.8647619999829;None;"['7', '7']";"[0.49943399999756366, 0.9234006000333466]";349.8647619999829;None;0.5613178000203334;;;S11660;2022_Aug_15_1200;VideoMask;2021.1.2;120.03490613701925;
8.0;m;008_y_m_s_a.jpg;sad;7.0;happy_29.1ns.avi;happy;9.0;incongruent;130.0;150.0;120.0316142834122;s_h;;;;;0;25;25;25;;;;;;;352.8648019999964;None;354.0978635000065;354.41457129997434;355.57288799999515;355.5895709999604;358.2395626999787;None;9;0;358.2395626999787;None;;;;;;;;5;;;;;;359.79783920000773;None;None;None;[];359.79783920000773;None;None;;359.79783920000773;None;0.9886119000148028;;;S11660;2022_Aug_15_1200;VideoMask;2021.1.2;120.03490613701925;
6.0;m;016_y_m_s_a.jpg;sad;7.0;sad_8.3ns.avi;sad;7.0;congruent;130.0;160.0;152.85371098242734;s_s;;;;;0;26;26;26;;;;;;;362.8229263999965;None;364.3476075999788;364.6643105999683;365.8557010999648;365.87240659998497;373.56396810000297;None;7;0;373.56396810000297;None;;;;;;;;4;;;;;;375.16399919998366;None;None;None;[];375.16399919998366;None;"['7', '7']";"[0.5441145999939181, 1.2960496000014246]";375.16399919998366;None;0.7680815000203438;;;S11660;2022_Aug_15_1200;VideoMask;2021.1.2;120.03490613701925;
6.0;m;016_y_m_h_a.jpg;happy;9.0;sad_114.1.wmv;sad;7.0;incongruent;120.0;160.0;136.20550699298644;h_s;;;;;0;27;27;27;;;;;;;378.1638288999675;None;379.5137880999828;379.83063300000504;380.9555030000047;380.972120099992;382.9636899000034;None;7;0;382.9636899000034;None;;;;;;;;4;;;;;;384.5719872000045;None;None;None;[];384.5719872000045;None;['7'];[0.6562231999705546];384.5719872000045;None;0.6563088999828324;;;S11660;2022_Aug_15_1200;VideoMask;2021.1.2;120.03490613701925;
7.0;m;027_o_m_s_a.jpg;sad;7.0;happy_117.3.wmv;happy;9.0;incongruent;130.0;150.0;215.61964028550614;s_h;;;;;0;28;28;28;;;;;;;387.5719123999588;None;389.58008439996047;389.8967362999683;391.0218219999806;391.03846179996617;393.029970899981;None;None;0;393.029970899981;None;;;;;;;;5;;;;;;394.5798239999567;None;None;None;[];394.5798239999567;None;None;;394.5798239999567;None;;;;S11660;2022_Aug_15_1200;VideoMask;2021.1.2;120.03490613701925;
6.0;m;016_y_m_h_a.jpg;happy;9.0;happy_9.2ns.avi;happy;9.0;congruent;120.0;150.0;130.52042428082717;h_h;;;;;0;29;29;29;;;;;;;397.6049303999753;None;398.9465292999521;399.26319799997145;400.388814899954;400.42192009999417;406.3211429999792;None;9;0;406.3211429999792;None;;;;;;;;6;;;;;;408.0543212000048;None;None;None;[];408.0543212000048;None;"['9', '9']";"[0.6858380999765359, 1.4218470000196248]";408.0543212000048;None;1.0109513999777846;;;S11660;2022_Aug_15_1200;VideoMask;2021.1.2;120.03490613701925;
0.0;f;040_y_f_s_a.jpg;sad;7.0;happy_127.3.wmv;happy;9.0;incongruent;130.0;150.0;131.7195455720239;s_h;;;;;0;30;30;30;;;;;;;411.0544062999543;None;412.3626160999993;412.67929000000004;413.8126859999611;413.8293461999856;415.8792236999725;None;9;0;415.8792236999725;None;;;;;;;;6;;;;;;417.42924179998226;None;None;None;[];417.42924179998226;None;['9'];[1.5191143000265583];417.42924179998226;None;0.7728445999673568;;;S11660;2022_Aug_15_1200;VideoMask;2021.1.2;120.03490613701925;
0.0;f;030_o_f_s_a.jpg;sad;7.0;happy_125.3.wmv;happy;9.0;incongruent;130.0;150.0;220.51454909128134;s_h;;;;;0;31;31;31;;;;;;;420.4376468999544;None;422.4956223999616;422.81222149997484;423.95394789997954;423.9705710999551;425.94563400000334;None;9;0;425.94563400000334;None;;;;;;;;6;;;;;;427.4955074999598;None;None;None;[];427.4955074999598;None;"['9', '9']";"[1.0765288000111468, 1.844637000001967]";427.4955074999598;None;1.186369700008072;;;S11660;2022_Aug_15_1200;VideoMask;2021.1.2;120.03490613701925;
0.0;f;030_o_f_s_a.jpg;sad;7.0;sad_64.3ns.avi;sad;7.0;congruent;130.0;160.0;165.78667874766072;s_s;;;;;0;32;32;32;;;;;;;430.5038140999968;None;432.11202549998416;432.42870649998076;433.5953354999656;433.61203509999905;438.56198090000544;None;7;0;438.56198090000544;None;;;;;;;;3;;;;;;440.3118270999985;None;None;None;[];440.3118270999985;None;"['7', '7']";"[0.6201792999636382, 1.0363638999988325]";440.3118270999985;None;0.8340793999959715;;;S11660;2022_Aug_15_1200;VideoMask;2021.1.2;120.03490613701925;
3.0;m;013_y_m_s_a.jpg;sad;7.0;sad_7.7ns.avi;sad;7.0;congruent;130.0;160.0;196.24182255763262;s_s;;;;;0;33;33;33;;;;;;;443.31171360000735;None;445.18648849998135;445.5032410999993;446.6531358999782;446.6699300999753;452.64463900000555;None;7;0;452.64463900000555;None;;;;;;;;3;;;;;;454.36969490000047;None;None;None;[];454.36969490000047;None;"['7', '7']";"[0.5863652999978513, 1.1145023999852128]";454.36969490000047;None;0.7513418000307865;;;S11660;2022_Aug_15_1200;VideoMask;2021.1.2;120.03490613701925;
3.0;m;013_y_m_h_a.jpg;happy;9.0;happy_9.1ns.avi;happy;9.0;congruent;120.0;150.0;165.1890303600433;h_h;;;;;0;34;34;34;;;;;;;457.37810219998937;None;458.97788879997097;459.2944252999732;460.45284849999007;460.46935729996767;463.6526865999913;None;9;0;463.6526865999913;None;;;;;;;;5;;;;;;465.2026780999731;None;None;None;[];465.2026780999731;None;None;;465.2026780999731;None;0.7512905999901704;;;S11660;2022_Aug_15_1200;VideoMask;2021.1.2;120.03490613701925;
4.0;m;004_o_m_h_a.jpg;happy;9.0;sad_95.1ns.avi;sad;7.0;incongruent;120.0;160.0;152.68270002069931;h_s;;;;;0;35;35;35;;;;;;;468.2273878999986;None;469.76917589997174;470.0857713999576;471.3190595000051;471.33615109999664;480.0105984999682;None;7;0;480.0105984999682;None;;;;;;;;4;;;;;;481.5604559999774;None;None;None;[];481.5604559999774;None;['7'];[0.5956004000036046];481.5604559999774;None;0.8573907999671064;;;S11660;2022_Aug_15_1200;VideoMask;2021.1.2;120.03490613701925;
3.0;m;013_y_m_h_a.jpg;happy;9.0;sad_113.2.wmv;sad;7.0;incongruent;120.0;160.0;217.4973891947951;h_s;;;;;0;36;36;36;;;;;;;484.56035169999814;None;486.601808300009;486.9184835999622;488.04366510000546;488.060179699969;490.05228249996435;None;8;0;490.05228249996435;None;;;;;;;;5;;;;;;491.79348120000213;None;None;None;[];491.79348120000213;None;None;;491.79348120000213;None;1.455775199981872;;;S11660;2022_Aug_15_1200;VideoMask;2021.1.2;120.03490613701925;
4.0;m;004_o_m_h_a.jpg;happy;9.0;happy_25.1ns.avi;happy;9.0;congruent;120.0;150.0;216.63044503818386;h_h;;;;;0;37;37;37;;;;;;;494.82671529997606;None;496.8515031999559;497.1683414999861;498.32670109998435;498.3431279999786;501.99312159995316;None;9;0;501.99312159995316;None;;;;;;;;6;;;;;;503.5431084999582;None;None;None;[];503.5431084999582;None;['9'];[0.5087564999703318];503.5431084999582;None;0.8669186999904923;;;S11660;2022_Aug_15_1200;VideoMask;2021.1.2;120.03490613701925;
4.0;m;004_o_m_s_a.jpg;sad;7.0;happy_131.2.wmv;happy;9.0;incongruent;130.0;150.0;181.38407540847405;s_h;;;;;0;38;38;38;;;;;;;506.55132319999393;None;508.2929462000029;508.60950159997446;509.75100889999885;509.7678937999881;511.74277389998315;None;9;0;511.74277389998315;None;;;;;;;;5;;;;;;513.2927781000035;None;None;None;[];513.2927781000035;None;None;;513.2927781000035;None;1.325343200005591;;;S11660;2022_Aug_15_1200;VideoMask;2021.1.2;120.03490613701925;
0.0;f;040_y_f_h_a.jpg;happy;9.0;happy_24.3ns.avi;happy;9.0;congruent;120.0;150.0;213.25460698950434;h_h;;;;;0;39;39;39;;;;;;;516.3259586999775;None;518.3175572999753;518.634138799971;519.78427189996;519.8008669999545;521.6925386000075;None;None;0;521.6925386000075;None;;;;;;;;5;;;;;;523.2424800999579;None;None;None;[];523.2424800999579;None;None;;523.2424800999579;None;;;;S11660;2022_Aug_15_1200;VideoMask;2021.1.2;120.03490613701925;
2.0;f;012_o_f_s_a.jpg;sad;7.0;happy_139.1.wmv;happy;9.0;incongruent;130.0;150.0;162.31500468041804;s_h;;;;;0;40;40;40;;;;;;;526.2756985999877;None;527.8504737999756;528.1672730999999;529.3004745999933;529.3170986999758;531.308894799964;None;9;0;531.308894799964;None;;;;;;;;6;;;;;;532.8671238999814;None;None;None;[];532.8671238999814;None;['9'];[0.536817800020799];532.8671238999814;None;0.9270465000299737;;;S11660;2022_Aug_15_1200;VideoMask;2021.1.2;120.03490613701925;
0.0;f;030_o_f_h_a.jpg;happy;9.0;happy_24.1ns.avi;happy;9.0;congruent;120.0;150.0;168.36256624020774;h_h;;;;;0;41;41;41;;;;;;;535.867007999972;None;537.491858399997;537.8086026999517;539.0168456999818;539.0419268999831;542.2668335000053;None;9;0;542.2668335000053;None;;;;;;;;6;;;;;;543.8167612999678;None;None;None;[];543.8167612999678;None;['9'];[0.4912280999706127];543.8167612999678;None;0.7289954000152647;;;S11660;2022_Aug_15_1200;VideoMask;2021.1.2;120.03490613701925;
2.0;f;012_o_f_h_a.jpg;happy;9.0;sad_113.1.wmv;sad;7.0;incongruent;120.0;160.0;177.44551734737394;h_s;;;;;0;42;42;42;;;;;;;546.8250856999657;None;548.5165209999541;548.8332124999724;549.9662989999633;549.9832595000044;551.9664555999916;None;7;0;551.9664555999916;None;;;;;;;;4;;;;;;553.5164604999591;None;None;None;[];553.5164604999591;None;['7'];[0.5673849000013433];553.5164604999591;None;0.685447700030636;;;S11660;2022_Aug_15_1200;VideoMask;2021.1.2;120.03490613701925;
3.0;m;033_o_m_s_a.jpg;sad;7.0;sad_64.5ns.avi;sad;7.0;congruent;130.0;160.0;130.55717223801247;s_s;;;;;0;43;43;43;;;;;;;556.5163923999644;None;557.8579862999613;558.1746189999976;559.341331499978;559.3579067999963;565.8992773999926;None;7;0;565.8992773999926;None;;;;;;;;2;;;;;;567.7660045999801;None;None;None;[];567.7660045999801;None;"['7', '7', '7']";"[0.5338913000305183, 1.0138476000283845, 1.6538679000223055]";567.7660045999801;None;0.7769112000241876;;;S11660;2022_Aug_15_1200;VideoMask;2021.1.2;120.03490613701925;
7.0;m;027_o_m_h_a.jpg;happy;9.0;sad_117.1.wmv;sad;7.0;incongruent;120.0;160.0;181.28665202824095;h_s;;;;;0;44;44;44;;;;;;;570.7742253000033;None;572.507389299979;572.8240324999788;573.9831390999607;574.0077505999943;575.9573893999914;None;7;0;575.9573893999914;None;;;;;;;;3;;;;;;577.5073220999911;None;None;None;[];577.5073220999911;None;"['7', '7']";"[0.6246114000095986, 1.568791700003203]";577.5073220999911;None;0.7186182000441477;;;S11660;2022_Aug_15_1200;VideoMask;2021.1.2;120.03490613701925;
3.0;m;033_o_m_s_a.jpg;sad;7.0;happy_126.3.wmv;happy;9.0;incongruent;130.0;150.0;198.85252030535366;s_h;;;;;0;45;45;45;;;;;;;580.5156549999956;None;582.3904050999554;582.7070832999889;583.8485958999954;583.865477299958;585.8487647000002;None;None;0;585.8487647000002;None;;;;;;;;6;;;;;;587.4070342999767;None;None;None;[];587.4070342999767;None;['9'];[0.908879499998875];587.4070342999767;None;;;;S11660;2022_Aug_15_1200;VideoMask;2021.1.2;120.03490613701925;
3.0;m;033_o_m_h_a.jpg;happy;9.0;sad_136.1.wmv;sad;7.0;incongruent;120.0;160.0;176.97002883463455;h_s;;;;;0;46;46;46;;;;;;;590.4068936999538;None;592.0983888999908;592.4150201999582;593.5402162999962;593.5567373000085;595.5483904999564;None;None;0;595.5483904999564;None;;;;;;;;4;;;;;;597.1567023999523;None;None;None;[];597.1567023999523;None;['7'];[0.3511475000414066];597.1567023999523;None;;;;S11660;2022_Aug_15_1200;VideoMask;2021.1.2;120.03490613701925;
9.0;f;019_m_f_h_a.jpg;happy;9.0;happy_10.1ns.avi;happy;9.0;congruent;120.0;150.0;157.2463435658512;h_h;;;;;0;47;47;47;;;;;;;600.1649832999683;None;601.7480912999599;602.0648300999892;603.1981711999979;603.2155249000061;610.6479000999825;None;9;0;610.6479000999825;None;;;;;;;;6;;;;;;612.1978648999939;None;None;None;[];612.1978648999939;None;['9'];[1.3663758999900892];612.1978648999939;None;0.9959623000468127;;;S11660;2022_Aug_15_1200;VideoMask;2021.1.2;120.03490613701925;
2.0;f;012_o_f_h_a.jpg;happy;9.0;happy_2.2ns.avi;happy;9.0;congruent;120.0;150.0;206.34800317295262;h_h;;;;;0;48;48;48;;;;;;;615.1978491999907;None;617.2060584999854;617.5226881999988;618.6809356999584;618.6976309999591;630.8556763000088;None;8;0;630.8556763000088;None;;;;;;;;5;;;;;;632.4055272999685;None;None;None;[];632.4055272999685;None;None;;632.4055272999685;None;1.1160522000282072;;;S11660;2022_Aug_15_1200;VideoMask;2021.1.2;120.03490613701925;
3.0;m;033_o_m_h_a.jpg;happy;9.0;happy_24.2ns.avi;happy;9.0;congruent;120.0;150.0;167.9423847659953;h_h;;;;;0;49;49;49;;;;;;;635.4304354999913;None;637.0469072999549;637.3635095999925;638.513656599971;638.5302328999969;642.2219517999911;None;9;0;642.2219517999911;None;;;;;;;;5;;;;;;643.7717601999757;None;None;None;[];643.7717601999757;None;None;;643.7717601999757;None;0.7657935000024736;;;S11660;2022_Aug_15_1200;VideoMask;2021.1.2;120.03490613701925;
1.0;f;021_o_f_s_a.jpg;sad;7.0;happy_61.2ns.avi;happy;9.0;incongruent;130.0;150.0;210.94664004826666;s_h;;;;;0;50;50;50;;;;;;;646.7966403999599;None;648.7882715999731;649.1049736999557;650.2382014999748;650.2549517999869;654.7631400999962;None;9;0;654.7631400999962;None;;;;;;;;7;;;;;;656.3130867999862;None;None;None;[];656.3130867999862;None;"['9', '9']";"[0.4746403000317514, 1.0586218000389636]";656.3130867999862;None;0.7209549000253901;;;S11660;2022_Aug_15_1200;VideoMask;2021.1.2;120.03490613701925;
4.0;m;004_o_m_s_a.jpg;sad;7.0;sad_2.4ns.avi;sad;7.0;congruent;130.0;160.0;153.02079367163634;s_s;;;;;0;51;51;51;;;;;;;659.3129796999856;None;660.8210815999773;661.1378322999808;662.3383041999768;662.3629208999919;670.2377178999595;None;7;0;670.2377178999595;None;;;;;;;;3;;;;;;671.7959181999904;None;None;None;[];671.7959181999904;None;"['7', '7', '7']";"[0.6479207000229508, 1.0799014000222087, 1.511836800025776]";671.7959181999904;None;0.7020895999739878;;;S11660;2022_Aug_15_1200;VideoMask;2021.1.2;120.03490613701925;
8.0;m;008_y_m_h_a.jpg;happy;9.0;happy_1.2ns.avi;happy;9.0;congruent;120.0;150.0;210.98946429383824;h_h;;;;;0;52;52;52;;;;;;;674.8042225999525;None;676.8622331999941;677.1790195999783;678.3206142999697;678.3373000999563;691.1037281999597;None;9;0;691.1037281999597;None;;;;;;;;5;;;;;;692.8785212999792;None;None;None;[];692.8785212999792;None;None;;692.8785212999792;None;0.8758890000171959;;;S11660;2022_Aug_15_1200;VideoMask;2021.1.2;120.03490613701925;
2.0;f;012_o_f_s_a.jpg;sad;7.0;happy_52.2ns.avi;happy;9.0;incongruent;130.0;150.0;172.57202848318138;s_h;;;;;0;53;53;53;;;;;;;695.9118000000017;None;697.5783662999747;697.8950298999553;699.053356599994;699.0699775999528;702.5784380999976;None;9;0;702.5784380999976;None;;;;;;;;6;;;;;;704.1281836999697;None;None;None;[];704.1281836999697;None;['9'];[0.5474878999521025];704.1281836999697;None;1.169264500029385;;;S11660;2022_Aug_15_1200;VideoMask;2021.1.2;120.03490613701925;
9.0;f;019_m_f_s_a.jpg;sad;7.0;happy_61.1ns.avi;happy;9.0;incongruent;130.0;150.0;181.3003220572762;s_h;;;;;0;54;54;54;;;;;;;707.1370890999679;None;708.9197155999718;709.236261699989;710.4370048999554;710.4698186999885;717.7613078999566;None;9;0;717.7613078999566;None;;;;;;;;5;;;;;;719.3360065000015;None;None;None;[];719.3360065000015;None;None;;719.3360065000015;None;1.2423493000096641;;;S11660;2022_Aug_15_1200;VideoMask;2021.1.2;120.03490613701925;
0.0;f;030_o_f_h_a.jpg;happy;9.0;sad_133.1.wmv;sad;7.0;incongruent;120.0;160.0;198.86251500867985;h_s;;;;;0;55;55;55;;;;;;;722.3609266999993;None;724.235718299984;724.5524916999857;725.6775280999718;725.6940871999832;727.6857910999679;None;7;0;727.6857910999679;None;;;;;;;;5;;;;;;729.2355883999844;None;None;None;[];729.2355883999844;None;None;;729.2355883999844;None;1.1501137999584898;;;S11660;2022_Aug_15_1200;VideoMask;2021.1.2;120.03490613701925;
0.0;f;040_y_f_h_a.jpg;happy;9.0;sad_128.2.wmv;sad;7.0;incongruent;120.0;160.0;206.10005857915363;h_s;;;;;0;56;56;56;;;;;;;732.2604273000034;None;734.1937779999571;734.510264099983;735.6519519999856;735.6688179000048;737.6604332999559;None;7;0;737.6604332999559;None;;;;;;;;4;;;;;;739.2020270999637;None;None;None;[];739.2020270999637;None;['7'];[0.681657399982214];739.2020270999637;None;1.1352723000454716;;;S11660;2022_Aug_15_1200;VideoMask;2021.1.2;120.03490613701925;
1.0;f;021_o_f_s_a.jpg;sad;7.0;sad_9.5ns.avi;sad;7.0;congruent;130.0;160.0;206.16642757875042;s_s;;;;;0;57;57;57;;;;;;;742.2101754999603;None;744.1433856000076;744.4601906999596;745.635870099999;745.6602228999836;751.318394300004;None;7;0;751.318394300004;None;;;;;;;;5;;;;;;752.8682744999533;None;None;None;[];752.8682744999533;None;None;;752.8682744999533;None;1.3172878000186756;;;S11660;2022_Aug_15_1200;VideoMask;2021.1.2;120.03490613701925;
1.0;f;021_o_f_h_a.jpg;happy;9.0;happy_12.1ns.avi;happy;9.0;congruent;120.0;150.0;132.59080005900228;h_h;;;;;0;58;58;58;;;;;;;755.9014708999894;None;757.2680825999705;757.5847257999703;758.7511377999908;758.7680821999675;766.3346115999739;None;9;0;766.3346115999739;None;;;;;;;;6;;;;;;767.9010332999751;None;None;None;[];767.9010332999751;None;['9'];[0.7746507000410929];767.9010332999751;None;1.1250999000039883;;;S11660;2022_Aug_15_1200;VideoMask;2021.1.2;120.03490613701925;
3.0;m;013_y_m_s_a.jpg;sad;7.0;happy_56.2ns.avi;happy;9.0;incongruent;130.0;150.0;163.39234110935848;s_h;;;;;0;59;59;59;;;;;;;770.9011568999849;None;772.4928394999588;772.8091864999733;773.9673163999687;773.9842046999838;778.9675132999546;None;9;0;778.9675132999546;None;;;;;;;;5;;;;;;780.5173442999949;None;None;None;[];780.5173442999949;None;None;;780.5173442999949;None;0.8921290999860503;;;S11660;2022_Aug_15_1200;VideoMask;2021.1.2;120.03490613701925;
;;;;;;;;;;;;;;;;;;;;;;;;;;;;;;;;;;;;;;;;;;;;;;;;;;;;;;;;;;;;;;;;783.5506284000003;None;;;;;;
