primePerson;primeGender;prime;primeEmotion;corrAnsPrime;target;targetEmotion;corrAnsTar;Cond;ID_Primer;ID_Target;JitterTime;Condition;example.thisRepN;example.thisTrialN;example.thisN;example.thisIndex;study.thisRepN;study.thisTrialN;study.thisN;study.thisIndex;MR_trigger_time;MR_trigger_number;text_intro.started;text_intro.stopped;text_probe.started;text_probe.stopped;polygon_ISI.started;polygon_ISI.stopped;polygon.started;polygon.stopped;primerImage.started;primerImage.stopped;response.started;response.stopped;key_resp.keys;key_resp.corr;key_resp.started;key_resp.stopped;slider_Text.started;slider_Text.stopped;slider_ex.response;slider_ex.rt;slider_ex.history;slider_ex.started;slider_ex.stopped;Rating;slider_resp_response.keys;slider_resp_response.started;slider_resp_response.stopped;key_resp.rt;slider_resp_response.rt;text_start.started;text_start.stopped;text_slider.started;text_slider.stopped;slider_stud.response;slider_stud.rt;slider_stud.history;slider_stud.started;slider_stud.stopped;slider_resp_study.keys;slider_resp_study.started;slider_resp_study.stopped;slider_resp_study.rt;text_ende.started;text_ende.stopped;participant;date;expName;psychopyVersion;frameRate;
1111;m;1111_m_m_h_a.jpg;happy;9;example_30.4ns.avi;neutral;7;incongruent;120.0;170.0;189.5874364012288;;0;0;0;0;;;;;129.55416309996508;1;129.64024370000698;131.6402620000299;131.6402620000299;None;133.6818236000836;None;135.77358720009215;136.098214100115;137.25661140005104;137.2732880001422;141.5649494000245;None;None;0;141.5649494000245;None;143.11472750012763;None;None;None;[];143.11472750012763;None;5;None;143.11472750012763;None;;;;;;;;;;;;;;;;;;S11679;2022_Aug_22_1702;VideoMask;2021.1.2;120.05018074272323;
1113;f;1113_y_f_s_a.jpg;sad;7;example_30.3ns.avi;neutral;7;incongruent;130.0;170.0;229.02432995836998;;0;1;1;1;;;;;;;;;;;146.13117180019617;None;148.24778580013663;148.5645240000449;149.70620320015587;149.72285770019516;151.69785700016655;None;8;0;151.69785700016655;None;153.24781730002724;None;None;None;[];153.24781730002724;None;5;['7'];153.24781730002724;None;1.0190077000297606;[1.6610040001105517];;;;;;;;;;;;;;;;S11679;2022_Aug_22_1702;VideoMask;2021.1.2;120.05018074272323;
9.0;f;019_m_f_h_a.jpg;happy;9.0;sad_115.1.wmv;sad;7.0;incongruent;120.0;160.0;128.09063432376465;h_s;;;;;0;0;0;0;;;;;;;157.28095500008203;None;158.5641163000837;158.88084040000103;160.01406700001098;160.03091670013964;162.0141741000116;None;None;0;162.0141741000116;None;;;;;;;;5;;;;;;156.25598560017534;None;163.56454000016674;None;None;None;[];163.56454000016674;None;None;163.56454000016674;None;;;;S11679;2022_Aug_22_1702;VideoMask;2021.1.2;120.05018074272323;
3.0;m;033_o_m_s_a.jpg;sad;7.0;sad_94.2ns.avi;sad;7.0;congruent;130.0;160.0;182.29120173647655;s_s;;;;;0;1;1;1;;;;;;;166.58901200001128;None;168.3221549000591;168.63884930009954;169.79722489998676;169.81454559997655;172.4638453000225;None;None;0;172.4638453000225;None;;;;;;;;4;;;;;;;;174.03021140000783;None;None;None;[];174.03021140000783;None;['7'];174.03021140000783;None;[10.384166700066999];;;S11679;2022_Aug_22_1702;VideoMask;2021.1.2;120.05018074272323;
8.0;m;008_y_m_h_a.jpg;happy;9.0;happy_26.1ns.avi;happy;9.0;congruent;120.0;150.0;155.9437854594882;h_h;;;;;0;2;2;2;;;;;;;177.0221085001249;None;178.51344740018249;178.83020399999805;179.98025670018978;179.99685640004463;181.95516760018654;None;None;0;181.95516760018654;None;;;;;;;;4;;;;;;;;183.50513150007464;None;None;None;[];183.50513150007464;None;['7'];183.50513150007464;None;[0.5556354001164436];;;S11679;2022_Aug_22_1702;VideoMask;2021.1.2;120.05018074272323;
0.0;f;040_y_f_h_a.jpg;happy;9.0;sad_138.1.wmv;sad;7.0;incongruent;120.0;160.0;133.99071306426532;h_s;;;;;0;3;3;3;;;;;;;186.50567360012792;None;187.8465789000038;188.1633268999867;189.32983410009183;189.34659400000237;191.2964975000359;None;8;0;191.2964975000359;None;;;;;;;;5;;;;0.9482952000107616;;;;192.84645529999398;None;None;None;[];192.84645529999398;None;None;192.84645529999398;None;;;;S11679;2022_Aug_22_1702;VideoMask;2021.1.2;120.05018074272323;
8.0;f;028_y_f_s_a.jpg;sad;7.0;sad_64.2ns.avi;sad;7.0;congruent;130.0;160.0;229.88540597086478;s_s;;;;;0;4;4;4;;;;;;;195.87138600018807;None;198.08799400017597;198.40462770010345;199.58803770015948;199.60455529997125;210.5376155001577;None;None;0;210.5376155001577;None;;;;;;;;5;;;;;;;;212.0874826000072;None;None;None;[];212.0874826000072;None;None;212.0874826000072;None;;;;S11679;2022_Aug_22_1702;VideoMask;2021.1.2;120.05018074272323;
7.0;m;027_o_m_s_a.jpg;sad;7.0;sad_10.4ns.avi;sad;7.0;congruent;130.0;160.0;185.20129417468752;s_s;;;;;0;5;5;5;;;;;;;215.10392220015638;None;216.87067690002732;217.18719170009717;218.3620911000762;218.3787705001887;221.48717180010863;None;None;0;221.48717180010863;None;;;;;;;;2;;;;;;;;223.03722680010833;None;None;None;[];223.03722680010833;None;"['7', '7', '7']";223.03722680010833;None;"[0.21553879999555647, 0.4392913000192493, 0.615391300059855]";;;S11679;2022_Aug_22_1702;VideoMask;2021.1.2;120.05018074272323;
2.0;f;012_o_f_s_a.jpg;sad;7.0;sad_7.5ns.avi;sad;7.0;congruent;130.0;160.0;220.27842655424388;s_s;;;;;0;6;6;6;;;;;;;226.04548220010474;None;228.07854190003127;228.39528330019675;229.62927560019307;229.65385690005496;232.32036280003376;None;None;0;232.32036280003376;None;;;;;;;;5;;;;;;;;234.27015620004386;None;None;None;[];234.27015620004386;None;None;234.27015620004386;None;;;;S11679;2022_Aug_22_1702;VideoMask;2021.1.2;120.05018074272323;
2.0;f;012_o_f_h_a.jpg;happy;9.0;happy_27.1ns.avi;happy;9.0;congruent;120.0;150.0;146.44967055810616;h_h;;;;;0;7;7;7;;;;;;;237.28656770009547;None;238.7114809001796;239.02816830016673;240.2032710001804;240.2199510000646;242.65318370005116;None;None;0;242.65318370005116;None;;;;;;;;4;;;;;;;;244.21148460009135;None;None;None;[];244.21148460009135;None;['7'];244.21148460009135;None;[0.5132410998921841];;;S11679;2022_Aug_22_1702;VideoMask;2021.1.2;120.05018074272323;
8.0;f;028_y_f_h_a.jpg;happy;9.0;sad_119.1.wmv;sad;7.0;incongruent;120.0;160.0;148.71526953572538;h_s;;;;;0;8;8;8;;;;;;;247.21146210003644;None;248.66166890016757;248.9777973999735;250.1111914999783;250.12789580016397;252.1778617000673;None;None;0;252.1778617000673;None;;;;;;;;5;;;;;;;;253.7275912000332;None;None;None;[];253.7275912000332;None;None;253.7275912000332;None;;;;S11679;2022_Aug_22_1702;VideoMask;2021.1.2;120.05018074272323;
6.0;m;016_y_m_s_a.jpg;sad;7.0;happy_60.4ns.avi;happy;9.0;incongruent;130.0;150.0;126.02367393611817;s_h;;;;;0;9;9;9;;;;;;;256.74426750000566;None;258.0443667001091;258.3609872001689;259.5692861001007;259.58593120006844;265.2857218000572;None;None;0;265.2857218000572;None;;;;;;;;5;;;;;;;;266.835709300125;None;None;None;[];266.835709300125;None;None;266.835709300125;None;;;;S11679;2022_Aug_22_1702;VideoMask;2021.1.2;120.05018074272323;
9.0;f;019_m_f_s_a.jpg;sad;7.0;sad_8.4ns.avi;sad;7.0;congruent;130.0;160.0;171.6633093155257;s_s;;;;;0;10;10;10;;;;;;;269.86061060009524;None;271.5438892999664;271.8605297000613;273.0361193001736;273.06046649999917;281.12699829996563;None;7;0;281.12699829996563;None;;;;;;;;4;;;;0.4215611000545323;;;;282.6768506001681;None;None;None;[];282.6768506001681;None;['7'];282.6768506001681;None;[0.3439673001412302];;;S11679;2022_Aug_22_1702;VideoMask;2021.1.2;120.05018074272323;
4.0;m;004_o_m_h_a.jpg;happy;9.0;happy_1.1ns.avi;happy;9.0;congruent;120.0;150.0;203.50057144619865;h_h;;;;;0;11;11;11;;;;;;;285.6767296001781;None;287.6767035999801;287.9932789001614;289.1931310000364;289.20976830017753;303.6094823000021;None;None;0;303.6094823000021;None;;;;;;;;6;;;;;;;;305.15947750001214;None;None;None;[];305.15947750001214;None;"['9', '9']";305.15947750001214;None;"[0.485003599897027, 0.9891176999080926]";;;S11679;2022_Aug_22_1702;VideoMask;2021.1.2;120.05018074272323;
7.0;m;027_o_m_h_a.jpg;happy;9.0;happy_20.1ns.avi;happy;9.0;congruent;120.0;150.0;152.91127178874285;h_h;;;;;0;12;12;12;;;;;;;308.1595165000763;None;309.65081570018083;309.96750340005383;311.1092751000542;311.12587340013124;314.12586900009774;None;None;0;314.12586900009774;None;;;;;;;;5;;;;;;;;315.6755674001761;None;None;None;[];315.6755674001761;None;None;315.6755674001761;None;;;;S11679;2022_Aug_22_1702;VideoMask;2021.1.2;120.05018074272323;
0.0;f;040_y_f_s_a.jpg;sad;7.0;sad_94.3ns.avi;sad;7.0;congruent;130.0;160.0;155.27414203894395;s_s;;;;;0;13;13;13;;;;;;;318.7088095000945;None;320.2088323000353;320.5255456001032;321.73367740004323;321.75035280012526;324.2838510000147;None;None;0;324.2838510000147;None;;;;;;;;5;;;;;;;;325.8338119999971;None;None;None;[];325.8338119999971;None;None;325.8338119999971;None;;;;S11679;2022_Aug_22_1702;VideoMask;2021.1.2;120.05018074272323;
0.0;f;030_o_f_s_a.jpg;sad;7.0;sad_68.1ns.avi;sad;7.0;congruent;130.0;160.0;158.9411396037211;s_s;;;;;0;14;14;14;;;;;;;328.86695280019194;None;330.42510900017805;330.74180060019717;331.8832847001031;331.90021870005876;339.29999520001;None;None;0;339.29999520001;None;;;;;;;;5;;;;;;;;340.8499722999986;None;None;None;[];340.8499722999986;None;None;340.8499722999986;None;;;;S11679;2022_Aug_22_1702;VideoMask;2021.1.2;120.05018074272323;
0.0;f;030_o_f_h_a.jpg;happy;9.0;sad_127.1.wmv;sad;7.0;incongruent;120.0;160.0;180.59976631384873;h_s;;;;;0;15;15;15;;;;;;;343.86637699999847;None;345.5830149000976;345.8997651000973;347.0247845000122;347.04146079998463;349.0329726000782;None;None;0;349.0329726000782;None;;;;;;;;5;;;;;;;;350.5828148999717;None;None;None;[];350.5828148999717;None;None;350.5828148999717;None;;;;S11679;2022_Aug_22_1702;VideoMask;2021.1.2;120.05018074272323;
8.0;m;008_y_m_s_a.jpg;sad;7.0;happy_133.3.wmv;happy;9.0;incongruent;130.0;150.0;152.577966552593;s_h;;;;;0;16;16;16;;;;;;;353.59936890006065;None;355.0826566000469;355.3992751999758;356.52447260008194;356.5410275000613;358.53256860002875;None;None;0;358.53256860002875;None;;;;;;;;5;;;;;;;;360.08261590008624;None;None;None;[];360.08261590008624;None;None;360.08261590008624;None;;;;S11679;2022_Aug_22_1702;VideoMask;2021.1.2;120.05018074272323;
3.0;m;033_o_m_h_a.jpg;happy;9.0;sad_128.1.wmv;sad;7.0;incongruent;120.0;160.0;171.0492454518585;h_s;;;;;0;17;17;17;;;;;;;363.10735870013013;None;364.7574472001288;365.0740742001217;366.2072829999961;366.22412810008973;368.2073266999796;None;None;0;368.2073266999796;None;;;;;;;;5;;;;;;;;369.7571776001714;None;None;None;[];369.7571776001714;None;None;369.7571776001714;None;;;;S11679;2022_Aug_22_1702;VideoMask;2021.1.2;120.05018074272323;
1.0;f;021_o_f_h_a.jpg;happy;9.0;sad_116.1.wmv;sad;7.0;incongruent;120.0;160.0;184.06847610053055;h_s;;;;;0;18;18;18;;;;;;;372.7738412001636;None;374.52370570017956;374.84050539997406;375.9821823001839;375.9987687000539;377.9738042000681;None;None;0;377.9738042000681;None;;;;;;;;4;;;;;;;;379.52348259999417;None;None;None;[];379.52348259999417;None;['7'];379.52348259999417;None;[0.6491078000981361];;;S11679;2022_Aug_22_1702;VideoMask;2021.1.2;120.05018074272323;
4.0;m;004_o_m_s_a.jpg;sad;7.0;happy_28.1ns.avi;happy;9.0;incongruent;130.0;150.0;157.40741103039684;s_h;;;;;0;19;19;19;;;;;;;382.52369250007905;None;384.0652219001204;384.38179430016316;385.53171850019135;385.54841230018064;389.90664060018025;None;None;0;389.90664060018025;None;;;;;;;;6;;;;;;;;391.45640190015547;None;None;None;[];391.45640190015547;None;['9'];391.45640190015547;None;[0.5481952999252826];;;S11679;2022_Aug_22_1702;VideoMask;2021.1.2;120.05018074272323;
8.0;f;028_y_f_s_a.jpg;sad;7.0;happy_122.3.wmv;happy;9.0;incongruent;130.0;150.0;171.8670540936116;s_h;;;;;0;20;20;20;;;;;;;394.4566488000564;None;396.10633670003153;396.42285570013337;397.5564171001315;397.57307659997605;399.556364600081;None;None;0;399.556364600081;None;;;;;;;;6;;;;;;;;401.1063288000878;None;None;None;[];401.1063288000878;None;['9'];401.1063288000878;None;[0.2901510000228882];;;S11679;2022_Aug_22_1702;VideoMask;2021.1.2;120.05018074272323;
8.0;m;008_y_m_s_a.jpg;sad;7.0;sad_6.5ns.avi;sad;7.0;congruent;130.0;160.0;170.39333839271438;s_s;;;;;0;21;21;21;;;;;;;404.10624950006604;None;405.73928500013426;406.05605090013705;407.20600950019434;407.2225445001386;412.18927950016223;None;None;0;412.18927950016223;None;;;;;;;;5;;;;;;;;413.7975896000862;None;None;None;[];413.7975896000862;None;None;413.7975896000862;None;;;;S11679;2022_Aug_22_1702;VideoMask;2021.1.2;120.05018074272323;
8.0;f;028_y_f_h_a.jpg;happy;9.0;happy_23.1ns.avi;happy;9.0;congruent;120.0;150.0;225.70986890587952;h_h;;;;;0;22;22;22;;;;;;;416.8224804000929;None;418.9139763000421;419.2306334001478;420.3720748000778;420.3890062000137;424.9471458001062;None;None;0;424.9471458001062;None;;;;;;;;6;;;;;;;;426.4971347001847;None;None;None;[];426.4971347001847;None;['9'];426.4971347001847;None;[0.24332570005208254];;;S11679;2022_Aug_22_1702;VideoMask;2021.1.2;120.05018074272323;
8.0;m;008_y_m_h_a.jpg;happy;9.0;sad_111.1.wmv;sad;7.0;incongruent;120.0;160.0;152.63076835312847;h_s;;;;;0;23;23;23;;;;;;;429.50557260005735;None;430.9801932000555;431.296944900183;432.44689829996787;432.46365660009906;434.4302265001461;None;None;0;434.4302265001461;None;;;;;;;;5;;;;;;;;435.9800470001064;None;None;None;[];435.9800470001064;None;None;435.9800470001064;None;;;;S11679;2022_Aug_22_1702;VideoMask;2021.1.2;120.05018074272323;
0.0;f;040_y_f_s_a.jpg;sad;7.0;sad_67.2ns.avi;sad;7.0;congruent;130.0;160.0;220.9892697323079;s_s;;;;;0;24;24;24;;;;;;;438.9966170999687;None;441.08826390001923;441.40491640008986;442.5966243001167;442.6132772001438;451.7629976000171;None;None;0;451.7629976000171;None;;;;;;;;4;;;;;;;;453.31295110005885;None;None;None;[];453.31295110005885;None;['7'];453.31295110005885;None;[0.6836907998658717];;;S11679;2022_Aug_22_1702;VideoMask;2021.1.2;120.05018074272323;
8.0;m;008_y_m_s_a.jpg;sad;7.0;happy_29.1ns.avi;happy;9.0;incongruent;130.0;150.0;120.0316142834122;s_h;;;;;0;25;25;25;;;;;;;456.3130125000607;None;457.52936140005477;457.8459501999896;458.98879029997624;459.0049900000449;461.6711638001725;None;None;0;461.6711638001725;None;;;;;;;;6;;;;;;;;463.2207506999839;None;None;None;[];463.2207506999839;None;"['9', '9']";463.2207506999839;None;"[0.3275641000363976, 0.7757482000160962]";;;S11679;2022_Aug_22_1702;VideoMask;2021.1.2;120.05018074272323;
6.0;m;016_y_m_s_a.jpg;sad;7.0;sad_8.3ns.avi;sad;7.0;congruent;130.0;160.0;152.85371098242734;s_s;;;;;0;26;26;26;;;;;;;466.2292324001901;None;467.75402850005776;468.07081820000894;469.24555920017883;469.2624525001738;476.9621473001316;None;None;0;476.9621473001316;None;;;;;;;;5;;;;;;;;478.64537820010446;None;None;None;[];478.64537820010446;None;None;478.64537820010446;None;;;;S11679;2022_Aug_22_1702;VideoMask;2021.1.2;120.05018074272323;
6.0;m;016_y_m_h_a.jpg;happy;9.0;sad_114.1.wmv;sad;7.0;incongruent;120.0;160.0;136.20550699298644;h_s;;;;;0;27;27;27;;;;;;;481.6703978001606;None;483.02016890002415;483.3368113001343;484.47021430009045;484.4868793999776;486.4702896999661;None;None;0;486.4702896999661;None;;;;;;;;5;;;;;;;;488.0199281000532;None;None;None;[];488.0199281000532;None;None;488.0199281000532;None;;;;S11679;2022_Aug_22_1702;VideoMask;2021.1.2;120.05018074272323;
7.0;m;027_o_m_s_a.jpg;sad;7.0;happy_117.3.wmv;happy;9.0;incongruent;130.0;150.0;215.61964028550614;s_h;;;;;0;28;28;28;;;;;;;491.0449277001899;None;493.05315910000354;493.3699823000934;494.5032326001674;494.51987239997834;496.50319880014285;None;None;0;496.50319880014285;None;;;;;;;;4;;;;;;;;498.053173399996;None;None;None;[];498.053173399996;None;['7'];498.053173399996;None;[1.4551332001574337];;;S11679;2022_Aug_22_1702;VideoMask;2021.1.2;120.05018074272323;
6.0;m;016_y_m_h_a.jpg;happy;9.0;happy_9.2ns.avi;happy;9.0;congruent;120.0;150.0;130.52042428082717;h_h;;;;;0;29;29;29;;;;;;;501.05306440009736;None;502.3695283001289;502.68624510010704;503.86201260006055;503.9029957000166;509.7443860999774;None;None;0;509.7443860999774;None;;;;;;;;5;;;;;;;;511.29437120002694;None;None;None;[];511.29437120002694;None;None;511.29437120002694;None;;;;S11679;2022_Aug_22_1702;VideoMask;2021.1.2;120.05018074272323;
0.0;f;040_y_f_s_a.jpg;sad;7.0;happy_127.3.wmv;happy;9.0;incongruent;130.0;150.0;131.7195455720239;s_h;;;;;0;30;30;30;;;;;;;514.3191017000936;None;515.6190299000591;515.935753100086;517.0857951000798;517.1025584000163;519.1357508001383;None;None;0;519.1357508001383;None;;;;;;;;5;;;;;;;;520.6856766999699;None;None;None;[];520.6856766999699;None;None;520.6856766999699;None;;;;S11679;2022_Aug_22_1702;VideoMask;2021.1.2;120.05018074272323;
0.0;f;030_o_f_s_a.jpg;sad;7.0;happy_125.3.wmv;happy;9.0;incongruent;130.0;150.0;220.51454909128134;s_h;;;;;0;31;31;31;;;;;;;523.7107373001054;None;525.7687858000863;526.0854573000688;527.2285516001284;527.2521725001279;529.2187730001751;None;None;0;529.2187730001751;None;;;;;;;;4;;;;;;;;530.8104109000415;None;None;None;[];530.8104109000415;None;['7'];530.8104109000415;None;[0.29796890006400645];;;S11679;2022_Aug_22_1702;VideoMask;2021.1.2;120.05018074272323;
0.0;f;030_o_f_s_a.jpg;sad;7.0;sad_64.3ns.avi;sad;7.0;congruent;130.0;160.0;165.78667874766072;s_s;;;;;0;32;32;32;;;;;;;533.8186989000533;None;535.4185009000357;535.7351288001519;536.8935319001321;536.9102466001641;541.8683869000524;None;None;0;541.8683869000524;None;;;;;;;;5;;;;;;;;543.476657200139;None;None;None;[];543.476657200139;None;"['9', '7']";543.476657200139;None;"[0.39150979998521507, 0.9916773000732064]";;;S11679;2022_Aug_22_1702;VideoMask;2021.1.2;120.05018074272323;
3.0;m;013_y_m_s_a.jpg;sad;7.0;sad_7.7ns.avi;sad;7.0;congruent;130.0;160.0;196.24182255763262;s_s;;;;;0;33;33;33;;;;;;;546.4848760999739;None;548.3680693001952;548.6847296999767;549.9178028001916;549.9345523000229;555.8180117001757;None;None;0;555.8180117001757;None;;;;;;;;5;;;;;;;;557.3677487000823;None;None;None;[];557.3677487000823;None;"['7', '9', '9']";557.3677487000823;None;"[1.7645105000119656, 2.4605036000721157, 2.92442260007374]";;;S11679;2022_Aug_22_1702;VideoMask;2021.1.2;120.05018074272323;
3.0;m;013_y_m_h_a.jpg;happy;9.0;happy_9.1ns.avi;happy;9.0;congruent;120.0;150.0;165.1890303600433;h_h;;;;;0;34;34;34;;;;;;;560.3677733000368;None;561.9674929000903;562.2843332001939;563.4350116001442;563.4596480000764;566.6425346999895;None;None;0;566.6425346999895;None;;;;;;;;6;;;;;;;;568.1924926000647;None;None;None;[];568.1924926000647;None;['9'];568.1924926000647;None;[0.21981099992990494];;;S11679;2022_Aug_22_1702;VideoMask;2021.1.2;120.05018074272323;
4.0;m;004_o_m_h_a.jpg;happy;9.0;sad_95.1ns.avi;sad;7.0;incongruent;120.0;160.0;152.68270002069931;h_s;;;;;0;35;35;35;;;;;;;571.1924243001267;None;572.7588337999769;573.0756451999769;574.2423362000845;574.2589067001827;583.0004867000971;None;None;0;583.0004867000971;None;;;;;;;;3;;;;;;;;584.5584599999711;None;None;None;[];584.5584599999711;None;"['7', '7', '7', '7']";584.5584599999711;None;"[0.28581629996187985, 0.7177514000795782, 1.1257305999752134, 1.5577656999230385]";;;S11679;2022_Aug_22_1702;VideoMask;2021.1.2;120.05018074272323;
3.0;m;013_y_m_h_a.jpg;happy;9.0;sad_113.2.wmv;sad;7.0;incongruent;120.0;160.0;217.4973891947951;h_s;;;;;0;36;36;36;;;;;;;587.5586520000361;None;589.6001600001473;589.9166741999798;591.0418147000019;591.0583767001517;593.050024199998;None;None;0;593.050024199998;None;;;;;;;;5;;;;;;;;594.5997834000736;None;None;None;[];594.5997834000736;None;None;594.5997834000736;None;;;;S11679;2022_Aug_22_1702;VideoMask;2021.1.2;120.05018074272323;
4.0;m;004_o_m_h_a.jpg;happy;9.0;happy_25.1ns.avi;happy;9.0;congruent;120.0;150.0;216.63044503818386;h_h;;;;;0;37;37;37;;;;;;;597.6330424000043;None;599.6579702000599;599.9746905001812;601.1663216000888;601.1830890001729;604.7996041001752;None;None;0;604.7996041001752;None;;;;;;;;3;;;;;;;;606.3496052001137;None;None;None;[];606.3496052001137;None;"['7', '7', '7']";606.3496052001137;None;"[0.2626094000879675, 0.4944637001026422, 0.9267975001130253]";;;S11679;2022_Aug_22_1702;VideoMask;2021.1.2;120.05018074272323;
4.0;m;004_o_m_s_a.jpg;sad;7.0;happy_131.2.wmv;happy;9.0;incongruent;130.0;150.0;181.38407540847405;s_h;;;;;0;38;38;38;;;;;;;609.3496773000807;None;611.0742852999829;611.3910680999979;612.5331278999802;612.5576830001082;614.5242335000075;None;None;0;614.5242335000075;None;;;;;;;;4;;;;;;;;616.0741922000889;None;None;None;[];616.0741922000889;None;['7'];616.0741922000889;None;[0.6981311000417918];;;S11679;2022_Aug_22_1702;VideoMask;2021.1.2;120.05018074272323;
0.0;f;040_y_f_h_a.jpg;happy;9.0;happy_24.3ns.avi;happy;9.0;congruent;120.0;150.0;213.25460698950434;h_h;;;;;0;39;39;39;;;;;;;619.0741385000292;None;621.04896130017;621.3656632001512;622.4991350001656;622.5156706001144;624.4240382001735;None;None;0;624.4240382001735;None;;;;;;;;5;;;;;;;;625.9737780001014;None;None;None;[];625.9737780001014;None;None;625.9737780001014;None;;;;S11679;2022_Aug_22_1702;VideoMask;2021.1.2;120.05018074272323;
2.0;f;012_o_f_s_a.jpg;sad;7.0;happy_139.1.wmv;happy;9.0;incongruent;130.0;150.0;162.31500468041804;s_h;;;;;0;40;40;40;;;;;;;628.9903449001722;None;630.5486467001028;630.8653909000568;631.9988210999873;632.0152300000191;633.9986374999862;None;None;0;633.9986374999862;None;;;;;;;;6;;;;;;;;635.5486473999918;None;None;None;[];635.5486473999918;None;"['9', '9']";635.5486473999918;None;"[0.3116262999828905, 0.7914294998627156]";;;S11679;2022_Aug_22_1702;VideoMask;2021.1.2;120.05018074272323;
0.0;f;030_o_f_h_a.jpg;happy;9.0;happy_24.1ns.avi;happy;9.0;congruent;120.0;150.0;168.36256624020774;h_h;;;;;0;41;41;41;;;;;;;638.5486283001956;None;640.1733453001361;640.4900970000308;641.6666346001439;641.6901029001456;644.9483162001707;None;None;0;644.9483162001707;None;;;;;;;;5;;;;;;;;646.4982410001103;None;None;None;[];646.4982410001103;None;None;646.4982410001103;None;;;;S11679;2022_Aug_22_1702;VideoMask;2021.1.2;120.05018074272323;
2.0;f;012_o_f_h_a.jpg;happy;9.0;sad_113.1.wmv;sad;7.0;incongruent;120.0;160.0;177.44551734737394;h_s;;;;;0;42;42;42;;;;;;;649.5315153000411;None;651.2229129001498;651.5397405000404;652.6812156001106;652.6979857999831;654.6729723000899;None;None;0;654.6729723000899;None;;;;;;;;4;;;;;;;;656.2227358999662;None;None;None;[];656.2227358999662;None;"['7', '7']";656.2227358999662;None;"[0.2855096000712365, 0.7812514000106603]";;;S11679;2022_Aug_22_1702;VideoMask;2021.1.2;120.05018074272323;
3.0;m;033_o_m_s_a.jpg;sad;7.0;sad_64.5ns.avi;sad;7.0;congruent;130.0;160.0;130.55717223801247;s_s;;;;;0;43;43;43;;;;;;;659.2229057999793;None;660.5644745000172;660.8810400001239;662.0310974000022;662.0476174000651;668.6058687001932;None;None;0;668.6058687001932;None;;;;;;;;4;;;;;;;;670.1558181999717;None;None;None;[];670.1558181999717;None;['7'];670.1558181999717;None;[0.3363659998867661];;;S11679;2022_Aug_22_1702;VideoMask;2021.1.2;120.05018074272323;
7.0;m;027_o_m_h_a.jpg;happy;9.0;sad_117.1.wmv;sad;7.0;incongruent;120.0;160.0;181.28665202824095;h_s;;;;;0;44;44;44;;;;;;;673.1558015001938;None;674.8888592000585;675.2056102000643;676.3470548000187;676.3637190000154;678.338912300067;None;None;0;678.338912300067;None;;;;;;;;5;;;;;;;;679.888638000004;None;None;None;[];679.888638000004;None;None;679.888638000004;None;;;;S11679;2022_Aug_22_1702;VideoMask;2021.1.2;120.05018074272323;
3.0;m;033_o_m_s_a.jpg;sad;7.0;happy_126.3.wmv;happy;9.0;incongruent;130.0;150.0;198.85252030535366;s_h;;;;;0;45;45;45;;;;;;;682.9134847000241;None;684.7801903001964;685.0970247001387;686.2300992000382;686.2468683000188;688.2303149001673;None;None;0;688.2303149001673;None;;;;;;;;5;;;;;;;;689.780237399973;None;None;None;[];689.780237399973;None;None;689.780237399973;None;;;;S11679;2022_Aug_22_1702;VideoMask;2021.1.2;120.05018074272323;
3.0;m;033_o_m_h_a.jpg;happy;9.0;sad_136.1.wmv;sad;7.0;incongruent;120.0;160.0;176.97002883463455;h_s;;;;;0;46;46;46;;;;;;;692.8048865001183;None;694.4882288000081;694.8049095000606;695.9300479001831;695.9466252001002;697.9382339001168;None;None;0;697.9382339001168;None;;;;;;;;5;;;;;;;;699.488268900197;None;None;None;[];699.488268900197;None;['9'];699.488268900197;None;[2.435839500045404];;;S11679;2022_Aug_22_1702;VideoMask;2021.1.2;120.05018074272323;
9.0;f;019_m_f_h_a.jpg;happy;9.0;happy_10.1ns.avi;happy;9.0;congruent;120.0;150.0;157.2463435658512;h_h;;;;;0;47;47;47;;;;;;;702.4881104000378;None;704.0546063000802;704.3713261999656;705.4961665000301;705.5130129000172;712.9460856001824;None;None;0;712.9460856001824;None;;;;;;;;4;;;;;;;;714.4960281001404;None;None;None;[];714.4960281001404;None;['7'];714.4960281001404;None;[0.9319023001007736];;;S11679;2022_Aug_22_1702;VideoMask;2021.1.2;120.05018074272323;
2.0;f;012_o_f_h_a.jpg;happy;9.0;happy_2.2ns.avi;happy;9.0;congruent;120.0;150.0;206.34800317295262;h_h;;;;;0;48;48;48;;;;;;;717.4960758001544;None;719.4792146000545;719.795759800123;720.9374234999996;720.9541317999829;733.1290808001067;None;None;0;733.1290808001067;None;;;;;;;;5;;;;;;;;734.6868100001011;None;None;None;[];734.6868100001011;None;None;734.6868100001011;None;;;;S11679;2022_Aug_22_1702;VideoMask;2021.1.2;120.05018074272323;
3.0;m;033_o_m_h_a.jpg;happy;9.0;happy_24.2ns.avi;happy;9.0;congruent;120.0;150.0;167.9423847659953;h_h;;;;;0;49;49;49;;;;;;;737.7034744999837;None;739.3201955000404;739.6370016001165;740.8035795001779;740.8202057001181;744.5034043001942;None;None;0;744.5034043001942;None;;;;;;;;5;;;;;;;;746.0531316001434;None;None;None;[];746.0531316001434;None;None;746.0531316001434;None;;;;S11679;2022_Aug_22_1702;VideoMask;2021.1.2;120.05018074272323;
1.0;f;021_o_f_s_a.jpg;sad;7.0;happy_61.2ns.avi;happy;9.0;incongruent;130.0;150.0;210.94664004826666;s_h;;;;;0;50;50;50;;;;;;;749.0782523001544;None;751.0613029000815;751.3780825000722;752.5528586001601;752.5697745999787;757.036187000107;None;None;0;757.036187000107;None;;;;;;;;5;;;;;;;;758.5860133999959;None;None;None;[];758.5860133999959;None;None;758.5860133999959;None;;;;S11679;2022_Aug_22_1702;VideoMask;2021.1.2;120.05018074272323;
4.0;m;004_o_m_s_a.jpg;sad;7.0;sad_2.4ns.avi;sad;7.0;congruent;130.0;160.0;153.02079367163634;s_s;;;;;0;51;51;51;;;;;;;761.6110760001466;None;763.1192985000089;763.4360337001272;764.5944223999977;764.61087770015;772.5276933000423;None;8;0;772.5276933000423;None;;;;;;;;5;;;;0.53241360001266;;;;774.0940829999745;None;None;None;[];774.0940829999745;None;None;774.0940829999745;None;;;;S11679;2022_Aug_22_1702;VideoMask;2021.1.2;120.05018074272323;
8.0;m;008_y_m_h_a.jpg;happy;9.0;happy_1.2ns.avi;happy;9.0;congruent;120.0;150.0;210.98946429383824;h_h;;;;;0;52;52;52;;;;;;;777.1189470000099;None;779.1437252000906;779.4605450001545;780.6022469999734;780.6188628000673;793.3852089999709;None;None;0;793.3852089999709;None;;;;;;;;5;;;;;;;;794.934867599979;None;None;None;[];794.934867599979;None;None;794.934867599979;None;;;;S11679;2022_Aug_22_1702;VideoMask;2021.1.2;120.05018074272323;
2.0;f;012_o_f_s_a.jpg;sad;7.0;happy_52.2ns.avi;happy;9.0;incongruent;130.0;150.0;172.57202848318138;s_h;;;;;0;53;53;53;;;;;;;797.9598487000912;None;799.6347678999882;799.9515271000564;801.1185542000458;801.1432741000317;804.6346849000547;None;None;0;804.6346849000547;None;;;;;;;;4;;;;;;;;806.1847155999858;None;None;None;[];806.1847155999858;None;['7'];806.1847155999858;None;[0.5471886999439448];;;S11679;2022_Aug_22_1702;VideoMask;2021.1.2;120.05018074272323;
9.0;f;019_m_f_s_a.jpg;sad;7.0;happy_61.1ns.avi;happy;9.0;incongruent;130.0;150.0;181.3003220572762;s_h;;;;;0;54;54;54;;;;;;;809.1930184999947;None;810.9678502001334;811.2845012000762;812.5093511000741;812.5259509000462;819.809249300044;None;None;0;819.809249300044;None;;;;;;;;6;;;;;;;;821.3591698000673;None;None;None;[];821.3591698000673;None;['9'];821.3591698000673;None;[0.41283720009960234];;;S11679;2022_Aug_22_1702;VideoMask;2021.1.2;120.05018074272323;
0.0;f;030_o_f_h_a.jpg;happy;9.0;sad_133.1.wmv;sad;7.0;incongruent;120.0;160.0;198.86251500867985;h_s;;;;;0;55;55;55;;;;;;;824.367519200081;None;826.2422427001875;826.5588836001698;827.6923665001523;827.7089802001137;829.6921500000171;None;None;0;829.6921500000171;None;;;;;;;;5;;;;;;;;831.3505949000828;None;None;None;[];831.3505949000828;None;None;831.3505949000828;None;;;;S11679;2022_Aug_22_1702;VideoMask;2021.1.2;120.05018074272323;
0.0;f;040_y_f_h_a.jpg;happy;9.0;sad_128.2.wmv;sad;7.0;incongruent;120.0;160.0;206.10005857915363;h_s;;;;;0;56;56;56;;;;;;;834.3838080000132;None;836.3169905000832;836.6336235001218;837.7668632999994;837.783629800193;839.7668238000479;None;None;0;839.7668238000479;None;;;;;;;;5;;;;;;;;841.3168742000125;None;None;None;[];841.3168742000125;None;None;841.3168742000125;None;;;;S11679;2022_Aug_22_1702;VideoMask;2021.1.2;120.05018074272323;
1.0;f;021_o_f_s_a.jpg;sad;7.0;sad_9.5ns.avi;sad;7.0;congruent;130.0;160.0;206.16642757875042;s_s;;;;;0;57;57;57;;;;;;;844.3417913001031;None;846.2748458001297;846.5917112000752;847.7586288000457;847.7748090000823;853.4581654001959;None;None;0;853.4581654001959;None;;;;;;;;4;;;;;;;;855.0995628000237;None;None;None;[];855.0995628000237;None;['7'];855.0995628000237;None;[1.008418699959293];;;S11679;2022_Aug_22_1702;VideoMask;2021.1.2;120.05018074272323;
1.0;f;021_o_f_h_a.jpg;happy;9.0;happy_12.1ns.avi;happy;9.0;congruent;120.0;150.0;132.59080005900228;h_h;;;;;0;58;58;58;;;;;;;858.0996587001719;None;859.457879499998;859.774518399965;860.9161535000894;860.9328084001318;868.5243402000051;None;None;0;868.5243402000051;None;;;;;;;;6;;;;;;;;870.0658313999884;None;None;None;[];870.0658313999884;None;['9'];870.0658313999884;None;[0.3221479000058025];;;S11679;2022_Aug_22_1702;VideoMask;2021.1.2;120.05018074272323;
3.0;m;013_y_m_s_a.jpg;sad;7.0;happy_56.2ns.avi;happy;9.0;incongruent;130.0;150.0;163.39234110935848;s_h;;;;;0;59;59;59;;;;;;;873.0741358001251;None;874.665750300046;874.9823561999947;876.2073503001593;876.2240902001504;881.1405291000847;None;None;0;881.1405291000847;None;;;;;;;;5;;;;;;;;882.6905683001969;None;None;None;[];882.6905683001969;None;None;882.6905683001969;None;;;;S11679;2022_Aug_22_1702;VideoMask;2021.1.2;120.05018074272323;
;;;;;;;;;;;;;;;;;;;;;;;;;;;;;;;;;;;;;;;;;;;;;;;;;;;;;;;;;;;;;;;;;885.7153531999793;None;;;;;;
