primePerson;primeGender;prime;primeEmotion;corrAnsPrime;target;targetEmotion;corrAnsTar;Cond;ID_Primer;ID_Target;JitterTime;Condition;example.thisRepN;example.thisTrialN;example.thisN;example.thisIndex;study.thisRepN;study.thisTrialN;study.thisN;study.thisIndex;MR_trigger_time;MR_trigger_number;text_intro.started;text_intro.stopped;text_probe.started;text_probe.stopped;polygon_ISI.started;polygon_ISI.stopped;polygon.started;polygon.stopped;primerImage.started;primerImage.stopped;response.started;response.stopped;key_resp.keys;key_resp.corr;key_resp.rt;key_resp.started;key_resp.stopped;slider_Text.started;slider_Text.stopped;slider_ex.response;slider_ex.rt;slider_ex.history;slider_ex.started;slider_ex.stopped;Rating;slider_resp_response.keys;slider_resp_response.rt;slider_resp_response.started;slider_resp_response.stopped;text_start.started;text_start.stopped;text_slider.started;text_slider.stopped;slider_stud.response;slider_stud.rt;slider_stud.history;slider_stud.started;slider_stud.stopped;slider_resp_study.keys;slider_resp_study.rt;slider_resp_study.started;slider_resp_study.stopped;text_ende.started;text_ende.stopped;participant;date;expName;psychopyVersion;frameRate;
1111;m;1111_m_m_h_a.jpg;happy;9;example_30.4ns.avi;neutral;7;incongruent;120.0;170.0;189.5874364012288;;0;0;0;0;;;;;21.989050700009102;1;22.074673499999335;24.07492360001197;24.07492360001197;None;26.092855900002178;None;28.2995461000246;28.616397600009805;29.79229650000343;29.816195999999763;34.09106659999816;None;9;0;1.453045900008874;34.09106659999816;None;35.65049900001031;None;None;None;[];35.65049900001031;None;7;"['9', '9']";"[1.813596599997254, 2.2615866000123788]";35.65049900001031;None;;;;;;;;;;;;;;;;S11933;2022_Dec_15_1740;VideoMask;2021.1.2;120.04254307979126;
1113;f;1113_y_f_s_a.jpg;sad;7;example_30.3ns.avi;neutral;7;incongruent;130.0;170.0;229.02432995836998;;0;1;1;1;;;;;;;;;;;38.64940840000054;None;40.76576670000213;41.08206149999751;42.215852000023006;42.23247860002448;44.21570110000903;None;9;0;1.1124352999904659;44.21570110000903;None;45.7656087000214;None;None;None;[];45.7656087000214;None;7;"['9', '9']";"[0.8264993000193499, 1.0983975999988616]";45.7656087000214;None;;;;;;;;;;;;;;;;S11933;2022_Dec_15_1740;VideoMask;2021.1.2;120.04254307979126;
9.0;f;019_m_f_h_a.jpg;happy;9.0;sad_115.1.wmv;sad;7.0;incongruent;120.0;160.0;128.09063432376465;h_s;;;;;0;0;0;0;;;;;;;49.79888050002046;None;51.082096099999035;51.39843530001235;52.55684810000821;52.57373180001741;54.5320399000193;None;7;0;1.4679438999737613;54.5320399000193;None;;;;;;;;2;;;;;48.765909800014924;None;56.08187310001813;None;None;None;[];56.08187310001813;None;"['7', '7', '7']";"[1.1104564999986906, 1.3983136999886483, 1.6548449999827426]";56.08187310001813;None;;;S11933;2022_Dec_15_1740;VideoMask;2021.1.2;120.04254307979126;
3.0;m;033_o_m_s_a.jpg;sad;7.0;sad_94.2ns.avi;sad;7.0;congruent;130.0;160.0;182.29120173647655;s_s;;;;;0;1;1;1;;;;;;;59.098907000006875;None;60.815152499999385;61.13173330001882;62.298395400022855;62.315108500013594;64.95668420000584;None;None;0;;64.95668420000584;None;;;;;;;;4;;;;;;;66.50676450002356;None;None;None;[];66.50676450002356;None;['7'];[0.7253537999931723];66.50676450002356;None;;;S11933;2022_Dec_15_1740;VideoMask;2021.1.2;120.04254307979126;
8.0;m;008_y_m_h_a.jpg;happy;9.0;happy_26.1ns.avi;happy;9.0;congruent;120.0;150.0;155.9437854594882;h_h;;;;;0;2;2;2;;;;;;;69.51488440000685;None;71.02312140000868;71.33948570000939;72.51482300000498;72.53146260001813;74.46475400001509;None;9;0;0.8073315000219736;74.46475400001509;None;;;;;;;;6;;;;;;;76.0146478000097;None;None;None;[];76.0146478000097;None;['9'];[0.9215843999991193];76.0146478000097;None;;;S11933;2022_Dec_15_1740;VideoMask;2021.1.2;120.04254307979126;
0.0;f;040_y_f_h_a.jpg;happy;9.0;sad_138.1.wmv;sad;7.0;incongruent;120.0;160.0;133.99071306426532;h_s;;;;;0;3;3;3;;;;;;;79.02331970000523;None;80.3478146000125;80.66410270001506;81.83122330001788;81.84784500001115;83.79774989999714;None;7;0;1.2264809000189416;83.79774989999714;None;;;;;;;;3;;;;;;;85.3476974000223;None;None;None;[];85.3476974000223;None;"['7', '7', '7']";"[0.6442508999898564, 0.8602794999897014, 2.124486999993678]";85.3476974000223;None;;;S11933;2022_Dec_15_1740;VideoMask;2021.1.2;120.04254307979126;
8.0;f;028_y_f_s_a.jpg;sad;7.0;sad_64.2ns.avi;sad;7.0;congruent;130.0;160.0;229.88540597086478;s_s;;;;;0;4;4;4;;;;;;;88.34780050002155;None;90.49754020001274;90.81387209999957;91.9724705000117;91.98902520001866;102.94703300000401;None;7;0;0.8530109999992419;102.94703300000401;None;;;;;;;;3;;;;;;;104.5053898000042;None;None;None;[];104.5053898000042;None;"['7', '7']";"[0.6148172000248451, 0.9987797000212595]";104.5053898000042;None;;;S11933;2022_Dec_15_1740;VideoMask;2021.1.2;120.04254307979126;
7.0;m;027_o_m_s_a.jpg;sad;7.0;sad_10.4ns.avi;sad;7.0;congruent;130.0;160.0;185.20129417468752;s_s;;;;;0;5;5;5;;;;;;;107.50572780001676;None;109.24688430002425;109.56329720001668;110.77995590001228;110.7968093000236;113.87184210002306;None;7;0;1.4642730000196025;113.87184210002306;None;;;;;;;;4;;;;;;;115.42168050000328;None;None;None;[];115.42168050000328;None;['7'];[0.5862596999795642];115.42168050000328;None;;;S11933;2022_Dec_15_1740;VideoMask;2021.1.2;120.04254307979126;
2.0;f;012_o_f_s_a.jpg;sad;7.0;sad_7.5ns.avi;sad;7.0;congruent;130.0;160.0;220.27842655424388;s_s;;;;;0;6;6;6;;;;;;;118.4217133000202;None;120.45479310001247;120.77115110002342;121.95589400001336;121.97971030001645;124.69661720001022;None;7;0;0.6957070999778807;124.69661720001022;None;;;;;;;;3;;;;;;;126.25465020001866;None;None;None;[];126.25465020001866;None;"['7', '7']";"[0.6654617000021972, 1.0335242000001017]";126.25465020001866;None;;;S11933;2022_Dec_15_1740;VideoMask;2021.1.2;120.04254307979126;
2.0;f;012_o_f_h_a.jpg;happy;9.0;happy_27.1ns.avi;happy;9.0;congruent;120.0;150.0;146.44967055810616;h_h;;;;;0;7;7;7;;;;;;;129.26327310001943;None;130.67950650001876;130.99643349999678;132.16267300001346;132.1794953000208;134.62108540002373;None;9;0;0.8189371000044048;134.62108540002373;None;;;;;;;;6;;;;;;;136.17101360001834;None;None;None;[];136.17101360001834;None;['9'];[0.605062699993141];136.17101360001834;None;;;S11933;2022_Dec_15_1740;VideoMask;2021.1.2;120.04254307979126;
8.0;f;028_y_f_h_a.jpg;happy;9.0;sad_119.1.wmv;sad;7.0;incongruent;120.0;160.0;148.71526953572538;h_s;;;;;0;8;8;8;;;;;;;139.17937850000453;None;140.62913129999652;140.945895700017;142.07915269999648;142.09580490001827;144.1458301000239;None;7;0;0.8382220000203233;144.1458301000239;None;;;;;;;;2;;;;;;;145.6957394000201;None;None;None;[];145.6957394000201;None;"['7', '7', '7']";"[0.6082834999833722, 0.8406496999959927, 1.192253899993375]";145.6957394000201;None;;;S11933;2022_Dec_15_1740;VideoMask;2021.1.2;120.04254307979126;
6.0;m;016_y_m_s_a.jpg;sad;7.0;happy_60.4ns.avi;happy;9.0;incongruent;130.0;150.0;126.02367393611817;s_h;;;;;0;9;9;9;;;;;;;148.69563880001078;None;149.96229330002097;150.2784946000029;151.46204710000893;151.47888000000967;157.20371160001378;None;9;0;0.41246099999989383;157.20371160001378;None;;;;;;;;8;;;;;;;158.75358450002386;None;None;None;[];158.75358450002386;None;"['9', '9', '9']";"[0.6064435000007506, 1.0622148999827914, 1.2542942999862134]";158.75358450002386;None;;;S11933;2022_Dec_15_1740;VideoMask;2021.1.2;120.04254307979126;
9.0;f;019_m_f_s_a.jpg;sad;7.0;sad_8.4ns.avi;sad;7.0;congruent;130.0;160.0;171.6633093155257;s_s;;;;;0;10;10;10;;;;;;;161.7536840000248;None;163.4283142000204;163.7449665000022;165.02006820001407;165.0367989000224;173.0215056000161;None;7;0;0.8584039999986999;173.0215056000161;None;;;;;;;;4;;;;;;;174.9697528000106;None;None;None;[];174.9697528000106;None;"['7', '7']";"[0.9101865999982692, 1.750314700009767]";174.9697528000106;None;;;S11933;2022_Dec_15_1740;VideoMask;2021.1.2;120.04254307979126;
4.0;m;004_o_m_h_a.jpg;happy;9.0;happy_1.1ns.avi;happy;9.0;congruent;120.0;150.0;203.50057144619865;h_h;;;;;0;11;11;11;;;;;;;177.97848180000437;None;179.9527457000222;180.27792220000993;181.59454600000754;181.61119380002492;195.88572590000695;None;9;0;0.8744686999998521;195.88572590000695;None;;;;;;;;7;;;;;;;197.4356757000205;None;None;None;[];197.4356757000205;None;"['9', '9', '9', '9']";"[0.6202503999811597, 0.8282050999987405, 1.2282894999952987, 1.6603173000039533]";197.4356757000205;None;;;S11933;2022_Dec_15_1740;VideoMask;2021.1.2;120.04254307979126;
7.0;m;027_o_m_h_a.jpg;happy;9.0;happy_20.1ns.avi;happy;9.0;congruent;120.0;150.0;152.91127178874285;h_h;;;;;0;12;12;12;;;;;;;200.44435450001038;None;201.9270852000045;202.24348699999973;203.40217890002532;203.41881280002417;206.39371699999901;None;9;0;0.7342941000242718;206.39371699999901;None;;;;;;;;9;;;;;;;207.94363140000496;None;None;None;[];207.94363140000496;None;"['9', '9', '9', '9']";"[0.4006651000236161, 0.6401614000205882, 0.8084335000021383, 0.9762004000076558]";207.94363140000496;None;;;S11933;2022_Dec_15_1740;VideoMask;2021.1.2;120.04254307979126;
0.0;f;040_y_f_s_a.jpg;sad;7.0;sad_94.3ns.avi;sad;7.0;congruent;130.0;160.0;155.27414203894395;s_s;;;;;0;13;13;13;;;;;;;210.95206340000732;None;212.44346150002093;212.76003530001617;213.9266814000148;213.94339210001635;216.51843700002064;None;8;0;0.5858194000029471;216.51843700002064;None;;;;;;;;5;;;;;;;218.06831470000907;None;None;None;[];218.06831470000907;None;None;;218.06831470000907;None;;;S11933;2022_Dec_15_1740;VideoMask;2021.1.2;120.04254307979126;
0.0;f;030_o_f_s_a.jpg;sad;7.0;sad_68.1ns.avi;sad;7.0;congruent;130.0;160.0;158.9411396037211;s_s;;;;;0;14;14;14;;;;;;;221.09325720000197;None;222.6347144000174;222.95127580000553;224.19462020002538;224.2181461;231.50954110000748;None;None;0;;231.50954110000748;None;;;;;;;;5;;;;;;;233.05939130001934;None;None;None;[];233.05939130001934;None;None;;233.05939130001934;None;;;S11933;2022_Dec_15_1740;VideoMask;2021.1.2;120.04254307979126;
0.0;f;030_o_f_h_a.jpg;happy;9.0;sad_127.1.wmv;sad;7.0;incongruent;120.0;160.0;180.59976631384873;h_s;;;;;0;15;15;15;;;;;;;236.0755305000057;None;237.80086180000217;238.12605829999666;239.25111760001164;239.26763129999745;241.25091060000705;None;None;0;;241.25091060000705;None;;;;;;;;3;;;;;;;242.8507299000048;None;None;None;[];242.8507299000048;None;"['7', '7']";"[0.0452363999793306, 1.029193700000178]";242.8507299000048;None;;;S11933;2022_Dec_15_1740;VideoMask;2021.1.2;120.04254307979126;
8.0;m;008_y_m_s_a.jpg;sad;7.0;happy_133.3.wmv;happy;9.0;incongruent;130.0;150.0;152.577966552593;s_h;;;;;0;16;16;16;;;;;;;245.85080890002428;None;247.33390640001744;247.6596142000053;248.78385740000522;248.80051490000915;250.78390890001901;None;9;0;0.9839642999868374;250.78390890001901;None;;;;;;;;7;;;;;;;252.36714360001497;None;None;None;[];252.36714360001497;None;"['9', '9']";"[0.536822399997618, 0.8968649999878835]";252.36714360001497;None;;;S11933;2022_Dec_15_1740;VideoMask;2021.1.2;120.04254307979126;
3.0;m;033_o_m_h_a.jpg;happy;9.0;sad_128.1.wmv;sad;7.0;incongruent;120.0;160.0;171.0492454518585;h_s;;;;;0;17;17;17;;;;;;;255.3756660000072;None;257.0169836000132;257.33331080002245;258.4753726000199;258.49204330000794;260.4670124000113;None;8;0;0.9407825999951456;260.4670124000113;None;;;;;;;;4;;;;;;;262.01682070002425;None;None;None;[];262.01682070002425;None;['7'];[1.4631432000023779];262.01682070002425;None;;;S11933;2022_Dec_15_1740;VideoMask;2021.1.2;120.04254307979126;
1.0;f;021_o_f_h_a.jpg;happy;9.0;sad_116.1.wmv;sad;7.0;incongruent;120.0;160.0;184.06847610053055;h_s;;;;;0;18;18;18;;;;;;;265.0253704000206;None;266.77501250000205;267.10003120001056;268.23331380001036;268.25002140001743;270.2248520000139;None;7;0;1.0548742999962997;270.2248520000139;None;;;;;;;;4;;;;;;;271.77490410002065;None;None;None;[];271.77490410002065;None;['7'];[0.929054999985965];271.77490410002065;None;;;S11933;2022_Dec_15_1740;VideoMask;2021.1.2;120.04254307979126;
4.0;m;004_o_m_s_a.jpg;sad;7.0;happy_28.1ns.avi;happy;9.0;incongruent;130.0;150.0;157.40741103039684;s_h;;;;;0;19;19;19;;;;;;;274.7834574000153;None;276.2996131000109;276.616468000022;277.8996119000076;277.91636660002405;282.14159720001044;None;9;0;0.4662360000074841;282.14159720001044;None;;;;;;;;7;;;;;;;283.6995028000092;None;None;None;[];283.6995028000092;None;"['9', '9']";"[0.5245014000101946, 1.212527499999851]";283.6995028000092;None;;;S11933;2022_Dec_15_1740;VideoMask;2021.1.2;120.04254307979126;
8.0;f;028_y_f_s_a.jpg;sad;7.0;happy_122.3.wmv;happy;9.0;incongruent;130.0;150.0;171.8670540936116;s_h;;;;;0;20;20;20;;;;;;;286.7077045000042;None;288.34924160002265;288.66600180001114;289.7991614000057;289.815842800017;291.79922620000434;None;9;0;0.34445279999636114;291.79922620000434;None;;;;;;;;9;;;;;;;293.3491553000058;None;None;None;[];293.3491553000058;None;"['9', '9', '9', '9']";"[0.3467724000220187, 0.554597600013949, 0.6825904000143055, 0.8345836999942549]";293.3491553000058;None;;;S11933;2022_Dec_15_1740;VideoMask;2021.1.2;120.04254307979126;
8.0;m;008_y_m_s_a.jpg;sad;7.0;sad_6.5ns.avi;sad;7.0;congruent;130.0;160.0;170.39333839271438;s_s;;;;;0;21;21;21;;;;;;;296.3573665000149;None;297.99059080000734;298.30693849999807;299.44892600001185;299.46560350002255;304.44042710002395;None;7;0;0.5674881000013556;304.44042710002395;None;;;;;;;;3;;;;;;;305.9904199000157;None;None;None;[];305.9904199000157;None;"['7', '7']";"[0.5932557999913115, 0.9054349999933038]";305.9904199000157;None;;;S11933;2022_Dec_15_1740;VideoMask;2021.1.2;120.04254307979126;
8.0;f;028_y_f_h_a.jpg;happy;9.0;happy_23.1ns.avi;happy;9.0;congruent;120.0;150.0;225.70986890587952;h_h;;;;;0;22;22;22;;;;;;;308.99080470000627;None;311.3735159000207;311.6902394000208;312.8567194000061;312.8735367000045;317.39842569999746;None;9;0;1.0094964999880176;317.39842569999746;None;;;;;;;;7;;;;;;;318.9565950000251;None;None;None;[];318.9565950000251;None;"['9', '9', '9']";"[0.6194139999861363, 0.85920769997756, 1.459224299993366]";318.9565950000251;None;;;S11933;2022_Dec_15_1740;VideoMask;2021.1.2;120.04254307979126;
8.0;m;008_y_m_h_a.jpg;happy;9.0;sad_111.1.wmv;sad;7.0;incongruent;120.0;160.0;152.63076835312847;h_s;;;;;0;23;23;23;;;;;;;321.9653363000252;None;323.45646350001334;323.78151660002186;324.91485500001;324.93165549999685;326.90648220002186;None;7;0;1.4214461999945343;326.90648220002186;None;;;;;;;;4;;;;;;;328.6313284000207;None;None;None;[];328.6313284000207;None;['7'];[1.2165061999985483];328.6313284000207;None;;;S11933;2022_Dec_15_1740;VideoMask;2021.1.2;120.04254307979126;
0.0;f;040_y_f_s_a.jpg;sad;7.0;sad_67.2ns.avi;sad;7.0;congruent;130.0;160.0;220.9892697323079;s_s;;;;;0;24;24;24;;;;;;;331.63173350002035;None;333.7061312000151;334.02243330000783;335.18953660002444;335.2061356000195;344.38087990001077;None;8;0;0.8430474000051618;344.38087990001077;None;;;;;;;;5;;;;;;;345.93075410000165;None;None;None;[];345.93075410000165;None;None;;345.93075410000165;None;;;S11933;2022_Dec_15_1740;VideoMask;2021.1.2;120.04254307979126;
8.0;m;008_y_m_s_a.jpg;sad;7.0;happy_29.1ns.avi;happy;9.0;incongruent;130.0;150.0;120.0316142834122;s_h;;;;;0;25;25;25;;;;;;;348.9639756999968;None;350.18049739999697;350.49715080001624;351.6471897000156;351.6637494000024;354.3488040000084;None;9;0;0.8188359999912791;354.3488040000084;None;;;;;;;;6;;;;;;;355.9221042999998;None;None;None;[];355.9221042999998;None;['9'];[1.1896780999959446];355.9221042999998;None;;;S11933;2022_Dec_15_1740;VideoMask;2021.1.2;120.04254307979126;
6.0;m;016_y_m_s_a.jpg;sad;7.0;sad_8.3ns.avi;sad;7.0;congruent;130.0;160.0;152.85371098242734;s_s;;;;;0;26;26;26;;;;;;;358.92225340000005;None;360.4135771000001;360.72990570002;361.9051995000045;361.9218962000159;369.6299883000029;None;7;0;0.8659449999977369;369.6299883000029;None;;;;;;;;4;;;;;;;371.17996080001467;None;None;None;[];371.17996080001467;None;['7'];[0.7797325999999885];371.17996080001467;None;;;S11933;2022_Dec_15_1740;VideoMask;2021.1.2;120.04254307979126;
6.0;m;016_y_m_h_a.jpg;happy;9.0;sad_114.1.wmv;sad;7.0;incongruent;120.0;160.0;136.20550699298644;h_s;;;;;0;27;27;27;;;;;;;374.17985040001804;None;375.53808880000724;375.85465390002355;377.01311030000215;377.0296254999994;378.9880724000104;None;7;0;1.2837352000060491;378.9880724000104;None;;;;;;;;3;;;;;;;380.5379627000075;None;None;None;[];380.5379627000075;None;"['7', '7']";"[0.5979440000082832, 0.7976874000160024]";380.5379627000075;None;;;S11933;2022_Dec_15_1740;VideoMask;2021.1.2;120.04254307979126;
7.0;m;027_o_m_s_a.jpg;sad;7.0;happy_117.3.wmv;happy;9.0;incongruent;130.0;150.0;215.61964028550614;s_h;;;;;0;28;28;28;;;;;;;383.54636080001364;None;385.5461142999993;385.8711191000184;386.99621240000124;387.01277729999856;388.99608540002373;None;None;0;;388.99608540002373;None;;;;;;;;4;;;;;;;390.545903500024;None;None;None;[];390.545903500024;None;['7'];[0.1979492999962531];390.545903500024;None;;;S11933;2022_Dec_15_1740;VideoMask;2021.1.2;120.04254307979126;
6.0;m;016_y_m_h_a.jpg;happy;9.0;happy_9.2ns.avi;happy;9.0;congruent;120.0;150.0;130.52042428082717;h_h;;;;;0;29;29;29;;;;;;;393.5548071000085;None;394.8624344000127;395.17906590001076;396.34601790001034;396.3624663000228;402.2373030000017;None;9;0;0.7547048999986146;402.2373030000017;None;;;;;;;;7;;;;;;;403.7873385999992;None;None;None;[];403.7873385999992;None;"['9', '9', '9']";"[0.4523901999928057, 0.8445205999887548, 1.556554499984486]";403.7873385999992;None;;;S11933;2022_Dec_15_1740;VideoMask;2021.1.2;120.04254307979126;
0.0;f;040_y_f_s_a.jpg;sad;7.0;happy_127.3.wmv;happy;9.0;incongruent;130.0;150.0;131.7195455720239;s_h;;;;;0;30;30;30;;;;;;;406.79572350002127;None;408.1120842000237;408.428697299998;409.5537383000192;409.5703616000246;411.6286597000144;None;9;0;0.739188000006834;411.6286597000144;None;;;;;;;;7;;;;;;;413.1785488000023;None;None;None;[];413.1785488000023;None;"['9', '9']";"[0.5892437000002246, 0.8851097000006121]";413.1785488000023;None;;;S11933;2022_Dec_15_1740;VideoMask;2021.1.2;120.04254307979126;
0.0;f;030_o_f_s_a.jpg;sad;7.0;happy_125.3.wmv;happy;9.0;incongruent;130.0;150.0;220.51454909128134;s_h;;;;;0;31;31;31;;;;;;;416.1786927000212;None;418.2284015000041;418.5449006000126;419.67834559999756;419.6950316000148;421.67831720001413;None;9;0;1.297496899991529;421.67831720001413;None;;;;;;;;6;;;;;;;423.22828680000384;None;None;None;[];423.22828680000384;None;['9'];[0.4598003000137396];423.22828680000384;None;;;S11933;2022_Dec_15_1740;VideoMask;2021.1.2;120.04254307979126;
0.0;f;030_o_f_s_a.jpg;sad;7.0;sad_64.3ns.avi;sad;7.0;congruent;130.0;160.0;165.78667874766072;s_s;;;;;0;32;32;32;;;;;;;426.22840580000775;None;427.8364081000036;428.15315630001714;429.4113772000128;429.42804270001943;434.28620319999754;None;7;0;0.913389699999243;434.28620319999754;None;;;;;;;;2;;;;;;;435.8361103000061;None;None;None;[];435.8361103000061;None;"['7', '7', '7']";"[0.4276335000176914, 0.6596283999970183, 1.0197636000229977]";435.8361103000061;None;;;S11933;2022_Dec_15_1740;VideoMask;2021.1.2;120.04254307979126;
3.0;m;013_y_m_s_a.jpg;sad;7.0;sad_7.7ns.avi;sad;7.0;congruent;130.0;160.0;196.24182255763262;s_s;;;;;0;33;33;33;;;;;;;438.83653630001936;None;440.69426499999827;441.01953730001696;442.16068190001533;442.177577800001;448.1440935000137;None;8;0;1.1036628999863751;448.1440935000137;None;;;;;;;;5;;;;;;;449.69400710001355;None;None;None;[];449.69400710001355;None;None;;449.69400710001355;None;;;S11933;2022_Dec_15_1740;VideoMask;2021.1.2;120.04254307979126;
3.0;m;013_y_m_h_a.jpg;happy;9.0;happy_9.1ns.avi;happy;9.0;congruent;120.0;150.0;165.1890303600433;h_h;;;;;0;34;34;34;;;;;;;452.72724619999644;None;454.3104155000183;454.6270933000196;455.7616086000053;455.78568290002295;458.9853686999995;None;9;0;0.8543370999977924;458.9853686999995;None;;;;;;;;8;;;;;;;460.53533590000006;None;None;None;[];460.53533590000006;None;"['9', '9', '9']";"[0.4407925000123214, 0.7202200000174344, 1.3123912000155542]";460.53533590000006;None;;;S11933;2022_Dec_15_1740;VideoMask;2021.1.2;120.04254307979126;
4.0;m;004_o_m_h_a.jpg;happy;9.0;sad_95.1ns.avi;sad;7.0;incongruent;120.0;160.0;152.68270002069931;h_s;;;;;0;35;35;35;;;;;;;463.5357586000173;None;465.04352850001305;465.3597815000103;466.54351400001906;466.56014360001427;475.28508580001653;None;7;0;0.9387044000031892;475.28508580001653;None;;;;;;;;2;;;;;;;476.8431110000238;None;None;None;[];476.8431110000238;None;"['7', '7', '7']";"[0.6768501999904402, 0.9807042999891564, 1.332477399992058]";476.8431110000238;None;;;S11933;2022_Dec_15_1740;VideoMask;2021.1.2;120.04254307979126;
3.0;m;013_y_m_h_a.jpg;happy;9.0;sad_113.2.wmv;sad;7.0;incongruent;120.0;160.0;217.4973891947951;h_s;;;;;0;36;36;36;;;;;;;479.84342489999835;None;481.8762313000043;482.19257320000906;483.3430162000004;483.35957070000586;485.3260842000018;None;None;0;;485.3260842000018;None;;;;;;;;4;;;;;;;486.884341099998;None;None;None;[];486.884341099998;None;['7'];[0.1873255000100471];486.884341099998;None;;;S11933;2022_Dec_15_1740;VideoMask;2021.1.2;120.04254307979126;
4.0;m;004_o_m_h_a.jpg;happy;9.0;happy_25.1ns.avi;happy;9.0;congruent;120.0;150.0;216.63044503818386;h_h;;;;;0;37;37;37;;;;;;;489.87654320002184;None;491.88424539999687;492.2006410000031;493.36763520000386;493.384251600015;497.026176400017;None;9;0;0.5177113999961875;497.026176400017;None;;;;;;;;6;;;;;;;498.5840609000006;None;None;None;[];498.5840609000006;None;"['9', '9', '9']";"[0.31179719997453503, 1.0958056999952532, 1.735743099998217]";498.5840609000006;None;;;S11933;2022_Dec_15_1740;VideoMask;2021.1.2;120.04254307979126;
4.0;m;004_o_m_s_a.jpg;sad;7.0;happy_131.2.wmv;happy;9.0;incongruent;130.0;150.0;181.38407540847405;s_h;;;;;0;38;38;38;;;;;;;501.5927964000148;None;503.3255849000125;503.6422019000165;504.77547380002216;504.79221470002085;506.77550489999703;None;9;0;0.8884543000021949;506.77550489999703;None;;;;;;;;6;;;;;;;508.3254091000126;None;None;None;[];508.3254091000126;None;['9'];[0.6904047999996692];508.3254091000126;None;;;S11933;2022_Dec_15_1740;VideoMask;2021.1.2;120.04254307979126;
0.0;f;040_y_f_h_a.jpg;happy;9.0;happy_24.3ns.avi;happy;9.0;congruent;120.0;150.0;213.25460698950434;h_h;;;;;0;39;39;39;;;;;;;511.32560900002136;None;513.3085040000151;513.6248863000073;514.8501754000026;514.8667561000038;516.6834765000094;None;9;0;0.9562596000032499;516.6834765000094;None;;;;;;;;7;;;;;;;518.2334421999985;None;None;None;[];518.2334421999985;None;"['9', '9']";"[0.5104645999963395, 0.7662073999817949]";518.2334421999985;None;;;S11933;2022_Dec_15_1740;VideoMask;2021.1.2;120.04254307979126;
2.0;f;012_o_f_s_a.jpg;sad;7.0;happy_139.1.wmv;happy;9.0;incongruent;130.0;150.0;162.31500468041804;s_h;;;;;0;40;40;40;;;;;;;521.2421791000233;None;522.8165794000088;523.1329685000237;524.2749022000062;524.2915840000205;526.2664266000211;None;9;0;0.7254621999745723;526.2664266000211;None;;;;;;;;7;;;;;;;527.8163456000038;None;None;None;[];527.8163456000038;None;"['9', '9', '9']";"[0.7433906000223942, 1.1114378000202123, 1.471519000013359]";527.8163456000038;None;;;S11933;2022_Dec_15_1740;VideoMask;2021.1.2;120.04254307979126;
0.0;f;030_o_f_h_a.jpg;happy;9.0;happy_24.1ns.avi;happy;9.0;congruent;120.0;150.0;168.36256624020774;h_h;;;;;0;41;41;41;;;;;;;530.8248625000124;None;532.4329571000126;532.7579455000232;533.9827802000218;533.9994452000246;537.2078510000138;None;9;0;0.8397086999902967;537.2078510000138;None;;;;;;;;7;;;;;;;538.7577623000252;None;None;None;[];538.7577623000252;None;"['9', '9']";"[0.41021629999158904, 0.6897090999991633]";538.7577623000252;None;;;S11933;2022_Dec_15_1740;VideoMask;2021.1.2;120.04254307979126;
2.0;f;012_o_f_h_a.jpg;happy;9.0;sad_113.1.wmv;sad;7.0;incongruent;120.0;160.0;177.44551734737394;h_s;;;;;0;42;42;42;;;;;;;541.7662462000153;None;543.4575908000115;543.774078300019;544.9158602000098;544.9324971000024;546.9074950000213;None;7;0;1.2122648999793455;546.9074950000213;None;;;;;;;;3;;;;;;;548.4574222000083;None;None;None;[];548.4574222000083;None;"['7', '7']";"[0.5104526000213809, 0.8461881999974139]";548.4574222000083;None;;;S11933;2022_Dec_15_1740;VideoMask;2021.1.2;120.04254307979126;
3.0;m;033_o_m_s_a.jpg;sad;7.0;sad_64.5ns.avi;sad;7.0;congruent;130.0;160.0;130.55717223801247;s_s;;;;;0;43;43;43;;;;;;;551.4661090000009;None;552.7739339999971;553.0902498000069;554.3323558999982;554.3487947999965;560.8070685999992;None;7;0;1.0725908000022173;560.8070685999992;None;;;;;;;;4;;;;;;;562.3570736999973;None;None;None;[];562.3570736999973;None;['7'];[0.6265503999893554];562.3570736999973;None;;;S11933;2022_Dec_15_1740;VideoMask;2021.1.2;120.04254307979126;
7.0;m;027_o_m_h_a.jpg;happy;9.0;sad_117.1.wmv;sad;7.0;incongruent;120.0;160.0;181.28665202824095;h_s;;;;;0;44;44;44;;;;;;;565.3573430000106;None;567.0900824000128;567.4064724000054;568.5734939000104;568.5901490000251;570.5400611000077;None;8;0;1.1637544000113849;570.5400611000077;None;;;;;;;;5;;;;;;;572.0899761000182;None;None;None;[];572.0899761000182;None;None;;572.0899761000182;None;;;S11933;2022_Dec_15_1740;VideoMask;2021.1.2;120.04254307979126;
3.0;m;033_o_m_s_a.jpg;sad;7.0;happy_126.3.wmv;happy;9.0;incongruent;130.0;150.0;198.85252030535366;s_h;;;;;0;45;45;45;;;;;;;575.1232862000179;None;576.9898193000117;577.3059650000068;578.4480062000221;578.4647476000246;580.4481464000128;None;9;0;0.9994371999928262;580.4481464000128;None;;;;;;;;7;;;;;;;581.9979875000136;None;None;None;[];581.9979875000136;None;"['9', '9', '9']";"[0.5217088000208605, 0.9855862999975216, 1.5216417000046931]";581.9979875000136;None;;;S11933;2022_Dec_15_1740;VideoMask;2021.1.2;120.04254307979126;
3.0;m;033_o_m_h_a.jpg;happy;9.0;sad_136.1.wmv;sad;7.0;incongruent;120.0;160.0;176.97002883463455;h_s;;;;;0;46;46;46;;;;;;;584.9981113000249;None;586.6894752000226;587.0145035000169;588.1394885000191;588.1562325000123;590.1393879000098;None;7;0;0.956211099983193;590.1393879000098;None;;;;;;;;2;;;;;;;591.6893618000031;None;None;None;[];591.6893618000031;None;"['7', '7', '7', '7', '7', '7', '7']";"[0.7023038999759592, 0.9103531999862753, 1.2703383999760263, 1.4701187999744434, 1.8862527999735903, 2.3262205999926664, 2.918520899984287]";591.6893618000031;None;;;S11933;2022_Dec_15_1740;VideoMask;2021.1.2;120.04254307979126;
9.0;f;019_m_f_h_a.jpg;happy;9.0;happy_10.1ns.avi;happy;9.0;congruent;120.0;150.0;157.2463435658512;h_h;;;;;0;47;47;47;;;;;;;594.689368100022;None;596.2225326000189;596.5390689000196;597.7642211000202;597.7807526999968;605.1221934000205;None;9;0;0.7174653999973089;605.1221934000205;None;;;;;;;;7;;;;;;;606.6721787000133;None;None;None;[];606.6721787000133;None;"['9', '9']";"[0.5033543999888934, 0.9435075999936089]";606.6721787000133;None;;;S11933;2022_Dec_15_1740;VideoMask;2021.1.2;120.04254307979126;
2.0;f;012_o_f_h_a.jpg;happy;9.0;happy_2.2ns.avi;happy;9.0;congruent;120.0;150.0;206.34800317295262;h_h;;;;;0;48;48;48;;;;;;;609.680941700004;None;611.6554774999968;611.9804013000103;613.1636444000178;613.1803376000025;625.3142921000253;None;9;0;0.5493705999979284;625.3142921000253;None;;;;;;;;9;;;;;;;626.95484760002;None;None;None;[];626.95484760002;None;"['9', '9', '9', '9']";"[0.2687562000064645, 0.5086311000050046, 0.9248307999805547, 1.364621199987596]";626.95484760002;None;;;S11933;2022_Dec_15_1740;VideoMask;2021.1.2;120.04254307979126;
3.0;m;033_o_m_h_a.jpg;happy;9.0;happy_24.2ns.avi;happy;9.0;congruent;120.0;150.0;167.9423847659953;h_h;;;;;0;49;49;49;;;;;;;629.9630674000073;None;631.5546598000219;631.8709940999979;633.0213923999981;633.0379971000075;636.7461445000081;None;9;0;0.7414598999894224;636.7461445000081;None;;;;;;;;7;;;;;;;638.2962563000037;None;None;None;[];638.2962563000037;None;"['9', '9']";"[0.4075666000135243, 0.7671739000070374]";638.2962563000037;None;;;S11933;2022_Dec_15_1740;VideoMask;2021.1.2;120.04254307979126;
1.0;f;021_o_f_s_a.jpg;sad;7.0;happy_61.2ns.avi;happy;9.0;incongruent;130.0;150.0;210.94664004826666;s_h;;;;;0;50;50;50;;;;;;;641.2961983999994;None;643.254248000012;643.5705887000076;644.76256990002;644.779182600003;649.2290976000077;None;9;0;0.35449440000229515;649.2290976000077;None;;;;;;;;9;;;;;;;650.7790546000178;None;None;None;[];650.7790546000178;None;"['9', '9', '9', '9']";"[0.3806167999864556, 0.604405099991709, 0.9483968999993522, 1.2604112999979407]";650.7790546000178;None;;;S11933;2022_Dec_15_1740;VideoMask;2021.1.2;120.04254307979126;
4.0;m;004_o_m_s_a.jpg;sad;7.0;sad_2.4ns.avi;sad;7.0;congruent;130.0;160.0;153.02079367163634;s_s;;;;;0;51;51;51;;;;;;;653.7789782000182;None;655.3038606000191;655.6201629000134;656.8703599;656.8870893999992;664.7386247999966;None;7;0;0.8369138000125531;664.7386247999966;None;;;;;;;;4;;;;;;;666.4285420000087;None;None;None;[];666.4285420000087;None;['7'];[0.5953537000168581];666.4285420000087;None;;;S11933;2022_Dec_15_1740;VideoMask;2021.1.2;120.04254307979126;
8.0;m;008_y_m_h_a.jpg;happy;9.0;happy_1.2ns.avi;happy;9.0;congruent;120.0;150.0;210.98946429383824;h_h;;;;;0;52;52;52;;;;;;;669.4288901000109;None;671.428435400012;671.7449206000019;672.9700286000152;672.9865889000066;685.6794835000183;None;9;0;0.41618719999678433;685.6794835000183;None;;;;;;;;9;;;;;;;687.3611800000072;None;None;None;[];687.3611800000072;None;"['9', '9', '9', '9']";"[0.5344574000046123, 0.7983493000210728, 1.110413000016706, 1.4385557000059634]";687.3611800000072;None;;;S11933;2022_Dec_15_1740;VideoMask;2021.1.2;120.04254307979126;
2.0;f;012_o_f_s_a.jpg;sad;7.0;happy_52.2ns.avi;happy;9.0;incongruent;130.0;150.0;172.57202848318138;s_h;;;;;0;53;53;53;;;;;;;690.3613677000103;None;691.9943309000228;692.310997499997;693.4960677000054;693.5360208000056;696.9942374000093;None;9;0;0.9092402000096627;696.9942374000093;None;;;;;;;;7;;;;;;;698.5441315000062;None;None;None;[];698.5441315000062;None;"['9', '9']";"[0.3596337000199128, 0.6312057000177447]";698.5441315000062;None;;;S11933;2022_Dec_15_1740;VideoMask;2021.1.2;120.04254307979126;
9.0;f;019_m_f_s_a.jpg;sad;7.0;happy_61.1ns.avi;happy;9.0;incongruent;130.0;150.0;181.3003220572762;s_h;;;;;0;54;54;54;;;;;;;701.5610532000137;None;703.2938488000073;703.6107402000052;704.8023957000114;704.8190029000107;712.1615037000156;None;9;0;0.542006500007119;712.1615037000156;None;;;;;;;;9;;;;;;;713.726973700017;None;None;None;[];713.726973700017;None;"['9', '9', '9', '9']";"[0.44057440001051873, 0.6406546999933198, 0.8485076999932062, 1.024461599998176]";713.726973700017;None;;;S11933;2022_Dec_15_1740;VideoMask;2021.1.2;120.04254307979126;
0.0;f;030_o_f_h_a.jpg;happy;9.0;sad_133.1.wmv;sad;7.0;incongruent;120.0;160.0;198.86251500867985;h_s;;;;;0;55;55;55;;;;;;;716.7355350000144;None;718.6101463000232;718.9351882000046;720.0601236000075;720.0768652000115;722.0600215000159;None;7;0;0.41136649998952635;722.0600215000159;None;;;;;;;;3;;;;;;;723.6099991000083;None;None;None;[];723.6099991000083;None;"['7', '7']";"[0.4133915000129491, 1.205501100019319]";723.6099991000083;None;;;S11933;2022_Dec_15_1740;VideoMask;2021.1.2;120.04254307979126;
0.0;f;040_y_f_h_a.jpg;happy;9.0;sad_128.2.wmv;sad;7.0;incongruent;120.0;160.0;206.10005857915363;h_s;;;;;0;56;56;56;;;;;;;726.6102369000146;None;728.5514813000045;728.8681328000093;730.0263410000189;730.0430871999997;732.0014162000152;None;7;0;0.8459707000001799;732.0014162000152;None;;;;;;;;2;;;;;;;733.5513321000035;None;None;None;[];733.5513321000035;None;"['7', '7', '7']";"[0.4480868999962695, 0.7841841999907047, 1.3840460999927018]";733.5513321000035;None;;;S11933;2022_Dec_15_1740;VideoMask;2021.1.2;120.04254307979126;
1.0;f;021_o_f_s_a.jpg;sad;7.0;sad_9.5ns.avi;sad;7.0;congruent;130.0;160.0;206.16642757875042;s_s;;;;;0;57;57;57;;;;;;;736.5594031000219;None;738.4927192000032;738.8094794000208;739.9511885000102;739.9678124000202;745.6676245999988;None;7;0;0.5158624000032432;745.6676245999988;None;;;;;;;;1;;;;;;;747.2258833000087;None;None;None;[];747.2258833000087;None;"['7', '7', '7', '7', '7']";"[0.4055677000142168, 0.5815710000169929, 0.7417220000061207, 0.8775318000116386, 1.2700297000119463]";747.2258833000087;None;;;S11933;2022_Dec_15_1740;VideoMask;2021.1.2;120.04254307979126;
1.0;f;021_o_f_h_a.jpg;happy;9.0;happy_12.1ns.avi;happy;9.0;congruent;120.0;150.0;132.59080005900228;h_h;;;;;0;58;58;58;;;;;;;750.2263282000204;None;751.5673601000162;751.8837064000254;753.025706800021;753.042377500009;760.6337807000091;None;8;0;0.7337720000068657;760.6337807000091;None;;;;;;;;5;;;;;;;762.1837338000187;None;None;None;[];762.1837338000187;None;None;;762.1837338000187;None;;;S11933;2022_Dec_15_1740;VideoMask;2021.1.2;120.04254307979126;
3.0;m;013_y_m_s_a.jpg;sad;7.0;happy_56.2ns.avi;happy;9.0;incongruent;130.0;150.0;163.39234110935848;s_h;;;;;0;59;59;59;;;;;;;765.2168603000173;None;766.8001258000149;767.1165297999978;768.466899400024;768.4835297000245;773.2750286000082;None;9;0;0.7003371999890078;773.2750286000082;None;;;;;;;;8;;;;;;;774.8249422000081;None;None;None;[];774.8249422000081;None;"['9', '9', '9', '9']";"[0.4625790000136476, 0.686418400000548, 0.9264552000095136, 1.1425117000180762]";774.8249422000081;None;;;S11933;2022_Dec_15_1740;VideoMask;2021.1.2;120.04254307979126;
;;;;;;;;;;;;;;;;;;;;;;;;;;;;;;;;;;;;;;;;;;;;;;;;;;;;;;;;;;;;;;;;;777.8334438000165;None;;;;;;
