primePerson;primeGender;prime;primeEmotion;corrAnsPrime;target;targetEmotion;corrAnsTar;Cond;ID_Primer;ID_Target;JitterTime;Condition;example.thisRepN;example.thisTrialN;example.thisN;example.thisIndex;study.thisRepN;study.thisTrialN;study.thisN;study.thisIndex;MR_trigger_time;MR_trigger_number;text_intro.started;text_intro.stopped;text_probe.started;text_probe.stopped;polygon_ISI.started;polygon_ISI.stopped;polygon.started;polygon.stopped;primerImage.started;primerImage.stopped;response.started;response.stopped;key_resp.keys;key_resp.corr;key_resp.rt;key_resp.started;key_resp.stopped;slider_Text.started;slider_Text.stopped;slider_ex.response;slider_ex.rt;slider_ex.history;slider_ex.started;slider_ex.stopped;Rating;slider_resp_response.keys;slider_resp_response.started;slider_resp_response.stopped;text_start.started;text_start.stopped;text_slider.started;text_slider.stopped;slider_stud.response;slider_stud.rt;slider_stud.history;slider_stud.started;slider_stud.stopped;slider_resp_study.keys;slider_resp_study.started;slider_resp_study.stopped;slider_resp_study.rt;text_ende.started;text_ende.stopped;participant;date;expName;psychopyVersion;frameRate;
1111;m;1111_m_m_h_a.jpg;happy;9;example_30.4ns.avi;neutral;7;incongruent;120.0;170.0;189.5874364012288;;0;0;0;0;;;;;46.96855570000025;1;47.0804205000004;49.08054240000001;49.08054240000001;None;51.07204079999974;None;53.388765599999715;53.722231400000055;54.85538980000001;54.87218240000038;59.180241000000024;None;8;0;0.5438722999997481;59.180241000000024;None;60.738443299999744;None;None;None;[];60.738443299999744;None;5;None;60.738443299999744;None;;;;;;;;;;;;;;;;S11898;2022_Dec_01_1751;VideoMask;2021.1.2;120.02064355025647;
1113;f;1113_y_f_s_a.jpg;sad;7;example_30.3ns.avi;neutral;7;incongruent;130.0;170.0;229.02432995836998;;0;1;1;1;;;;;;;;;;;63.73828030000004;None;65.8631949999999;66.17991530000018;67.3050973999998;67.32156159999977;69.31311040000037;None;None;0;;69.31311040000037;None;70.85466059999999;None;None;None;[];70.85466059999999;None;5;None;70.85466059999999;None;;;;;;;;;;;;;;;;S11898;2022_Dec_01_1751;VideoMask;2021.1.2;120.02064355025647;
9.0;f;019_m_f_h_a.jpg;happy;9.0;sad_115.1.wmv;sad;7.0;incongruent;120.0;160.0;128.09063432376465;h_s;;;;;0;0;0;0;;;;;;;74.90462920000027;None;76.19635689999996;76.5129035;77.63792590000048;77.65462019999995;79.66287430000011;None;7;0;0.5333338000000367;79.66287430000011;None;;;;;;;;5;;;;73.87963670000045;None;81.21280980000029;None;None;None;[];81.21280980000029;None;None;81.21280980000029;None;;;;S11898;2022_Dec_01_1751;VideoMask;2021.1.2;120.02064355025647;
3.0;m;033_o_m_s_a.jpg;sad;7.0;sad_94.2ns.avi;sad;7.0;congruent;130.0;160.0;182.29120173647655;s_s;;;;;0;1;1;1;;;;;;;84.22926009999992;None;85.97096580000016;86.28749930000049;87.41286519999994;87.42923900000005;90.11240019999968;None;7;0;0.4840007000002515;90.11240019999968;None;;;;;;;;3;;;;;;91.66243519999989;None;None;None;[];91.66243519999989;None;"['7', '7']";91.66243519999989;None;"[0.4301273000000947, 1.8538924000004045]";;;S11898;2022_Dec_01_1751;VideoMask;2021.1.2;120.02064355025647;
8.0;m;008_y_m_h_a.jpg;happy;9.0;happy_26.1ns.avi;happy;9.0;congruent;120.0;150.0;155.9437854594882;h_h;;;;;0;2;2;2;;;;;;;94.66237439999986;None;96.16216150000037;96.47902630000044;97.6040823000003;97.62062229999992;99.6039154;None;9;0;0.6004487999998673;99.6039154;None;;;;;;;;7;;;;;;101.15369800000008;None;None;None;[];101.15369800000008;None;"['9', '9', '9']";101.15369800000008;None;"[0.4507718000004388, 0.8590291000000434, 1.1945871000007173]";;;S11898;2022_Dec_01_1751;VideoMask;2021.1.2;120.02064355025647;
0.0;f;040_y_f_h_a.jpg;happy;9.0;sad_138.1.wmv;sad;7.0;incongruent;120.0;160.0;133.99071306426532;h_s;;;;;0;3;3;3;;;;;;;104.15377700000045;None;105.4869475000005;105.80365429999983;106.93722499999967;106.95371849999992;108.93699259999994;None;None;0;;108.93699259999994;None;;;;;;;;3;;;;;;110.47841750000043;None;None;None;[];110.47841750000043;None;"['7', '7', '7']";110.47841750000043;None;"[0.2620362000006935, 0.8859713000001648, 1.8780396000001929]";;;S11898;2022_Dec_01_1751;VideoMask;2021.1.2;120.02064355025647;
8.0;f;028_y_f_s_a.jpg;sad;7.0;sad_64.2ns.avi;sad;7.0;congruent;130.0;160.0;229.88540597086478;s_s;;;;;0;4;4;4;;;;;;;113.48670790000051;None;115.67835680000007;115.99501119999968;117.12017689999993;117.13675260000036;128.12802809999994;None;7;0;0.4604294000000664;128.12802809999994;None;;;;;;;;3;;;;;;129.70285950000016;None;None;None;[];129.70285950000016;None;"['7', '7']";129.70285950000016;None;"[0.029559200000221608, 0.6215935000000172]";;;S11898;2022_Dec_01_1751;VideoMask;2021.1.2;120.02064355025647;
7.0;m;027_o_m_s_a.jpg;sad;7.0;sad_10.4ns.avi;sad;7.0;congruent;130.0;160.0;185.20129417468752;s_s;;;;;0;5;5;5;;;;;;;132.70281429999977;None;134.4610050000001;134.7777742999997;135.9029061000001;135.9196025000001;139.07759590000023;None;7;0;0.46264110000083747;139.07759590000023;None;;;;;;;;2;;;;;;140.65249920000042;None;None;None;[];140.65249920000042;None;"['7', '7', '7', '7']";140.65249920000042;None;"[0.2720291999994515, 0.5358160999994652, 0.7837786000000051, 1.1118954999992638]";;;S11898;2022_Dec_01_1751;VideoMask;2021.1.2;120.02064355025647;
2.0;f;012_o_f_s_a.jpg;sad;7.0;sad_7.5ns.avi;sad;7.0;congruent;130.0;160.0;220.27842655424388;s_s;;;;;0;6;6;6;;;;;;;143.65244989999974;None;145.6940381000004;146.01075320000018;147.13575149999997;147.1524440000003;149.9355728999999;None;7;0;0.5088890000006359;149.9355728999999;None;;;;;;;;3;;;;;;151.50216379999983;None;None;None;[];151.50216379999983;None;"['7', '7']";151.50216379999983;None;"[0.5741317999991224, 1.182149099999151]";;;S11898;2022_Dec_01_1751;VideoMask;2021.1.2;120.02064355025647;
2.0;f;012_o_f_h_a.jpg;happy;9.0;happy_27.1ns.avi;happy;9.0;congruent;120.0;150.0;146.44967055810616;h_h;;;;;0;7;7;7;;;;;;;154.50204930000018;None;155.9187191000001;156.23535840000022;157.36055420000048;157.37704290000056;159.86028290000013;None;9;0;0.4322206999995615;159.86028290000013;None;;;;;;;;6;;;;;;161.41017610000017;None;None;None;[];161.41017610000017;None;['9'];161.41017610000017;None;[0.44996609999998327];;;S11898;2022_Dec_01_1751;VideoMask;2021.1.2;120.02064355025647;
8.0;f;028_y_f_h_a.jpg;happy;9.0;sad_119.1.wmv;sad;7.0;incongruent;120.0;160.0;148.71526953572538;h_s;;;;;0;8;8;8;;;;;;;164.4100939;None;165.86841410000034;166.1851118000004;167.3102243000003;167.32674810000026;169.3849269000002;None;7;0;0.3952966999995624;169.3849269000002;None;;;;;;;;5;;;;;;170.93483259999994;None;None;None;[];170.93483259999994;None;None;170.93483259999994;None;;;;S11898;2022_Dec_01_1751;VideoMask;2021.1.2;120.02064355025647;
6.0;m;016_y_m_s_a.jpg;sad;7.0;happy_60.4ns.avi;happy;9.0;incongruent;130.0;150.0;126.02367393611817;s_h;;;;;0;9;9;9;;;;;;;173.95134849999977;None;175.25166069999977;175.5680924999997;176.6931727000001;176.7097845999997;182.49284290000014;None;9;0;0.4314616000001479;182.49284290000014;None;;;;;;;;5;;;;;;184.0428063999998;None;None;None;[];184.0428063999998;None;"['9', '9', '9']";184.0428063999998;None;"[0.36980750000020635, 1.1776093999997101, 2.1775809999999183]";;;S11898;2022_Dec_01_1751;VideoMask;2021.1.2;120.02064355025647;
9.0;f;019_m_f_s_a.jpg;sad;7.0;sad_8.4ns.avi;sad;7.0;congruent;130.0;160.0;171.6633093155257;s_s;;;;;0;10;10;10;;;;;;;187.04266430000007;None;188.7092115000005;189.02603330000056;190.15117069999997;190.1676739000004;198.29233870000007;None;7;0;0.35996739999973215;198.29233870000007;None;;;;;;;;3;;;;;;199.84228950000033;None;None;None;[];199.84228950000033;None;"['7', '7']";199.84228950000033;None;"[0.36208259999966685, 0.7461396999997305]";;;S11898;2022_Dec_01_1751;VideoMask;2021.1.2;120.02064355025647;
4.0;m;004_o_m_h_a.jpg;happy;9.0;happy_1.1ns.avi;happy;9.0;congruent;120.0;150.0;203.50057144619865;h_h;;;;;0;11;11;11;;;;;;;202.84222789999967;None;204.8255082000005;205.1421145000004;206.26732300000003;206.28376430000026;220.75828460000048;None;9;0;0.34995469999921625;220.75828460000048;None;;;;;;;;7;;;;;;222.30818660000023;None;None;None;[];222.30818660000023;None;"['9', '9', '9', '7']";222.30818660000023;None;"[0.02403619999950024, 0.6322035999992295, 1.5923929000000498, 2.6640052999991894]";;;S11898;2022_Dec_01_1751;VideoMask;2021.1.2;120.02064355025647;
7.0;m;027_o_m_h_a.jpg;happy;9.0;happy_20.1ns.avi;happy;9.0;congruent;120.0;150.0;152.91127178874285;h_h;;;;;0;12;12;12;;;;;;;225.30807350000032;None;226.7997488000001;227.11642819999997;228.23306409999986;228.24972739999976;231.26621590000013;None;9;0;0.6660955000006652;231.26621590000013;None;;;;;;;;7;;;;;;232.81616490000033;None;None;None;[];232.81616490000033;None;"['9', '9']";232.81616490000033;None;"[0.31600170000001526, 0.9400065999998333]";;;S11898;2022_Dec_01_1751;VideoMask;2021.1.2;120.02064355025647;
0.0;f;040_y_f_s_a.jpg;sad;7.0;sad_94.3ns.avi;sad;7.0;congruent;130.0;160.0;155.27414203894395;s_s;;;;;0;13;13;13;;;;;;;235.81604620000053;None;237.3160439000003;237.63270250000005;238.75791769999978;238.77437819999977;241.3910378999999;None;7;0;0.4692827999997462;241.3910378999999;None;;;;;;;;2;;;;;;242.93251090000012;None;None;None;[];242.93251090000012;None;"['7', '7', '7', '7']";242.93251090000012;None;"[0.7276534000002357, 1.1518313000005946, 1.5036675999999716, 2.6877305000007254]";;;S11898;2022_Dec_01_1751;VideoMask;2021.1.2;120.02064355025647;
0.0;f;030_o_f_s_a.jpg;sad;7.0;sad_68.1ns.avi;sad;7.0;congruent;130.0;160.0;158.9411396037211;s_s;;;;;0;14;14;14;;;;;;;245.932452;None;247.4907874999999;247.80742439999995;248.93257189999986;248.94908320000013;256.36548010000024;None;7;0;0.3430044999995516;256.36548010000024;None;;;;;;;;3;;;;;;257.91534479999973;None;None;None;[];257.91534479999973;None;"['7', '7']";257.91534479999973;None;"[0.3931271999999808, 0.8330606999998054]";;;S11898;2022_Dec_01_1751;VideoMask;2021.1.2;120.02064355025647;
0.0;f;030_o_f_h_a.jpg;happy;9.0;sad_127.1.wmv;sad;7.0;incongruent;120.0;160.0;180.59976631384873;h_s;;;;;0;15;15;15;;;;;;;260.91524670000035;None;262.63191220000044;262.9486544000001;264.0738099;264.0902888999999;266.0817930000003;None;None;0;;266.0817930000003;None;;;;;;;;3;;;;;;267.63173670000015;None;None;None;[];267.63173670000015;None;"['7', '7']";267.63173670000015;None;"[0.012392099999487982, 0.5563179999999193]";;;S11898;2022_Dec_01_1751;VideoMask;2021.1.2;120.02064355025647;
8.0;m;008_y_m_s_a.jpg;sad;7.0;happy_133.3.wmv;happy;9.0;incongruent;130.0;150.0;152.577966552593;s_h;;;;;0;16;16;16;;;;;;;270.63161860000037;None;272.1148383999998;272.43161430000055;273.5567105;273.57325910000054;275.5648223999997;None;9;0;0.3755097000002934;275.5648223999997;None;;;;;;;;8;;;;;;277.10644820000016;None;None;None;[];277.10644820000016;None;"['9', '9', '9', '9']";277.10644820000016;None;"[0.07364719999986846, 0.5378324000002976, 1.1779335000001083, 1.6818013000001883]";;;S11898;2022_Dec_01_1751;VideoMask;2021.1.2;120.02064355025647;
3.0;m;033_o_m_h_a.jpg;happy;9.0;sad_128.1.wmv;sad;7.0;incongruent;120.0;160.0;171.0492454518585;h_s;;;;;0;17;17;17;;;;;;;280.10633700000017;None;281.7479321999999;282.0645919999997;283.1898441000003;283.20620860000054;285.19777950000025;None;7;0;0.3426640000006955;285.19777950000025;None;;;;;;;;2;;;;;;286.7477853999999;None;None;None;[];286.7477853999999;None;"['7', '7', '7', '7']";286.7477853999999;None;"[0.32045079999988957, 0.5763942000003226, 0.888563499999691, 1.2964575000005425]";;;S11898;2022_Dec_01_1751;VideoMask;2021.1.2;120.02064355025647;
1.0;f;021_o_f_h_a.jpg;happy;9.0;sad_116.1.wmv;sad;7.0;incongruent;120.0;160.0;184.06847610053055;h_s;;;;;0;18;18;18;;;;;;;289.7477122999999;None;291.5059486;291.82263930000045;292.94773540000006;292.96433870000055;294.9558192000004;None;7;0;0.3687231999992946;294.9558192000004;None;;;;;;;;3;;;;;;296.4974666999997;None;None;None;[];296.4974666999997;None;"['7', '7']";296.4974666999997;None;"[0.33082479999939096, 0.6906924999993862]";;;S11898;2022_Dec_01_1751;VideoMask;2021.1.2;120.02064355025647;
4.0;m;004_o_m_s_a.jpg;sad;7.0;happy_28.1ns.avi;happy;9.0;incongruent;130.0;150.0;157.40741103039684;s_h;;;;;0;19;19;19;;;;;;;299.4973614999999;None;301.0223281999997;301.33893960000023;302.46417999999994;302.48069250000026;306.86378440000044;None;9;0;0.38865310000073805;306.86378440000044;None;;;;;;;;8;;;;;;308.4053991999999;None;None;None;[];308.4053991999999;None;"['9', '9', '9', '9', '9']";308.4053991999999;None;"[0.32661000000007334, 0.7107396999999764, 1.0707564000003913, 1.4466339999999036, 1.9988456000000951]";;;S11898;2022_Dec_01_1751;VideoMask;2021.1.2;120.02064355025647;
8.0;f;028_y_f_s_a.jpg;sad;7.0;happy_122.3.wmv;happy;9.0;incongruent;130.0;150.0;171.8670540936116;s_h;;;;;0;20;20;20;;;;;;;311.4052649000005;None;313.0552740000003;313.37195729999985;314.4971413000003;314.51361590000033;316.50514230000044;None;9;0;0.3069742999996379;316.50514230000044;None;;;;;;;;9;;;;;;318.0550860000003;None;None;None;[];318.0550860000003;None;"['9', '9', '9', '9']";318.0550860000003;None;"[0.2932901000003767, 0.62100670000018, 0.9569179999998596, 1.3732950000003257]";;;S11898;2022_Dec_01_1751;VideoMask;2021.1.2;120.02064355025647;
8.0;m;008_y_m_s_a.jpg;sad;7.0;sad_6.5ns.avi;sad;7.0;congruent;130.0;160.0;170.39333839271438;s_s;;;;;0;21;21;21;;;;;;;321.0549364999997;None;322.68828140000005;323.0049392000001;324.1301030000004;324.1467596000002;329.1381873999999;None;7;0;0.33019789999980276;329.1381873999999;None;;;;;;;;4;;;;;;330.6879810999999;None;None;None;[];330.6879810999999;None;['7'];330.6879810999999;None;[0.32425980000061827];;;S11898;2022_Dec_01_1751;VideoMask;2021.1.2;120.02064355025647;
8.0;f;028_y_f_h_a.jpg;happy;9.0;happy_23.1ns.avi;happy;9.0;congruent;120.0;150.0;225.70986890587952;h_h;;;;;0;22;22;22;;;;;;;333.68790210000043;None;335.77943049999976;336.0962023000002;337.21277910000026;337.2294724000003;341.80431469999985;None;9;0;0.32004200000028504;341.80431469999985;None;;;;;;;;7;;;;;;343.3542201;None;None;None;[];343.3542201;None;"['9', '9', '9', '9', '9', '9']";343.3542201;None;"[0.3461944000000585, 0.6657381000004534, 0.9699315000007118, 1.4018520999998145, 1.9942214000002423, 2.7860961000005773]";;;S11898;2022_Dec_01_1751;VideoMask;2021.1.2;120.02064355025647;
8.0;m;008_y_m_h_a.jpg;happy;9.0;sad_111.1.wmv;sad;7.0;incongruent;120.0;160.0;152.63076835312847;h_s;;;;;0;23;23;23;;;;;;;346.3541973000001;None;347.82064640000044;348.1373685999997;349.2626785000002;349.27909050000017;351.2707387999999;None;7;0;0.8216433999996298;351.2707387999999;None;;;;;;;;4;;;;;;352.8205742;None;None;None;[];352.8205742;None;"['7', '7']";352.8205742;None;"[0.31150499999966996, 0.767778599999474]";;;S11898;2022_Dec_01_1751;VideoMask;2021.1.2;120.02064355025647;
0.0;f;040_y_f_s_a.jpg;sad;7.0;sad_67.2ns.avi;sad;7.0;congruent;130.0;160.0;220.9892697323079;s_s;;;;;0;24;24;24;;;;;;;355.8205216000006;None;357.89548430000013;358.2120792000005;359.3373207000004;359.3537937000001;368.5701128999999;None;7;0;0.35392379999939294;368.5701128999999;None;;;;;;;;2;;;;;;370.12002480000046;None;None;None;[];370.12002480000046;None;"['7', '7', '7']";370.12002480000046;None;"[0.31634570000005624, 0.6761279000002105, 1.092083399999865]";;;S11898;2022_Dec_01_1751;VideoMask;2021.1.2;120.02064355025647;
8.0;m;008_y_m_s_a.jpg;sad;7.0;happy_29.1ns.avi;happy;9.0;incongruent;130.0;150.0;120.0316142834122;s_h;;;;;0;25;25;25;;;;;;;373.11992629999986;None;374.3364164000004;374.6532186000004;375.7699005000004;375.78660149999996;378.4781474000001;None;9;0;0.38997530000051484;378.4781474000001;None;;;;;;;;7;;;;;;380.02807910000047;None;None;None;[];380.02807910000047;None;"['9', '9', '9']";380.02807910000047;None;"[0.304055800000242, 0.7280943000005209, 1.1679879000002984]";;;S11898;2022_Dec_01_1751;VideoMask;2021.1.2;120.02064355025647;
6.0;m;016_y_m_s_a.jpg;sad;7.0;sad_8.3ns.avi;sad;7.0;congruent;130.0;160.0;152.85371098242734;s_s;;;;;0;26;26;26;;;;;;;383.0279507000005;None;384.5614664000004;384.8778749000003;386.0030972000004;386.0195415999997;393.76929720000044;None;7;0;0.4671802000002572;393.76929720000044;None;;;;;;;;4;;;;;;395.3191794000004;None;None;None;[];395.3191794000004;None;['7'];395.3191794000004;None;[0.32494670000050974];;;S11898;2022_Dec_01_1751;VideoMask;2021.1.2;120.02064355025647;
6.0;m;016_y_m_h_a.jpg;happy;9.0;sad_114.1.wmv;sad;7.0;incongruent;120.0;160.0;136.20550699298644;h_s;;;;;0;27;27;27;;;;;;;398.3274713999999;None;399.6773671000001;399.9940945999997;401.1192751999997;401.13572550000026;403.1273062;None;7;0;0.4529806999998982;403.1273062;None;;;;;;;;3;;;;;;404.67726889999994;None;None;None;[];404.67726889999994;None;"['7', '7']";404.67726889999994;None;"[0.27885280000009516, 0.671155699999872]";;;S11898;2022_Dec_01_1751;VideoMask;2021.1.2;120.02064355025647;
7.0;m;027_o_m_s_a.jpg;sad;7.0;happy_117.3.wmv;happy;9.0;incongruent;130.0;150.0;215.61964028550614;s_h;;;;;0;28;28;28;;;;;;;407.6854492000002;None;409.6853989000001;410.00208459999976;411.12728289999995;411.1437468000004;413.1353608999998;None;None;0;;413.1353608999998;None;;;;;;;;4;;;;;;414.68543260000024;None;None;None;[];414.68543260000024;None;['7'];414.68543260000024;None;[1.4148243999998158];;;S11898;2022_Dec_01_1751;VideoMask;2021.1.2;120.02064355025647;
6.0;m;016_y_m_h_a.jpg;happy;9.0;happy_9.2ns.avi;happy;9.0;congruent;120.0;150.0;130.52042428082717;h_h;;;;;0;29;29;29;;;;;;;417.68515279999974;None;419.01007610000033;419.3268003000003;420.4519879999998;420.4684513000002;426.3848915999997;None;9;0;0.3710354999993797;426.3848915999997;None;;;;;;;;7;;;;;;427.92651579999983;None;None;None;[];427.92651579999983;None;"['9', '9']";427.92651579999983;None;"[0.6456041999999798, 1.165498000000298]";;;S11898;2022_Dec_01_1751;VideoMask;2021.1.2;120.02064355025647;
0.0;f;040_y_f_s_a.jpg;sad;7.0;happy_127.3.wmv;happy;9.0;incongruent;130.0;150.0;131.7195455720239;s_h;;;;;0;30;30;30;;;;;;;430.9263922;None;432.2346537000003;432.55139469999995;433.67653990000053;433.6930712000003;435.75142049999977;None;9;0;0.3966264999999112;435.75142049999977;None;;;;;;;;7;;;;;;437.30116700000053;None;None;None;[];437.30116700000053;None;"['9', '9', '9']";437.30116700000053;None;"[0.2631078999993406, 0.5908799999997427, 0.9268647999997484]";;;S11898;2022_Dec_01_1751;VideoMask;2021.1.2;120.02064355025647;
0.0;f;030_o_f_s_a.jpg;sad;7.0;happy_125.3.wmv;happy;9.0;incongruent;130.0;150.0;220.51454909128134;s_h;;;;;0;31;31;31;;;;;;;440.3010512999999;None;442.3593713;442.6760714000002;443.80117789999986;443.8176835000004;445.80924120000054;None;9;0;1.155091800000264;445.80924120000054;None;;;;;;;;5;;;;;;447.35924410000007;None;None;None;[];447.35924410000007;None;None;447.35924410000007;None;;;;S11898;2022_Dec_01_1751;VideoMask;2021.1.2;120.02064355025647;
0.0;f;030_o_f_s_a.jpg;sad;7.0;sad_64.3ns.avi;sad;7.0;congruent;130.0;160.0;165.78667874766072;s_s;;;;;0;32;32;32;;;;;;;450.37568100000044;None;451.97569870000007;452.2924042000004;453.41755600000033;453.43413430000055;458.42551300000014;None;7;0;0.49878720000015164;458.42551300000014;None;;;;;;;;4;;;;;;459.97540910000043;None;None;None;[];459.97540910000043;None;['7'];459.97540910000043;None;[0.80450589999964];;;S11898;2022_Dec_01_1751;VideoMask;2021.1.2;120.02064355025647;
3.0;m;013_y_m_s_a.jpg;sad;7.0;sad_7.7ns.avi;sad;7.0;congruent;130.0;160.0;196.24182255763262;s_s;;;;;0;33;33;33;;;;;;;462.9753492;None;464.8419630999997;465.15861529999984;466.2838039999997;466.3002383000003;472.29175060000034;None;7;0;0.28023510000002716;472.29175060000034;None;;;;;;;;4;;;;;;473.8416282999997;None;None;None;[];473.8416282999997;None;['7'];473.8416282999997;None;[0.3384773000007044];;;S11898;2022_Dec_01_1751;VideoMask;2021.1.2;120.02064355025647;
3.0;m;013_y_m_h_a.jpg;happy;9.0;happy_9.1ns.avi;happy;9.0;congruent;120.0;150.0;165.1890303600433;h_h;;;;;0;34;34;34;;;;;;;476.84152919999997;None;478.4415618000003;478.7581677999997;479.88335499999994;479.8998671999998;483.11637580000024;None;9;0;0.3519271999994089;483.11637580000024;None;;;;;;;;6;;;;;;484.66636990000006;None;None;None;[];484.66636990000006;None;['9'];484.66636990000006;None;[0.2659891000002972];;;S11898;2022_Dec_01_1751;VideoMask;2021.1.2;120.02064355025647;
4.0;m;004_o_m_h_a.jpg;happy;9.0;sad_95.1ns.avi;sad;7.0;incongruent;120.0;160.0;152.68270002069931;h_s;;;;;0;35;35;35;;;;;;;487.6662309000003;None;489.2079241000001;489.5245130000003;490.6497083000004;490.66620390000026;499.4491700999997;None;7;0;0.3951918000002479;499.4491700999997;None;;;;;;;;2;;;;;;500.9991282000001;None;None;None;[];500.9991282000001;None;"['7', '7', '7', '7']";500.9991282000001;None;"[0.23700910000025033, 0.5408237999999983, 0.8288597999999183, 1.116881199999625]";;;S11898;2022_Dec_01_1751;VideoMask;2021.1.2;120.02064355025647;
3.0;m;013_y_m_h_a.jpg;happy;9.0;sad_113.2.wmv;sad;7.0;incongruent;120.0;160.0;217.4973891947951;h_s;;;;;0;36;36;36;;;;;;;503.9990220999998;None;506.0323195000001;506.3489504999998;507.4741777999998;507.4906361000003;509.48213099999975;None;7;0;0.7463683999994828;509.48213099999975;None;;;;;;;;4;;;;;;511.03207329999987;None;None;None;[];511.03207329999987;None;['7'];511.03207329999987;None;[0.3718930000004548];;;S11898;2022_Dec_01_1751;VideoMask;2021.1.2;120.02064355025647;
4.0;m;004_o_m_h_a.jpg;happy;9.0;happy_25.1ns.avi;happy;9.0;congruent;120.0;150.0;216.63044503818386;h_h;;;;;0;37;37;37;;;;;;;514.0320302999999;None;516.0651978000005;516.3819684999999;517.5071355999999;517.5236457999999;521.2068045000005;None;9;0;0.3814263000003848;521.2068045000005;None;;;;;;;;6;;;;;;522.7484184000004;None;None;None;[];522.7484184000004;None;['9'];522.7484184000004;None;[1.6554784999998446];;;S11898;2022_Dec_01_1751;VideoMask;2021.1.2;120.02064355025647;
4.0;m;004_o_m_s_a.jpg;sad;7.0;happy_131.2.wmv;happy;9.0;incongruent;130.0;150.0;181.38407540847405;s_h;;;;;0;38;38;38;;;;;;;525.7482259999997;None;527.4816164000003;527.7982800999998;528.9235070000004;528.9399326000002;530.9314559000004;None;9;0;0.504808800000319;530.9314559000004;None;;;;;;;;5;;;;;;532.4814243999999;None;None;None;[];532.4814243999999;None;None;532.4814243999999;None;;;;S11898;2022_Dec_01_1751;VideoMask;2021.1.2;120.02064355025647;
0.0;f;040_y_f_h_a.jpg;happy;9.0;happy_24.3ns.avi;happy;9.0;congruent;120.0;150.0;213.25460698950434;h_h;;;;;0;39;39;39;;;;;;;535.4978760000004;None;537.4646030000004;537.7813255000001;538.9064284000006;538.9229259000003;540.8394926000001;None;9;0;0.5166825000005701;540.8394926000001;None;;;;;;;;5;;;;;;542.3894232000002;None;None;None;[];542.3894232000002;None;None;542.3894232000002;None;;;;S11898;2022_Dec_01_1751;VideoMask;2021.1.2;120.02064355025647;
2.0;f;012_o_f_s_a.jpg;sad;7.0;happy_139.1.wmv;happy;9.0;incongruent;130.0;150.0;162.31500468041804;s_h;;;;;0;40;40;40;;;;;;;545.4059646000005;None;546.9808869999997;547.2976026000006;548.4227805;548.4392798999997;550.4309792000004;None;9;0;0.45315860000027897;550.4309792000004;None;;;;;;;;7;;;;;;551.9724530000003;None;None;None;[];551.9724530000003;None;"['9', '9']";551.9724530000003;None;"[0.24738979999983712, 0.6717042999998739]";;;S11898;2022_Dec_01_1751;VideoMask;2021.1.2;120.02064355025647;
0.0;f;030_o_f_h_a.jpg;happy;9.0;happy_24.1ns.avi;happy;9.0;congruent;120.0;150.0;168.36256624020774;h_h;;;;;0;41;41;41;;;;;;;554.9723018000004;None;556.6057035000003;556.9223049000002;558.0475197000005;558.0639637000004;561.3805958000003;None;9;0;0.4235934999996971;561.3805958000003;None;;;;;;;;5;;;;;;562.9304799000001;None;None;None;[];562.9304799000001;None;None;562.9304799000001;None;;;;S11898;2022_Dec_01_1751;VideoMask;2021.1.2;120.02064355025647;
2.0;f;012_o_f_h_a.jpg;happy;9.0;sad_113.1.wmv;sad;7.0;incongruent;120.0;160.0;177.44551734737394;h_s;;;;;0;42;42;42;;;;;;;565.9469442999998;None;567.6386273999997;567.9552328999998;569.0804651999997;569.0970176999999;571.0885327000005;None;7;0;0.43576799999937066;571.0885327000005;None;;;;;;;;4;;;;;;572.6384152999999;None;None;None;[];572.6384152999999;None;"['7', '7']";572.6384152999999;None;"[0.28562849999980244, 0.8697370999998384]";;;S11898;2022_Dec_01_1751;VideoMask;2021.1.2;120.02064355025647;
3.0;m;033_o_m_s_a.jpg;sad;7.0;sad_64.5ns.avi;sad;7.0;congruent;130.0;160.0;130.55717223801247;s_s;;;;;0;43;43;43;;;;;;;575.6383119000002;None;576.9717916999998;577.2883419999998;578.4134673999997;578.4301129000005;585.0046788;None;7;0;0.3752669000004971;585.0046788;None;;;;;;;;2;;;;;;586.5463205000005;None;None;None;[];586.5463205000005;None;"['7', '7', '7', '7']";586.5463205000005;None;"[0.2658603999998377, 0.6015962000001309, 0.9138057999998637, 1.2818833000001177]";;;S11898;2022_Dec_01_1751;VideoMask;2021.1.2;120.02064355025647;
7.0;m;027_o_m_h_a.jpg;happy;9.0;sad_117.1.wmv;sad;7.0;incongruent;120.0;160.0;181.28665202824095;h_s;;;;;0;44;44;44;;;;;;;589.5462358000004;None;591.287832;591.6045359;592.7297016000002;592.7461985999998;594.7378352000005;None;7;0;0.29815059999964433;594.7378352000005;None;;;;;;;;3;;;;;;596.2876495999999;None;None;None;[];596.2876495999999;None;"['7', '7', '7']";596.2876495999999;None;"[0.2364201000000321, 0.596146800000497, 0.9721273000004658]";;;S11898;2022_Dec_01_1751;VideoMask;2021.1.2;120.02064355025647;
3.0;m;033_o_m_s_a.jpg;sad;7.0;happy_126.3.wmv;happy;9.0;incongruent;130.0;150.0;198.85252030535366;s_h;;;;;0;45;45;45;;;;;;;599.2875928000003;None;601.1624517;601.4791702000002;602.6043479999998;602.6207664000003;604.6124123;None;9;0;0.40750170000046637;604.6124123;None;;;;;;;;7;;;;;;606.1623668000002;None;None;None;[];606.1623668000002;None;"['9', '9']";606.1623668000002;None;"[0.30552409999927477, 1.2737592999992557]";;;S11898;2022_Dec_01_1751;VideoMask;2021.1.2;120.02064355025647;
3.0;m;033_o_m_h_a.jpg;happy;9.0;sad_136.1.wmv;sad;7.0;incongruent;120.0;160.0;176.97002883463455;h_s;;;;;0;46;46;46;;;;;;;609.1622996000006;None;610.8374056000002;611.1538306000002;612.2790906999999;612.2955622999998;614.2871127999997;None;None;0;;614.2871127999997;None;;;;;;;;5;;;;;;615.8370904000003;None;None;None;[];615.8370904000003;None;None;615.8370904000003;None;;;;S11898;2022_Dec_01_1751;VideoMask;2021.1.2;120.02064355025647;
9.0;f;019_m_f_h_a.jpg;happy;9.0;happy_10.1ns.avi;happy;9.0;congruent;120.0;150.0;157.2463435658512;h_h;;;;;0;47;47;47;;;;;;;618.8535388999999;None;620.4035427999997;620.7202234000006;621.8453080999998;621.8620491000001;629.3032640000001;None;9;0;0.3885324999992008;629.3032640000001;None;;;;;;;;7;;;;;;630.8448358000005;None;None;None;[];630.8448358000005;None;"['9', '9']";630.8448358000005;None;"[0.24693440000010014, 0.8713059000001522]";;;S11898;2022_Dec_01_1751;VideoMask;2021.1.2;120.02064355025647;
2.0;f;012_o_f_h_a.jpg;happy;9.0;happy_2.2ns.avi;happy;9.0;congruent;120.0;150.0;206.34800317295262;h_h;;;;;0;48;48;48;;;;;;;633.8448128;None;635.8113449000002;636.1279906;637.2532638000002;637.2699160000002;649.4692850000001;None;9;0;0.2709384999998292;649.4692850000001;None;;;;;;;;7;;;;;;651.0191771999998;None;None;None;[];651.0191771999998;None;"['9', '9']";651.0191771999998;None;"[0.26519530000041414, 0.6889387000001079]";;;S11898;2022_Dec_01_1751;VideoMask;2021.1.2;120.02064355025647;
3.0;m;033_o_m_h_a.jpg;happy;9.0;happy_24.2ns.avi;happy;9.0;congruent;120.0;150.0;167.9423847659953;h_h;;;;;0;49;49;49;;;;;;;654.0191744000003;None;655.6356966000003;655.9524214000003;657.0775714000001;657.0940749000001;660.8105529000004;None;9;0;0.4736315999998624;660.8105529000004;None;;;;;;;;5;;;;;;662.3604950999998;None;None;None;[];662.3604950999998;None;None;662.3604950999998;None;;;;S11898;2022_Dec_01_1751;VideoMask;2021.1.2;120.02064355025647;
1.0;f;021_o_f_s_a.jpg;sad;7.0;happy_61.2ns.avi;happy;9.0;incongruent;130.0;150.0;210.94664004826666;s_h;;;;;0;50;50;50;;;;;;;665.3770141000005;None;667.3519845000001;667.6686454000001;668.7936673000004;668.8102260000005;673.3268407000005;None;9;0;0.38111879999996745;673.3268407000005;None;;;;;;;;7;;;;;;674.8767325999997;None;None;None;[];674.8767325999997;None;"['9', '9']";674.8767325999997;None;"[0.22306810000009136, 0.5914446000006137]";;;S11898;2022_Dec_01_1751;VideoMask;2021.1.2;120.02064355025647;
4.0;m;004_o_m_s_a.jpg;sad;7.0;sad_2.4ns.avi;sad;7.0;congruent;130.0;160.0;153.02079367163634;s_s;;;;;0;51;51;51;;;;;;;677.876636;None;679.3848730999998;679.7015690999997;680.8267986999999;680.8434582999998;688.8014076999998;None;7;0;0.3224889000002804;688.8014076999998;None;;;;;;;;3;;;;;;690.3513385000006;None;None;None;[];690.3513385000006;None;"['7', '7', '9']";690.3513385000006;None;"[0.3008474999996906, 0.7244476999994731, 1.8687472000001435]";;;S11898;2022_Dec_01_1751;VideoMask;2021.1.2;120.02064355025647;
8.0;m;008_y_m_h_a.jpg;happy;9.0;happy_1.2ns.avi;happy;9.0;congruent;120.0;150.0;210.98946429383824;h_h;;;;;0;52;52;52;;;;;;;693.3511882000003;None;695.3763316000004;695.6927579000003;696.8180179999999;696.8343999999997;709.6173273000004;None;9;0;0.3385410000000775;709.6173273000004;None;;;;;;;;7;;;;;;711.1673117999999;None;None;None;[];711.1673117999999;None;"['9', '9', '9']";711.1673117999999;None;"[0.2606525999999576, 0.7485026999993352, 2.3324269999993703]";;;S11898;2022_Dec_01_1751;VideoMask;2021.1.2;120.02064355025647;
2.0;f;012_o_f_s_a.jpg;sad;7.0;happy_52.2ns.avi;happy;9.0;incongruent;130.0;150.0;172.57202848318138;s_h;;;;;0;53;53;53;;;;;;;714.1671766;None;715.8170356999999;716.1338027000002;717.2589588999999;717.2754630999998;720.8170289999998;None;None;0;;720.8170289999998;None;;;;;;;;8;;;;;;722.3670934000002;None;None;None;[];722.3670934000002;None;"['9', '9', '9', '9', '9', '9', '9']";722.3670934000002;None;"[0.27697560000069643, 0.6687087000000247, 1.0770019999999931, 1.5007340000001932, 1.8927833000007013, 2.292855600000621, 2.9329733000004126]";;;S11898;2022_Dec_01_1751;VideoMask;2021.1.2;120.02064355025647;
9.0;f;019_m_f_s_a.jpg;sad;7.0;happy_61.1ns.avi;happy;9.0;incongruent;130.0;150.0;181.3003220572762;s_h;;;;;0;54;54;54;;;;;;;725.3668017;None;727.1500711999997;727.4666280000001;728.5917145000003;728.6083772000002;735.9914407000006;None;9;0;0.32454580000012356;735.9914407000006;None;;;;;;;;7;;;;;;737.5413545000001;None;None;None;[];737.5413545000001;None;"['9', '9']";737.5413545000001;None;"[0.2626166000000012, 0.6064703000001828]";;;S11898;2022_Dec_01_1751;VideoMask;2021.1.2;120.02064355025647;
0.0;f;030_o_f_h_a.jpg;happy;9.0;sad_133.1.wmv;sad;7.0;incongruent;120.0;160.0;198.86251500867985;h_s;;;;;0;55;55;55;;;;;;;740.5413128999999;None;742.4078982000001;742.7245849000001;743.8497797;743.8662560000002;745.8578568000003;None;7;0;0.426189499999964;745.8578568000003;None;;;;;;;;3;;;;;;747.4078268000003;None;None;None;[];747.4078268000003;None;"['7', '7']";747.4078268000003;None;"[0.28426170000057027, 0.6363037999999506]";;;S11898;2022_Dec_01_1751;VideoMask;2021.1.2;120.02064355025647;
0.0;f;040_y_f_h_a.jpg;happy;9.0;sad_128.2.wmv;sad;7.0;incongruent;120.0;160.0;206.10005857915363;h_s;;;;;0;56;56;56;;;;;;;750.4076413000003;None;752.3409343000003;752.6575094999998;753.7827629000003;753.7992789999998;755.7908190999997;None;7;0;0.525019899999279;755.7908190999997;None;;;;;;;;4;;;;;;757.3407601999997;None;None;None;[];757.3407601999997;None;['7'];757.3407601999997;None;[0.26306750000003376];;;S11898;2022_Dec_01_1751;VideoMask;2021.1.2;120.02064355025647;
1.0;f;021_o_f_s_a.jpg;sad;7.0;sad_9.5ns.avi;sad;7.0;congruent;130.0;160.0;206.16642757875042;s_s;;;;;0;57;57;57;;;;;;;760.3406118000003;None;762.2656422999999;762.5823031999998;763.7072795000004;763.7239262000003;769.4403719000002;None;7;0;0.35564720000002126;769.4403719000002;None;;;;;;;;2;;;;;;770.9903272000001;None;None;None;[];770.9903272000001;None;"['7', '7', '7', '7', '7']";770.9903272000001;None;"[0.28537859999960347, 0.6616162999998778, 1.0613503999993554, 1.461452200000167, 2.173791899999742]";;;S11898;2022_Dec_01_1751;VideoMask;2021.1.2;120.02064355025647;
1.0;f;021_o_f_h_a.jpg;happy;9.0;happy_12.1ns.avi;happy;9.0;congruent;120.0;150.0;132.59080005900228;h_h;;;;;0;58;58;58;;;;;;;773.9902257000003;None;775.3316955;775.6484983999999;776.7651390999999;776.7818729;784.3981731000003;None;9;0;0.3976823000002696;784.3981731000003;None;;;;;;;;7;;;;;;785.9482292000002;None;None;None;[];785.9482292000002;None;"['9', '9', '9', '9']";785.9482292000002;None;"[0.30360059999929945, 0.7198099999995975, 1.1354458999994677, 1.5678055999997014]";;;S11898;2022_Dec_01_1751;VideoMask;2021.1.2;120.02064355025647;
3.0;m;013_y_m_s_a.jpg;sad;7.0;happy_56.2ns.avi;happy;9.0;incongruent;130.0;150.0;163.39234110935848;s_h;;;;;0;59;59;59;;;;;;;788.9480252000003;None;790.5229314999997;790.8397022999998;791.9647057000002;791.9813831000001;796.9978736000003;None;9;0;0.4141655000003084;796.9978736000003;None;;;;;;;;6;;;;;;798.5477853000002;None;None;None;[];798.5477853000002;None;['9'];798.5477853000002;None;[0.25589469999977155];;;S11898;2022_Dec_01_1751;VideoMask;2021.1.2;120.02064355025647;
;;;;;;;;;;;;;;;;;;;;;;;;;;;;;;;;;;;;;;;;;;;;;;;;;;;;;;;;;;;;;;;;801.5476687999999;None;;;;;;
