primePerson;primeGender;prime;primeEmotion;corrAnsPrime;target;targetEmotion;corrAnsTar;Cond;ID_Primer;ID_Target;JitterTime;example.thisRepN;example.thisTrialN;example.thisN;example.thisIndex;study.thisRepN;study.thisTrialN;study.thisN;study.thisIndex;MR_trigger_time;MR_trigger_number;text_intro.started;text_intro.stopped;text_probe.started;text_probe.stopped;polygon_ISI.started;polygon_ISI.stopped;polygon.started;polygon.stopped;primerImage.started;primerImage.stopped;response.started;response.stopped;key_resp.keys;key_resp.corr;key_resp.rt;key_resp.started;key_resp.stopped;slider_Text.started;slider_Text.stopped;slider_ex.response;slider_ex.rt;slider_ex.history;slider_ex.started;slider_ex.stopped;Rating;slider_resp_response.keys;slider_resp_response.rt;slider_resp_response.started;slider_resp_response.stopped;text_start.started;text_start.stopped;text_slider.started;text_slider.stopped;slider_stud.response;slider_stud.rt;slider_stud.history;slider_stud.started;slider_stud.stopped;slider_resp_study.keys;slider_resp_study.rt;slider_resp_study.started;slider_resp_study.stopped;text_ende.started;text_ende.stopped;participant;date;expName;psychopyVersion;frameRate;
1111;m;1111_m_m_h_a.jpg;happy;9;example_30.4ns.avi;neutral;7;incongruent;120.0;170.0;189.5874364012288;0;0;0;0;;;;;25.77793339989148;1;25.855508799897507;27.855697799939662;27.855697799939662;None;29.87216189992614;None;32.097328800009564;32.41371909994632;33.63913649995811;33.65553850005381;37.91369619988836;None;9;0;1.1319562001153827;37.91369619988836;None;39.47209000005387;None;None;None;[];39.47209000005387;None;9;"['9', '9', '9', '9', '9']";"[1.0056991998571903, 1.2696052000392228, 1.477692199870944, 1.7417192000430077, 2.19747249991633]";39.47209000005387;None;;;;;;;;;;;;;;;;S10802;2021_Aug_05_1725;VideoMask;2021.1.2;120.1019425220779;
1113;f;1113_y_f_s_a.jpg;sad;7;example_30.3ns.avi;neutral;7;incongruent;130.0;170.0;229.02432995836998;0;1;1;1;;;;;;;;;;;42.463668999960646;None;44.57993249990977;44.896692800102755;46.07226620009169;46.08870880003087;48.030186699936166;None;None;0;;48.030186699936166;None;49.5966868000105;None;None;None;[];49.5966868000105;None;7;"['9', '9']";"[10.061773899942636, 1.0889044001232833]";49.5966868000105;None;;;;;;;;;;;;;;;;S10802;2021_Aug_05_1725;VideoMask;2021.1.2;120.1019425220779;
3.0;m;033_o_m_s_a.jpg;sad;7.0;sad_94.2ns.avi;sad;7.0;congruent;130.0;160.0;228.63582583242618;;;;;0;0;0;0;;;;;;;53.61321819992736;None;55.70459849992767;56.02140620001592;57.17964249989018;57.19641080009751;59.8633264999371;None;7;0;0.5904262000694871;59.8633264999371;None;;;;;;;;2;;;;;52.588205199921504;None;61.4546819999814;None;None;None;[];61.4546819999814;None;"['7', '7', '7', '7', '7', '7', '9']";"[0.3191422000527382, 0.5351072000339627, 0.7273623999208212, 0.9671368999406695, 1.1509549000766128, 1.46290159993805, 2.6630388000048697]";61.4546819999814;None;;;S10802;2021_Aug_05_1725;VideoMask;2021.1.2;120.1019425220779;
0.0;f;030_o_f_s_a.jpg;sad;7.0;sad_68.1ns.avi;sad;7.0;congruent;130.0;160.0;163.14738846961149;;;;;0;1;1;1;;;;;;;64.46292799990624;None;66.04602240002714;66.36283289990388;67.55476580001414;67.57100229989737;74.92098929989152;None;7;0;0.9726740999612957;74.92098929989152;None;;;;;;;;1;;;;;;;76.49597930000164;None;None;None;[];76.49597930000164;None;"['7', '7', '7', '7']";"[0.27754179993644357, 0.5256628999486566, 0.7257332000881433, 0.9178122999146581]";76.49597930000164;None;;;S10802;2021_Aug_05_1725;VideoMask;2021.1.2;120.1019425220779;
8.0;m;008_y_m_h_a.jpg;happy;9.0;happy_26.1ns.avi;happy;9.0;congruent;140.0;150.0;184.58211837191982;;;;;0;2;2;2;;;;;;;79.50430679996498;None;81.23731240001507;81.55402410007082;82.72903959988616;82.7455484000966;84.67965189996175;None;9;0;0.774029599968344;84.67965189996175;None;;;;;;;;9;;;;;;;86.30399559997022;None;None;None;[];86.30399559997022;None;"['9', '9', '9', '9']";"[0.2057456998154521, 0.4058169999625534, 0.6057412999216467, 0.7659270998556167]";86.30399559997022;None;;;S10802;2021_Aug_05_1725;VideoMask;2021.1.2;120.1019425220779;
0.0;f;030_o_f_s_a.jpg;sad;7.0;happy_125.3.wmv;happy;9.0;incongruent;130.0;150.0;189.50417957278896;;;;;0;3;3;3;;;;;;;89.3040042000357;None;91.09534309990704;91.41250169998966;92.54528359998949;92.56195349991322;94.54553209990263;None;None;0;;94.54553209990263;None;;;;;;;;8;;;;;;;96.09520819992758;None;None;None;[];96.09520819992758;None;"['9', '9', '9']";"[0.29448030004277825, 0.6143686000723392, 1.590468400157988]";96.09520819992758;None;;;S10802;2021_Aug_05_1725;VideoMask;2021.1.2;120.1019425220779;
1.0;f;021_o_f_s_a.jpg;sad;7.0;sad_9.5ns.avi;sad;7.0;congruent;130.0;160.0;156.55128602613038;;;;;0;4;4;4;;;;;;;99.10378089989536;None;100.61176240001805;100.92850350006483;102.19496079999954;102.21167459990829;107.78680239990354;None;7;0;0.6989199998788536;107.78680239990354;None;;;;;;;;2;;;;;;;109.3366525999736;None;None;None;[];109.3366525999736;None;"['7', '7', '7', '7', '7']";"[0.21313499985262752, 0.49295379989780486, 0.869207999901846, 1.661163599928841, 2.1971195999067277]";109.3366525999736;None;;;S10802;2021_Aug_05_1725;VideoMask;2021.1.2;120.1019425220779;
4.0;m;004_o_m_s_a.jpg;sad;7.0;happy_28.1ns.avi;happy;9.0;incongruent;130.0;150.0;219.83540383939274;;;;;0;5;5;5;;;;;;;112.34507360006683;None;114.3696471999865;114.68652180000208;115.8452284000814;115.86991310003214;120.21141700004227;None;9;0;0.4824492000043392;120.21141700004227;None;;;;;;;;9;;;;;;;121.88630039989948;None;None;None;[];121.88630039989948;None;"['9', '9', '9', '9']";"[0.09536290005780756, 0.2955358000472188, 0.48741729999892414, 0.6715777001809329]";121.88630039989948;None;;;S10802;2021_Aug_05_1725;VideoMask;2021.1.2;120.1019425220779;
2.0;f;012_o_f_s_a.jpg;sad;7.0;sad_7.5ns.avi;sad;7.0;congruent;130.0;160.0;147.95125229894379;;;;;0;6;6;6;;;;;;;124.89445400005206;None;126.31941019999795;126.63609250006266;127.77822039998136;127.80339369992726;130.561684000073;None;7;0;0.6760545000433922;130.561684000073;None;;;;;;;;3;;;;;;;132.21101829991676;None;None;None;[];132.21101829991676;None;"['7', '7', '7']";"[0.2830077998805791, 0.6266896000597626, 1.2031228998675942]";132.21101829991676;None;;;S10802;2021_Aug_05_1725;VideoMask;2021.1.2;120.1019425220779;
2.0;f;012_o_f_s_a.jpg;sad;7.0;happy_52.2ns.avi;happy;9.0;incongruent;130.0;150.0;144.3898903070799;;;;;0;7;7;7;;;;;;;135.2193263999652;None;136.61074059992097;136.927522999933;138.05299140000716;138.06955670006573;141.6107769999653;None;9;0;0.7391315000131726;141.6107769999653;None;;;;;;;;7;;;;;;;143.1857038999442;None;None;None;[];143.1857038999442;None;"['9', '9', '9']";"[0.18813939997926354, 0.8519985999446362, 1.3163681998848915]";143.1857038999442;None;;;S10802;2021_Aug_05_1725;VideoMask;2021.1.2;120.1019425220779;
0.0;f;040_y_f_s_a.jpg;sad;7.0;sad_67.2ns.avi;sad;7.0;congruent;130.0;160.0;192.80086779892653;;;;;0;8;8;8;;;;;;;146.19408220006153;None;148.0187723999843;148.33549139997922;149.4852179000154;149.5022072000429;158.69371940009296;None;7;0;0.5521362998988479;158.69371940009296;None;;;;;;;;2;;;;;;;160.29350239993073;None;None;None;[];160.29350239993073;None;"['7', '7', '7', '7']";"[0.09641019999980927, 0.544372099917382, 0.9844027000945061, 2.6004960001446307]";160.29350239993073;None;;;S10802;2021_Aug_05_1725;VideoMask;2021.1.2;120.1019425220779;
3.0;m;013_y_m_s_a.jpg;sad;7.0;happy_56.2ns.avi;happy;9.0;incongruent;130.0;150.0;134.62621969351147;;;;;0;9;9;9;;;;;;;163.30185559997335;None;164.62660280009732;164.94333939999342;166.16010969993658;166.17672159988433;171.10160479997285;None;9;0;0.6801165000069886;171.10160479997285;None;;;;;;;;7;;;;;;;172.70154489995912;None;None;None;[];172.70154489995912;None;"['9', '9']";"[0.264546699821949, 0.6082970998249948]";172.70154489995912;None;;;S10802;2021_Aug_05_1725;VideoMask;2021.1.2;120.1019425220779;
0.0;f;030_o_f_h_a.jpg;happy;9.0;sad_133.1.wmv;sad;7.0;incongruent;120.0;160.0;238.4103736452693;;;;;0;10;10;10;;;;;;;175.7098204998765;None;177.90959320007823;178.22630849992856;179.36802050005645;179.38466229988262;181.35976710007526;None;None;0;;181.35976710007526;None;;;;;;;;4;;;;;;;182.90938590001315;None;None;None;[];182.90938590001315;None;['7'];[0.8564065999817103];182.90938590001315;None;;;S10802;2021_Aug_05_1725;VideoMask;2021.1.2;120.1019425220779;
2.0;f;012_o_f_h_a.jpg;happy;9.0;happy_2.2ns.avi;happy;9.0;congruent;140.0;150.0;120.08648649110712;;;;;0;11;11;11;;;;;;;185.91780989989638;None;187.15929690003395;187.47602239996195;188.66745300008915;188.68436690000817;200.80934339994565;None;9;0;0.34856790001504123;200.80934339994565;None;;;;;;;;7;;;;;;;202.44238579995;None;None;None;[];202.44238579995;None;"['9', '9', '9', '7']";"[0.2435405000578612, 0.49152070004493, 1.5075838000047952, 2.331503099994734]";202.44238579995;None;;;S10802;2021_Aug_05_1725;VideoMask;2021.1.2;120.1019425220779;
9.0;f;019_m_f_s_a.jpg;sad;7.0;sad_8.4ns.avi;sad;7.0;congruent;130.0;160.0;169.3395974323834;;;;;0;12;12;12;;;;;;;205.45051759993657;None;207.1003783000633;207.41725729987957;208.5754648000002;208.5921745998785;216.68374369991943;None;7;0;0.7461172000039369;216.68374369991943;None;;;;;;;;3;;;;;;;218.25858539994806;None;None;None;[];218.25858539994806;None;"['7', '7']";"[0.3073821999132633, 0.9792497998569161]";218.25858539994806;None;;;S10802;2021_Aug_05_1725;VideoMask;2021.1.2;120.1019425220779;
8.0;m;008_y_m_s_a.jpg;sad;7.0;sad_6.5ns.avi;sad;7.0;congruent;130.0;160.0;124.24628091899196;;;;;0;13;13;13;;;;;;;221.25849030003883;None;222.52495900006033;222.84162799990736;223.96676569990814;223.9834215999581;228.9757387000136;None;None;0;;228.9757387000136;None;;;;;;;;2;;;;;;;230.51643650000915;None;None;None;[];230.51643650000915;None;"['7', '7', '7', '7', '7', '7', '7']";"[0.2734179000835866, 0.5935527000110596, 0.9694702001288533, 1.3774677000474185, 1.7372948999982327, 1.9934435000177473, 2.3455729000270367]";230.51643650000915;None;;;S10802;2021_Aug_05_1725;VideoMask;2021.1.2;120.1019425220779;
1.0;f;021_o_f_h_a.jpg;happy;9.0;happy_12.1ns.avi;happy;9.0;congruent;140.0;150.0;236.6487020138435;;;;;0;14;14;14;;;;;;;233.5331615000032;None;235.74960909993388;236.06635600002483;237.2165168998763;237.2330608998891;244.8165019999724;None;9;0;0.30148339993320405;244.8165019999724;None;;;;;;;;8;;;;;;;246.4745060999412;None;None;None;[];246.4745060999412;None;"['9', '9', '9']";"[0.15540110017172992, 0.3634886001236737, 0.5793282000813633]";246.4745060999412;None;;;S10802;2021_Aug_05_1725;VideoMask;2021.1.2;120.1019425220779;
8.0;f;028_y_f_s_a.jpg;sad;7.0;sad_64.2ns.avi;sad;7.0;congruent;130.0;160.0;238.8507440172915;;;;;0;15;15;15;;;;;;;249.4827765999362;None;251.7324794998858;252.0491460999474;253.19058590009809;253.20758759998716;264.1824475999456;None;7;0;0.5354997999966145;264.1824475999456;None;;;;;;;;2;;;;;;;265.8072265998926;None;None;None;[];265.8072265998926;None;"['7', '7', '7']";"[0.054755100049078465, 0.26282880012877285, 0.4786537999752909]";265.8072265998926;None;;;S10802;2021_Aug_05_1725;VideoMask;2021.1.2;120.1019425220779;
2.0;f;012_o_f_s_a.jpg;sad;7.0;happy_139.1.wmv;happy;9.0;incongruent;130.0;150.0;185.59030554143408;;;;;0;16;16;16;;;;;;;268.80726339994;None;270.5569625000935;270.8736465999391;272.0077378000133;272.0324365000706;274.00714819994755;None;9;0;0.8388440001290292;274.00714819994755;None;;;;;;;;8;;;;;;;275.6320239000488;None;None;None;[];275.6320239000488;None;"['9', '9', '9']";"[0.1259289998561144, 0.3338661000598222, 0.5340263000689447]";275.6320239000488;None;;;S10802;2021_Aug_05_1725;VideoMask;2021.1.2;120.1019425220779;
3.0;m;033_o_m_s_a.jpg;sad;7.0;sad_64.5ns.avi;sad;7.0;congruent;130.0;160.0;159.52646627166388;;;;;0;17;17;17;;;;;;;278.6318894000724;None;280.17359669995494;280.49006349989213;281.7068463000469;281.7240649999585;288.2150522999;None;7;0;0.9429110998753458;288.2150522999;None;;;;;;;;3;;;;;;;289.82356139994226;None;None;None;[];289.82356139994226;None;"['7', '7']";"[14.158102700021118, 0.2465579998679459]";289.82356139994226;None;;;S10802;2021_Aug_05_1725;VideoMask;2021.1.2;120.1019425220779;
0.0;f;040_y_f_s_a.jpg;sad;7.0;happy_127.3.wmv;happy;9.0;incongruent;130.0;150.0;131.0431594605889;;;;;0;18;18;18;;;;;;;292.79830690007657;None;294.1063208000269;294.42312419996597;295.5481120001059;295.56479529989883;297.62313239998184;None;9;0;0.4307933000382036;297.62313239998184;None;;;;;;;;7;;;;;;;299.29798280005343;None;None;None;[];299.29798280005343;None;"['9', '9']";"[0.13225160003639758, 0.34789460012689233]";299.29798280005343;None;;;S10802;2021_Aug_05_1725;VideoMask;2021.1.2;120.1019425220779;
3.0;m;033_o_m_h_a.jpg;happy;9.0;sad_128.1.wmv;sad;7.0;incongruent;120.0;160.0;168.97426303437265;;;;;0;19;19;19;;;;;;;302.29805049998686;None;303.9060209998861;304.2227582000196;305.3729020000901;305.3894028000068;307.3561821000185;None;7;0;0.665826799813658;307.3561821000185;None;;;;;;;;3;;;;;;;308.98093249998055;None;None;None;[];308.98093249998055;None;"['7', '7']";"[0.6333360001444817, 0.905059700133279]";308.98093249998055;None;;;S10802;2021_Aug_05_1725;VideoMask;2021.1.2;120.1019425220779;
9.0;f;019_m_f_h_a.jpg;happy;9.0;sad_115.1.wmv;sad;7.0;incongruent;120.0;160.0;202.13700247699333;;;;;0;20;20;20;;;;;;;311.9809965000022;None;313.87296699988656;314.18945609987713;315.3142818000633;315.3307749000378;317.322843400063;None;7;0;1.2511507000308484;317.322843400063;None;;;;;;;;3;;;;;;;318.8724547000602;None;None;None;[];318.8724547000602;None;"['7', '7']";"[0.3416858999989927, 0.7656165999360383]";318.8724547000602;None;;;S10802;2021_Aug_05_1725;VideoMask;2021.1.2;120.1019425220779;
8.0;m;008_y_m_h_a.jpg;happy;9.0;happy_1.2ns.avi;happy;9.0;congruent;140.0;150.0;155.22310421045015;;;;;0;21;21;21;;;;;;;321.8808267998975;None;323.4221107000485;323.73887780006044;324.8805996000301;324.89724489999935;337.6636767000891;None;9;0;0.6863919999450445;337.6636767000891;None;;;;;;;;7;;;;;;;339.2635576999746;None;None;None;[];339.2635576999746;None;"['9', '9']";"[0.2225819998420775, 1.2386024999432266]";339.2635576999746;None;;;S10802;2021_Aug_05_1725;VideoMask;2021.1.2;120.1019425220779;
0.0;f;040_y_f_s_a.jpg;sad;7.0;sad_94.3ns.avi;sad;7.0;congruent;130.0;160.0;157.18644691248227;;;;;0;22;22;22;;;;;;;342.27194139990024;None;343.7882697999012;344.1050213999115;345.2300654000137;345.2467064000666;347.86334839998744;None;7;0;0.8706515000667423;347.86334839998744;None;;;;;;;;3;;;;;;;349.43822770006955;None;None;None;[];349.43822770006955;None;"['7', '7', '7']";"[0.25573570001870394, 0.5201001998502761, 0.9518087999895215]";349.43822770006955;None;;;S10802;2021_Aug_05_1725;VideoMask;2021.1.2;120.1019425220779;
6.0;m;016_y_m_s_a.jpg;sad;7.0;happy_60.4ns.avi;happy;9.0;incongruent;130.0;150.0;135.96622391936876;;;;;0;23;23;23;;;;;;;352.44664400001056;None;353.7796567999758;354.09638549992815;355.2630966999568;355.2796513000503;361.02124879998155;None;9;0;0.4889940000139177;361.02124879998155;None;;;;;;;;7;;;;;;;362.63787900004536;None;None;None;[];362.63787900004536;None;"['9', '9', '9']";"[0.10427450016140938, 0.7601491000968963, 1.4723474001511931]";362.63787900004536;None;;;S10802;2021_Aug_05_1725;VideoMask;2021.1.2;120.1019425220779;
0.0;f;030_o_f_h_a.jpg;happy;9.0;happy_24.1ns.avi;happy;9.0;congruent;140.0;150.0;187.2363405679046;;;;;0;24;24;24;;;;;;;365.63802310009487;None;367.39591660001315;367.7126380999107;369.0209256000817;369.0376879000105;372.17095230007544;None;9;0;0.723212500102818;372.17095230007544;None;;;;;;;;8;;;;;;;373.7708230998833;None;None;None;[];373.7708230998833;None;"['9', '9', '9']";"[0.05134700005874038, 0.29128400003537536, 0.9951051999814808]";373.7708230998833;None;;;S10802;2021_Aug_05_1725;VideoMask;2021.1.2;120.1019425220779;
8.0;m;008_y_m_s_a.jpg;sad;7.0;happy_133.3.wmv;happy;9.0;incongruent;130.0;150.0;151.65964880545846;;;;;0;25;25;25;;;;;;;376.7708980999887;None;378.2372105999384;378.5542498000432;379.67902250005864;379.69562310003676;381.687465300085;None;9;0;0.5266185000073165;381.687465300085;None;;;;;;;;9;;;;;;;383.3372980998829;None;None;None;[];383.3372980998829;None;"['9', '9', '9', '9']";"[0.21270889998413622, 0.412868200102821, 0.5888986999634653, 0.7571503999643028]";383.3372980998829;None;;;S10802;2021_Aug_05_1725;VideoMask;2021.1.2;120.1019425220779;
1.0;f;021_o_f_s_a.jpg;sad;7.0;happy_61.2ns.avi;happy;9.0;incongruent;130.0;150.0;146.79956415721207;;;;;0;26;26;26;;;;;;;386.3372879999224;None;387.753675899934;388.0704566000495;389.23686930001713;389.25356670003384;393.72862769989297;None;9;0;0.3734402998816222;393.72862769989297;None;;;;;;;;7;;;;;;;395.35361330001615;None;None;None;[];395.35361330001615;None;"['9', '9', '9']";"[0.21243069996125996, 0.46056860010139644, 1.0925928999204189]";395.35361330001615;None;;;S10802;2021_Aug_05_1725;VideoMask;2021.1.2;120.1019425220779;
1.0;f;021_o_f_h_a.jpg;happy;9.0;sad_116.1.wmv;sad;7.0;incongruent;120.0;160.0;205.93899364307754;;;;;0;27;27;27;;;;;;;398.36200050008483;None;400.27831789990887;400.5951451000292;401.728491100017;401.74508640007116;403.72852150001563;None;7;0;0.8217941999901086;403.72852150001563;None;;;;;;;;3;;;;;;;405.3283494999632;None;None;None;[];405.3283494999632;None;"['7', '7', '7']";"[0.013871700037270784, 0.2698566000908613, 0.7979322001338005]";405.3283494999632;None;;;S10802;2021_Aug_05_1725;VideoMask;2021.1.2;120.1019425220779;
7.0;m;027_o_m_h_a.jpg;happy;9.0;happy_20.1ns.avi;happy;9.0;congruent;140.0;150.0;145.4488529976734;;;;;0;28;28;28;;;;;;;408.3282969999127;None;409.7363346000202;410.05323290009983;411.19485619990155;411.2115180999972;414.2032156998757;None;9;0;0.6108560999855399;414.2032156998757;None;;;;;;;;7;;;;;;;415.8280428999569;None;None;None;[];415.8280428999569;None;"['9', '9', '9']";"[0.18615729990415275, 0.46627199999056756, 0.9302056999877095]";415.8280428999569;None;;;S10802;2021_Aug_05_1725;VideoMask;2021.1.2;120.1019425220779;
3.0;m;033_o_m_s_a.jpg;sad;7.0;happy_126.3.wmv;happy;9.0;incongruent;130.0;150.0;220.47504181707743;;;;;0;29;29;29;;;;;;;418.836312700063;None;420.87766809994355;421.19445810001343;422.32766949990764;422.34457190008834;424.3361629000865;None;9;0;1.0619777000974864;424.3361629000865;None;;;;;;;;7;;;;;;;425.91100790002383;None;None;None;[];425.91100790002383;None;"['9', '9']";"[0.0711654000915587, 0.5832108000759035]";425.91100790002383;None;;;S10802;2021_Aug_05_1725;VideoMask;2021.1.2;120.1019425220779;
4.0;m;004_o_m_s_a.jpg;sad;7.0;sad_2.4ns.avi;sad;7.0;congruent;130.0;160.0;153.9424691910033;;;;;0;30;30;30;;;;;;;428.91946020000614;None;430.41080660000443;430.7275487999432;431.87766920006834;431.89426880003884;439.81918739993125;None;7;0;0.7390407000202686;439.81918739993125;None;;;;;;;;1;;;;;;;441.4689418999478;None;None;None;[];441.4689418999478;None;"['7', '7', '7', '7']";"[0.12110630003735423, 0.3052460001781583, 0.48114640009589493, 0.6492467001080513]";441.4689418999478;None;;;S10802;2021_Aug_05_1725;VideoMask;2021.1.2;120.1019425220779;
8.0;m;008_y_m_h_a.jpg;happy;9.0;sad_111.1.wmv;sad;7.0;incongruent;120.0;160.0;182.0123397825363;;;;;0;31;31;31;;;;;;;444.46901510003954;None;446.1937470000703;446.51047129998915;447.64393189991824;447.6604321000632;449.6438559999224;None;7;0;0.9223611000925303;449.6438559999224;None;;;;;;;;3;;;;;;;451.24371000006795;None;None;None;[];451.24371000006795;None;"['7', '7']";"[0.010527899954468012, 0.26631900016218424]";451.24371000006795;None;;;S10802;2021_Aug_05_1725;VideoMask;2021.1.2;120.1019425220779;
4.0;m;004_o_m_h_a.jpg;happy;9.0;happy_1.1ns.avi;happy;9.0;congruent;140.0;150.0;145.41905773865074;;;;;0;32;32;32;;;;;;;454.2521234001033;None;455.718489699997;456.0352588999085;457.1769091000315;457.1935203000903;471.6515236000996;None;9;0;0.4986653998494148;471.6515236000996;None;;;;;;;;7;;;;;;;473.2764318000991;None;None;None;[];473.2764318000991;None;"['9', '9']";"[0.25784819992259145, 0.6258410001173615]";473.2764318000991;None;;;S10802;2021_Aug_05_1725;VideoMask;2021.1.2;120.1019425220779;
4.0;m;004_o_m_s_a.jpg;sad;7.0;happy_131.2.wmv;happy;9.0;incongruent;130.0;150.0;163.9874412082805;;;;;0;33;33;33;;;;;;;476.2764546999242;None;477.85945559991524;478.1764406999573;479.326215100009;479.342967600096;481.30970590002835;None;9;0;0.5445223001297563;481.30970590002835;None;;;;;;;;7;;;;;;;482.90949120000005;None;None;None;[];482.90949120000005;None;"['9', '9']";"[0.13672589999623597, 0.4088179001118988]";482.90949120000005;None;;;S10802;2021_Aug_05_1725;VideoMask;2021.1.2;120.1019425220779;
2.0;f;012_o_f_h_a.jpg;happy;9.0;happy_27.1ns.avi;happy;9.0;congruent;140.0;150.0;207.9053492649655;;;;;0;34;34;34;;;;;;;485.91783869988285;None;487.85090339998715;488.16761439992115;489.292685699882;489.3093133000657;491.7926310999319;None;9;0;0.517550699878484;491.7926310999319;None;;;;;;;;7;;;;;;;493.4340107999742;None;None;None;[];493.4340107999742;None;"['9', '9']";"[10.464722099946812, 0.7161302999593318]";493.4340107999742;None;;;S10802;2021_Aug_05_1725;VideoMask;2021.1.2;120.1019425220779;
7.0;m;027_o_m_s_a.jpg;sad;7.0;happy_117.3.wmv;happy;9.0;incongruent;130.0;150.0;218.0520785974414;;;;;0;35;35;35;;;;;;;496.4090376999229;None;498.4339344999753;498.75109039992094;499.87572059989907;499.89236759999767;501.8840707000345;None;9;0;0.9142391001805663;501.8840707000345;None;;;;;;;;8;;;;;;;503.45871959999204;None;None;None;[];503.45871959999204;None;"['9', '9', '9', '9', '9']";"[0.4194810998160392, 0.7796416999772191, 1.2276037000119686, 1.7236724998801947, 2.4594258998986334]";503.45871959999204;None;;;S10802;2021_Aug_05_1725;VideoMask;2021.1.2;120.1019425220779;
2.0;f;012_o_f_h_a.jpg;happy;9.0;sad_113.1.wmv;sad;7.0;incongruent;120.0;160.0;192.53137802384992;;;;;0;36;36;36;;;;;;;506.4594489999581;None;508.2752876000013;508.59201789996587;509.7254510000348;509.74206189997494;511.7253986999858;None;7;0;0.832797999959439;511.7253986999858;None;;;;;;;;3;;;;;;;513.3001771999989;None;None;None;[];513.3001771999989;None;"['7', '7']";"[9.795868899906054, 0.6025374999735504]";513.3001771999989;None;;;S10802;2021_Aug_05_1725;VideoMask;2021.1.2;120.1019425220779;
8.0;f;028_y_f_h_a.jpg;happy;9.0;happy_23.1ns.avi;happy;9.0;congruent;140.0;150.0;159.76384515822056;;;;;0;37;37;37;;;;;;;516.2836243999191;None;517.8083746000193;518.1250932998955;519.2751539999153;519.291806000052;523.8334464000072;None;None;0;;523.8334464000072;None;;;;;;;;7;;;;;;;525.3831299999729;None;None;None;[];525.3831299999729;None;"['9', '9']";"[0.03152960003353655, 1.4392184000462294]";525.3831299999729;None;;;S10802;2021_Aug_05_1725;VideoMask;2021.1.2;120.1019425220779;
0.0;f;030_o_f_s_a.jpg;sad;7.0;sad_64.3ns.avi;sad;7.0;congruent;130.0;160.0;172.91738127163183;;;;;0;38;38;38;;;;;;;528.3833000999875;None;530.0413309000432;530.3580577000976;531.5167457999196;531.5333312998991;536.4914718000218;None;9;0;0.6669276000466198;536.4914718000218;None;;;;;;;;3;;;;;;;538.0662893999834;None;None;None;[];538.0662893999834;None;"['7', '7']";"[0.2599412000272423, 0.5800318999681622]";538.0662893999834;None;;;S10802;2021_Aug_05_1725;VideoMask;2021.1.2;120.1019425220779;
6.0;m;016_y_m_h_a.jpg;happy;9.0;sad_114.1.wmv;sad;7.0;incongruent;120.0;160.0;196.03539454983184;;;;;0;39;39;39;;;;;;;541.074666999979;None;542.9243135000579;543.2409767000936;544.3992679000366;544.4159103001002;546.3743563001044;None;7;0;0.6560956998728216;546.3743563001044;None;;;;;;;;1;;;;;;;548.0158086998854;None;None;None;[];548.0158086998854;None;"['7', '7', '7', '7']";"[9.900318800006062, 0.1426045000553131, 0.3344921001698822, 0.5345283001661301]";548.0158086998854;None;;;S10802;2021_Aug_05_1725;VideoMask;2021.1.2;120.1019425220779;
6.0;m;016_y_m_s_a.jpg;sad;7.0;sad_8.3ns.avi;sad;7.0;congruent;130.0;160.0;139.87174075953956;;;;;0;40;40;40;;;;;;;550.9908787000459;None;552.3657346998807;552.6824407998938;553.8407531999983;553.8574755999725;561.5741562999319;None;7;0;1.0481607001274824;561.5741562999319;None;;;;;;;;3;;;;;;;563.123910699971;None;None;None;[];563.123910699971;None;"['7', '7']";"[0.0024228000547736883, 0.34649510006420314]";563.123910699971;None;;;S10802;2021_Aug_05_1725;VideoMask;2021.1.2;120.1019425220779;
7.0;m;027_o_m_s_a.jpg;sad;7.0;sad_10.4ns.avi;sad;7.0;congruent;130.0;160.0;163.89298117292617;;;;;0;41;41;41;;;;;;;566.1323128999211;None;567.6986191000324;568.0158456000499;569.1488109999336;569.1653875999618;572.3153872999828;None;7;0;0.4988327999599278;572.3153872999828;None;;;;;;;;1;;;;;;;573.9817423999775;None;None;None;[];573.9817423999775;None;"['7', '7', '7', '7', '7']";"[0.3526097999420017, 0.5366994999349117, 0.7207843000069261, 0.896619499893859, 1.08052339986898]";573.9817423999775;None;;;S10802;2021_Aug_05_1725;VideoMask;2021.1.2;120.1019425220779;
3.0;m;013_y_m_h_a.jpg;happy;9.0;happy_9.1ns.avi;happy;9.0;congruent;140.0;150.0;128.37211756912527;;;;;0;42;42;42;;;;;;;576.9901932999492;None;578.2566841999069;578.5734310999978;579.7574551999569;579.7985125998966;582.9317640000954;None;9;0;0.3145996001549065;582.9317640000954;None;;;;;;;;8;;;;;;;584.7147256999742;None;None;None;[];584.7147256999742;None;"['9', '9', '9']";"[0.13988630007952452, 0.3478459999896586, 0.7316463999450207]";584.7147256999742;None;;;S10802;2021_Aug_05_1725;VideoMask;2021.1.2;120.1019425220779;
7.0;m;027_o_m_h_a.jpg;happy;9.0;sad_117.1.wmv;sad;7.0;incongruent;120.0;160.0;163.19466748508617;;;;;0;43;43;43;;;;;;;587.7232687000651;None;589.2979981999379;589.6147433998995;590.7398894000798;590.7564344001003;592.756405999884;None;7;0;0.473913999972865;592.756405999884;None;;;;;;;;3;;;;;;;594.3312538000755;None;None;None;[];594.3312538000755;None;"['7', '7', '7', '9', '7']";"[0.21921729994937778, 0.6270719999447465, 1.1151278999168426, 2.083293200004846, 2.8991683998610824]";594.3312538000755;None;;;S10802;2021_Aug_05_1725;VideoMask;2021.1.2;120.1019425220779;
4.0;m;004_o_m_h_a.jpg;happy;9.0;sad_95.1ns.avi;sad;7.0;incongruent;120.0;160.0;162.95060606286506;;;;;0;44;44;44;;;;;;;597.3311828998849;None;598.9146076999605;599.2313429999631;600.4229299998842;600.4395242000464;609.1559770000167;None;7;0;0.7544003999792039;609.1559770000167;None;;;;;;;;1;;;;;;;610.7642492000014;None;None;None;[];610.7642492000014;None;"['7', '7', '7', '7']";"[0.08207400003448129, 0.28997429995797575, 0.47432149993255734, 0.657971499953419]";610.7642492000014;None;;;S10802;2021_Aug_05_1725;VideoMask;2021.1.2;120.1019425220779;
0.0;f;040_y_f_h_a.jpg;happy;9.0;sad_128.2.wmv;sad;7.0;incongruent;120.0;160.0;121.98396994352893;;;;;0;45;45;45;;;;;;;613.7641841000877;None;614.9806828000583;615.297353599919;616.4307373999618;616.4474222999997;618.4307657999452;None;7;0;0.5114567000418901;618.4307657999452;None;;;;;;;;3;;;;;;;620.0556373000145;None;None;None;[];620.0556373000145;None;"['7', '7']";"[0.23078409978188574, 0.9507456999272108]";620.0556373000145;None;;;S10802;2021_Aug_05_1725;VideoMask;2021.1.2;120.1019425220779;
0.0;f;040_y_f_h_a.jpg;happy;9.0;sad_138.1.wmv;sad;7.0;incongruent;120.0;160.0;195.60264978061832;;;;;0;46;46;46;;;;;;;623.0556636000983;None;624.9053225000389;625.2221093000844;626.3471226999536;626.3637528999243;628.3554853999522;None;None;0;;628.3554853999522;None;;;;;;;;4;;;;;;;629.9051651000045;None;None;None;[];629.9051651000045;None;"['9', '7']";"[0.8452588000800461, 1.6933840001001954]";629.9051651000045;None;;;S10802;2021_Aug_05_1725;VideoMask;2021.1.2;120.1019425220779;
8.0;m;008_y_m_s_a.jpg;sad;7.0;happy_29.1ns.avi;happy;9.0;incongruent;130.0;150.0;212.92407054126133;;;;;0;47;47;47;;;;;;;632.9137750000227;None;634.888448700076;635.2051250999793;636.3719041000586;636.38851780002;639.0300783999264;None;9;0;0.6483539999462664;639.0300783999264;None;;;;;;;;7;;;;;;;640.6299757000525;None;None;None;[];640.6299757000525;None;"['9', '9']";"[0.22443590010516346, 1.7844877000898123]";640.6299757000525;None;;;S10802;2021_Aug_05_1725;VideoMask;2021.1.2;120.1019425220779;
0.0;f;040_y_f_h_a.jpg;happy;9.0;happy_24.3ns.avi;happy;9.0;congruent;140.0;150.0;190.23859628619445;;;;;0;48;48;48;;;;;;;643.6300772998948;None;645.4047868000343;645.7213415000588;646.9299433999695;646.9465512998868;648.7798403000925;None;9;0;0.5389119000174105;648.7798403000925;None;;;;;;;;7;;;;;;;650.3797758999281;None;None;None;[];650.3797758999281;None;"['9', '9']";"[0.16277170018292964, 0.5067003001458943]";650.3797758999281;None;;;S10802;2021_Aug_05_1725;VideoMask;2021.1.2;120.1019425220779;
3.0;m;033_o_m_h_a.jpg;happy;9.0;happy_24.2ns.avi;happy;9.0;congruent;140.0;150.0;127.28107088671867;;;;;0;49;49;49;;;;;;;653.3796727000736;None;654.6378399999812;654.9544885999057;656.0879818000831;656.1049106998835;659.8129116001073;None;9;0;0.39349429984577;659.8129116001073;None;;;;;;;;9;;;;;;;661.4876107000746;None;None;None;[];661.4876107000746;None;"['9', '9', '9', '9']";"[11.074746099999174, 0.1910345999058336, 0.4069436998106539, 2.2870715998578817]";661.4876107000746;None;;;S10802;2021_Aug_05_1725;VideoMask;2021.1.2;120.1019425220779;
9.0;f;019_m_f_s_a.jpg;sad;7.0;happy_61.1ns.avi;happy;9.0;incongruent;130.0;150.0;190.9434091532566;;;;;0;50;50;50;;;;;;;664.4709524000064;None;666.295897499891;666.6126425000839;667.7874958999455;667.8043094000313;675.1377858999185;None;9;0;1.284821700071916;675.1377858999185;None;;;;;;;;7;;;;;;;676.6957608000375;None;None;None;[];676.6957608000375;None;"['9', '9']";"[0.022875499911606312, 0.2788080000318587]";676.6957608000375;None;;;S10802;2021_Aug_05_1725;VideoMask;2021.1.2;120.1019425220779;
8.0;f;028_y_f_h_a.jpg;happy;9.0;sad_119.1.wmv;sad;7.0;incongruent;120.0;160.0;178.10396226647933;;;;;0;51;51;51;;;;;;;679.695749900071;None;681.3954151999205;681.7122055999935;682.8453249998856;682.8622701999266;684.9122373000719;None;7;0;0.6062762001529336;684.9122373000719;None;;;;;;;;2;;;;;;;686.4870911000762;None;None;None;[];686.4870911000762;None;"['7', '7', '7', '7']";"[0.12741749989800155, 0.6555224999319762, 1.015504299895838, 1.3674216999206692]";686.4870911000762;None;;;S10802;2021_Aug_05_1725;VideoMask;2021.1.2;120.1019425220779;
3.0;m;033_o_m_h_a.jpg;happy;9.0;sad_136.1.wmv;sad;7.0;incongruent;120.0;160.0;206.04367658109783;;;;;0;52;52;52;;;;;;;689.4871410001069;None;691.4120817000512;691.7284768999089;692.8622105000541;692.8784032000694;694.8619679000694;None;7;0;0.9365607001818717;694.8619679000694;None;;;;;;;;1;;;;;;;696.4118140998762;None;None;None;[];696.4118140998762;None;"['7', '7', '7', '7']";"[0.06686979997903109, 0.2984978000167757, 0.5307995998300612, 0.8748379999306053]";696.4118140998762;None;;;S10802;2021_Aug_05_1725;VideoMask;2021.1.2;120.1019425220779;
6.0;m;016_y_m_h_a.jpg;happy;9.0;happy_9.2ns.avi;happy;9.0;congruent;140.0;150.0;136.52220806776708;;;;;0;53;53;53;;;;;;;699.4118476998992;None;700.7532788999379;701.0699358999263;702.3283961999696;702.3450291999616;708.1370675999206;None;9;0;0.35748469992540777;708.1370675999206;None;;;;;;;;7;;;;;;;709.7613421999849;None;None;None;[];709.7613421999849;None;"['9', '9']";"[0.013333299895748496, 0.48562379996292293]";709.7613421999849;None;;;S10802;2021_Aug_05_1725;VideoMask;2021.1.2;120.1019425220779;
9.0;f;019_m_f_h_a.jpg;happy;9.0;happy_10.1ns.avi;happy;9.0;congruent;140.0;150.0;180.35091595488527;;;;;0;54;54;54;;;;;;;712.7614464999642;None;714.4778334998991;714.794548700098;715.9195226000156;715.9362421999685;723.3694887999445;None;None;0;;723.3694887999445;None;;;;;;;;7;;;;;;;724.9193011000752;None;None;None;[];724.9193011000752;None;"['9', '9']";"[0.6071876999922097, 1.0792364000808448]";724.9193011000752;None;;;S10802;2021_Aug_05_1725;VideoMask;2021.1.2;120.1019425220779;
8.0;f;028_y_f_s_a.jpg;sad;7.0;happy_122.3.wmv;happy;9.0;incongruent;130.0;150.0;204.27932588393085;;;;;0;55;55;55;;;;;;;727.9192260999698;None;729.8440753999166;730.1608921000734;731.302237899974;731.3191798999906;733.2941570999101;None;9;0;1.1684089000336826;733.2941570999101;None;;;;;;;;9;;;;;;;734.8690319999587;None;None;None;[];734.8690319999587;None;"['9', '9', '9', '9']";"[0.12155539984814823, 0.32160849985666573, 0.9058208998758346, 2.2178275999613106]";734.8690319999587;None;;;S10802;2021_Aug_05_1725;VideoMask;2021.1.2;120.1019425220779;
3.0;m;013_y_m_s_a.jpg;sad;7.0;sad_7.7ns.avi;sad;7.0;congruent;130.0;160.0;192.40728800739942;;;;;0;56;56;56;;;;;;;737.8774631000124;None;739.6854671000037;740.0021714000031;741.2111233000178;741.2442679000087;747.1354400999844;None;None;0;;747.1354400999844;None;;;;;;;;6;;;;;;;748.6769230000209;None;None;None;[];748.6769230000209;None;['9'];[0.25759609998203814];748.6769230000209;None;;;S10802;2021_Aug_05_1725;VideoMask;2021.1.2;120.1019425220779;
3.0;m;013_y_m_h_a.jpg;happy;9.0;sad_113.2.wmv;sad;7.0;incongruent;120.0;160.0;219.6544115751568;;;;;0;57;57;57;;;;;;;751.6852462000679;None;753.7267052000389;754.0435605000239;755.1768499999307;755.1934809999075;757.1767541998997;None;None;0;;757.1767541998997;None;;;;;;;;3;;;;;;;758.7265411000699;None;None;None;[];758.7265411000699;None;"['7', '7']";"[0.8721709998790175, 1.4400163998361677]";758.7265411000699;None;;;S10802;2021_Aug_05_1725;VideoMask;2021.1.2;120.1019425220779;
4.0;m;004_o_m_h_a.jpg;happy;9.0;happy_25.1ns.avi;happy;9.0;congruent;140.0;150.0;237.98255695511958;;;;;0;58;58;58;;;;;;;761.7266728999093;None;763.9097716000397;764.2264727000147;765.4432592000812;765.4598020000849;769.0515232998878;None;9;0;0.355174999916926;769.0515232998878;None;;;;;;;;7;;;;;;;770.7013681998942;None;None;None;[];770.7013681998942;None;"['9', '9']";"[0.08929440006613731, 0.29717939998954535]";770.7013681998942;None;;;S10802;2021_Aug_05_1725;VideoMask;2021.1.2;120.1019425220779;
0.0;f;030_o_f_h_a.jpg;happy;9.0;sad_127.1.wmv;sad;7.0;incongruent;120.0;160.0;231.85538291836468;;;;;0;59;59;59;;;;;;;773.7013932999689;None;775.8343315999955;776.1510642999783;777.2762599000707;777.2929207999259;779.2844604998827;None;None;0;;779.2844604998827;None;;;;;;;;7;;;;;;;780.8344773999415;None;None;None;[];780.8344773999415;None;"['9', '9', '9']";"[1.4281354998238385, 2.0682508000172675, 2.908213899936527]";780.8344773999415;None;;;S10802;2021_Aug_05_1725;VideoMask;2021.1.2;120.1019425220779;
;;;;;;;;;;;;;;;;;;;;;;;;;;;;;;;;;;;;;;;;;;;;;;;;;;;;;;;;;;;;;;;;783.8343762001023;None;;;;;;
