primePerson;primeGender;prime;primeEmotion;corrAnsPrime;target;targetEmotion;corrAnsTar;Cond;ID_Primer;ID_Target;JitterTime;Condition;example.thisRepN;example.thisTrialN;example.thisN;example.thisIndex;study.thisRepN;study.thisTrialN;study.thisN;study.thisIndex;MR_trigger_time;MR_trigger_number;text_intro.started;text_intro.stopped;text_probe.started;text_probe.stopped;polygon_ISI.started;polygon_ISI.stopped;polygon.started;polygon.stopped;primerImage.started;primerImage.stopped;response.started;response.stopped;key_resp.keys;key_resp.corr;key_resp.started;key_resp.stopped;slider_Text.started;slider_Text.stopped;slider_ex.response;slider_ex.rt;slider_ex.history;slider_ex.started;slider_ex.stopped;Rating;slider_resp_response.keys;slider_resp_response.started;slider_resp_response.stopped;slider_resp_response.rt;text_start.started;text_start.stopped;key_resp.rt;text_slider.started;text_slider.stopped;slider_stud.response;slider_stud.rt;slider_stud.history;slider_stud.started;slider_stud.stopped;slider_resp_study.keys;slider_resp_study.rt;slider_resp_study.started;slider_resp_study.stopped;text_ende.started;text_ende.stopped;participant;date;expName;psychopyVersion;frameRate;
1111;m;1111_m_m_h_a.jpg;happy;9;example_30.4ns.avi;neutral;7;incongruent;120.0;170.0;189.5874364012288;;0;0;0;0;;;;;218.4317441000603;1;218.5102907998953;220.51053930004127;220.51053930004127;None;222.52698730002157;None;224.80186909995973;225.12699979986064;226.2686286000535;226.2852389998734;230.5936050999444;None;None;0;230.5936050999444;None;232.16015539993532;None;None;None;[];232.16015539993532;None;5;None;232.16015539993532;None;;;;;;;;;;;;;;;;;;S11420;2022_May_03_1103;VideoMask;2021.1.2;120.09487505856208;
1113;f;1113_y_f_s_a.jpg;sad;7;example_30.3ns.avi;neutral;7;incongruent;130.0;170.0;229.02432995836998;;0;1;1;1;;;;;;;;;;;235.15989769995213;None;237.28478770004585;237.6015075999312;238.74327019997872;238.75990649987943;240.74323669984005;None;None;0;240.74323669984005;None;242.29293220001273;None;None;None;[];242.29293220001273;None;6;['9'];242.29293220001273;None;[1.3129644999280572];;;;;;;;;;;;;;;;;S11420;2022_May_03_1103;VideoMask;2021.1.2;120.09487505856208;
9.0;f;019_m_f_h_a.jpg;happy;9.0;sad_115.1.wmv;sad;7.0;incongruent;120.0;160.0;128.09063432376465;h_s;;;;;0;0;0;0;;;;;;;246.3263534998987;None;247.60958809987642;247.92620539991185;249.0594337999355;249.07604219997302;251.07618699991144;None;7;0;251.07618699991144;None;;;;;;;;3;;;;;245.2931373999454;None;1.3695726001169533;252.6345281000249;None;None;None;[];252.6345281000249;None;"['7', '7', '7']";"[1.02738989982754, 1.6674840999767184, 2.1555880999658257]";252.6345281000249;None;;;S11420;2022_May_03_1103;VideoMask;2021.1.2;120.09487505856208;
3.0;m;033_o_m_s_a.jpg;sad;7.0;sad_94.2ns.avi;sad;7.0;congruent;130.0;160.0;182.29120173647655;s_s;;;;;0;1;1;1;;;;;;;255.63440539990552;None;257.3676841999404;257.6842471000273;258.8176178999711;258.83427629992366;261.5091782999225;None;7;0;261.5091782999225;None;;;;;;;;2;;;;;;;1.1126810999121517;263.0508277998306;None;None;None;[];263.0508277998306;None;"['7', '7', '7', '7']";"[0.8029887001030147, 1.259038200136274, 1.715004000114277, 2.715046900091693]";263.0508277998306;None;;;S11420;2022_May_03_1103;VideoMask;2021.1.2;120.09487505856208;
8.0;m;008_y_m_h_a.jpg;happy;9.0;happy_26.1ns.avi;happy;9.0;congruent;120.0;150.0;155.9437854594882;h_h;;;;;0;2;2;2;;;;;;;266.05071799992584;None;267.54224290000275;267.85895989998244;269.01728260004893;269.03465259983204;270.9839963999111;None;9;0;270.9839963999111;None;;;;;;;;6;;;;;;;1.1738812001422048;272.533872500062;None;None;None;[];272.533872500062;None;['9'];[0.7764090998098254];272.533872500062;None;;;S11420;2022_May_03_1103;VideoMask;2021.1.2;120.09487505856208;
0.0;f;040_y_f_h_a.jpg;happy;9.0;sad_138.1.wmv;sad;7.0;incongruent;120.0;160.0;133.99071306426532;h_s;;;;;0;3;3;3;;;;;;;275.53382160002366;None;276.8669979998376;277.1837191998493;278.3170855999924;278.333691699896;280.3169448999688;None;None;0;280.3169448999688;None;;;;;;;;3;;;;;;;;281.8834098998923;None;None;None;[];281.8834098998923;None;"['7', '7']";"[9.296013199957088, 0.9544418000150472]";281.8834098998923;None;;;S11420;2022_May_03_1103;VideoMask;2021.1.2;120.09487505856208;
8.0;f;028_y_f_s_a.jpg;sad;7.0;sad_64.2ns.avi;sad;7.0;congruent;130.0;160.0;229.88540597086478;s_s;;;;;0;4;4;4;;;;;;;284.86693440005183;None;287.0667391999159;287.38334459997714;288.51729370001704;288.55037199985236;299.51639249990694;None;7;0;299.51639249990694;None;;;;;;;;4;;;;;;;1.0254422998987138;301.20798239996657;None;None;None;[];301.20798239996657;None;['7'];[0.9420823999680579];301.20798239996657;None;;;S11420;2022_May_03_1103;VideoMask;2021.1.2;120.09487505856208;
7.0;m;027_o_m_s_a.jpg;sad;7.0;sad_10.4ns.avi;sad;7.0;congruent;130.0;160.0;185.20129417468752;s_s;;;;;0;5;5;5;;;;;;;304.2163678999059;None;305.9743720998522;306.29111150000244;307.48285479983315;307.49949690001085;310.5910654999316;None;7;0;310.5910654999316;None;;;;;;;;2;;;;;;;1.0310281000565737;312.1410168998409;None;None;None;[];312.1410168998409;None;"['7', '7', '7']";"[0.769178899936378, 1.345012600068003, 1.8089296000543982]";312.1410168998409;None;;;S11420;2022_May_03_1103;VideoMask;2021.1.2;120.09487505856208;
2.0;f;012_o_f_s_a.jpg;sad;7.0;sad_7.5ns.avi;sad;7.0;congruent;130.0;160.0;220.27842655424388;s_s;;;;;0;6;6;6;;;;;;;315.1493545998819;None;317.18243200005963;317.4990780998487;318.6748538999818;318.7074416000396;321.4242364000529;None;7;0;321.4242364000529;None;;;;;;;;3;;;;;;;0.7420862999279052;322.9823755999096;None;None;None;[];322.9823755999096;None;"['7', '7']";"[1.143762999912724, 1.927616799948737]";322.9823755999096;None;;;S11420;2022_May_03_1103;VideoMask;2021.1.2;120.09487505856208;
2.0;f;012_o_f_h_a.jpg;happy;9.0;happy_27.1ns.avi;happy;9.0;congruent;120.0;150.0;146.44967055810616;h_h;;;;;0;7;7;7;;;;;;;325.9822503000032;None;327.3987064999528;327.71546870004386;328.9578197998926;328.9904765000101;331.3404673000332;None;9;0;331.3404673000332;None;;;;;;;;6;;;;;;;0.8255231000948697;333.15703969984315;None;None;None;[];333.15703969984315;None;['9'];[0.824781599920243];333.15703969984315;None;;;S11420;2022_May_03_1103;VideoMask;2021.1.2;120.09487505856208;
8.0;f;028_y_f_h_a.jpg;happy;9.0;sad_119.1.wmv;sad;7.0;incongruent;120.0;160.0;148.71526953572538;h_s;;;;;0;8;8;8;;;;;;;336.15704649989493;None;337.6151176998392;337.93189119989984;339.0655904999003;339.0902465998661;341.1318139999639;None;7;0;341.1318139999639;None;;;;;;;;3;;;;;;;0.8262070999480784;342.68173899990506;None;None;None;[];342.68173899990506;None;"['7', '7']";"[1.1724542998708785, 1.7561824999284]";342.68173899990506;None;;;S11420;2022_May_03_1103;VideoMask;2021.1.2;120.09487505856208;
6.0;m;016_y_m_s_a.jpg;sad;7.0;happy_60.4ns.avi;happy;9.0;incongruent;130.0;150.0;126.02367393611817;s_h;;;;;0;9;9;9;;;;;;;345.69013569992967;None;346.9816828998737;347.29827719996683;348.48995770001784;348.5066165998578;354.22310059983283;None;None;0;354.22310059983283;None;;;;;;;;6;;;;;;;;355.7731033999007;None;None;None;[];355.7731033999007;None;['9'];[0.20924840006045997];355.7731033999007;None;;;S11420;2022_May_03_1103;VideoMask;2021.1.2;120.09487505856208;
9.0;f;019_m_f_s_a.jpg;sad;7.0;sad_8.4ns.avi;sad;7.0;congruent;130.0;160.0;171.6633093155257;s_s;;;;;0;10;10;10;;;;;;;358.7730439999141;None;360.45604839990847;360.7728152999189;361.95617470005527;361.9728542000521;370.0392960999161;None;7;0;370.0392960999161;None;;;;;;;;3;;;;;;;0.9187040000688285;371.58089739992283;None;None;None;[];371.58089739992283;None;"['7', '7']";"[0.6494607999920845, 1.193081900011748]";371.58089739992283;None;;;S11420;2022_May_03_1103;VideoMask;2021.1.2;120.09487505856208;
4.0;m;004_o_m_h_a.jpg;happy;9.0;happy_1.1ns.avi;happy;9.0;congruent;120.0;150.0;203.50057144619865;h_h;;;;;0;11;11;11;;;;;;;374.5807586000301;None;376.58055659988895;376.8973300999496;378.097417099867;378.11387509992346;392.52193979988806;None;9;0;392.52193979988806;None;;;;;;;;6;;;;;;;1.0920581000391394;394.07189649995416;None;None;None;[];394.07189649995416;None;['9'];[0.757949500111863];394.07189649995416;None;;;S11420;2022_May_03_1103;VideoMask;2021.1.2;120.09487505856208;
7.0;m;027_o_m_h_a.jpg;happy;9.0;happy_20.1ns.avi;happy;9.0;congruent;120.0;150.0;152.91127178874285;h_h;;;;;0;12;12;12;;;;;;;397.0802374999039;None;398.5551010000054;398.8717375998385;400.0050524000544;400.0217686998658;403.0215065998491;None;9;0;403.0215065998491;None;;;;;;;;6;;;;;;;1.048333799932152;404.9216308000032;None;None;None;[];404.9216308000032;None;['9'];[1.1724698999896646];404.9216308000032;None;;;S11420;2022_May_03_1103;VideoMask;2021.1.2;120.09487505856208;
0.0;f;040_y_f_s_a.jpg;sad;7.0;sad_94.3ns.avi;sad;7.0;congruent;130.0;160.0;155.27414203894395;s_s;;;;;0;13;13;13;;;;;;;407.9132471999619;None;409.4131270998623;409.7296043999959;410.8961362999398;410.9132443999406;413.4879556999076;None;7;0;413.4879556999076;None;;;;;;;;4;;;;;;;0.814205399947241;415.0462870998308;None;None;None;[];415.0462870998308;None;['7'];[0.8558513999450952];415.0462870998308;None;;;S11420;2022_May_03_1103;VideoMask;2021.1.2;120.09487505856208;
0.0;f;030_o_f_s_a.jpg;sad;7.0;sad_68.1ns.avi;sad;7.0;congruent;130.0;160.0;158.9411396037211;s_s;;;;;0;14;14;14;;;;;;;418.04623009986244;None;419.604350999929;419.9209803000558;421.0711524998769;421.08774659992196;428.47925259987824;None;None;0;428.47925259987824;None;;;;;;;;3;;;;;;;;430.02913889987394;None;None;None;[];430.02913889987394;None;"['7', '7']";"[0.01685859984718263, 1.5529709998518229]";430.02913889987394;None;;;S11420;2022_May_03_1103;VideoMask;2021.1.2;120.09487505856208;
0.0;f;030_o_f_h_a.jpg;happy;9.0;sad_127.1.wmv;sad;7.0;incongruent;120.0;160.0;180.59976631384873;h_s;;;;;0;15;15;15;;;;;;;433.02911000000313;None;434.73717530001886;435.053964599967;436.212342399871;436.22890880005434;438.18732489994727;None;None;0;438.18732489994727;None;;;;;;;;3;;;;;;;;439.73700379999354;None;None;None;[];439.73700379999354;None;"['7', '7']";"[0.021028100047260523, 0.7729083001613617]";439.73700379999354;None;;;S11420;2022_May_03_1103;VideoMask;2021.1.2;120.09487505856208;
8.0;m;008_y_m_s_a.jpg;sad;7.0;happy_133.3.wmv;happy;9.0;incongruent;130.0;150.0;152.577966552593;s_h;;;;;0;16;16;16;;;;;;;442.7372574999463;None;444.2286310000345;444.5453007998876;445.6703900999855;445.6868880998809;447.67858779989183;None;9;0;447.67858779989183;None;;;;;;;;6;;;;;;;1.3913972999434918;449.228568200022;None;None;None;[];449.228568200022;None;['9'];[0.6577868000604212];449.228568200022;None;;;S11420;2022_May_03_1103;VideoMask;2021.1.2;120.09487505856208;
3.0;m;033_o_m_h_a.jpg;happy;9.0;sad_128.1.wmv;sad;7.0;incongruent;120.0;160.0;171.0492454518585;h_s;;;;;0;17;17;17;;;;;;;452.2286880998872;None;453.86996449995786;454.18666749983095;455.31999489990994;455.33672899985686;457.32000469998457;None;7;0;457.32000469998457;None;;;;;;;;2;;;;;;;0.6460873999167234;458.8697953999508;None;None;None;[];458.8697953999508;None;"['7', '7', '7']";"[0.48848309996537864, 0.8803536000195891, 2.1923253999557346]";458.8697953999508;None;;;S11420;2022_May_03_1103;VideoMask;2021.1.2;120.09487505856208;
1.0;f;021_o_f_h_a.jpg;happy;9.0;sad_116.1.wmv;sad;7.0;incongruent;120.0;160.0;184.06847610053055;h_s;;;;;0;18;18;18;;;;;;;461.8699047998525;None;463.6363796000369;463.95309349987656;465.08637799997814;465.1030790999066;467.0863385000266;None;7;0;467.0863385000266;None;;;;;;;;3;;;;;;;0.9916731999255717;468.63628600002266;None;None;None;[];468.63628600002266;None;"['7', '7', '7']";"[0.7938916999846697, 1.1856908998452127, 1.5458078999072313]";468.63628600002266;None;;;S11420;2022_May_03_1103;VideoMask;2021.1.2;120.09487505856208;
4.0;m;004_o_m_s_a.jpg;sad;7.0;happy_28.1ns.avi;happy;9.0;incongruent;130.0;150.0;157.40741103039684;s_h;;;;;0;19;19;19;;;;;;;471.6616054000333;None;473.1951548999641;473.5110156000592;474.7027167000342;474.7194862999022;479.03611680003814;None;9;0;479.03611680003814;None;;;;;;;;7;;;;;;;0.9700492999982089;480.5859765999485;None;None;None;[];480.5859765999485;None;"['9', '9']";"[0.5161458000075072, 0.9162361999042332]";480.5859765999485;None;;;S11420;2022_May_03_1103;VideoMask;2021.1.2;120.09487505856208;
8.0;f;028_y_f_s_a.jpg;sad;7.0;happy_122.3.wmv;happy;9.0;incongruent;130.0;150.0;171.8670540936116;s_h;;;;;0;20;20;20;;;;;;;483.5859379998874;None;485.22727869986556;485.5441067998763;486.6778422999196;486.7024007998407;488.6773277998436;None;9;0;488.6773277998436;None;;;;;;;;7;;;;;;;0.7368173999711871;490.2273462000303;None;None;None;[];490.2273462000303;None;"['9', '9']";"[0.32269620010629296, 0.602677799994126]";490.2273462000303;None;;;S11420;2022_May_03_1103;VideoMask;2021.1.2;120.09487505856208;
8.0;m;008_y_m_s_a.jpg;sad;7.0;sad_6.5ns.avi;sad;7.0;congruent;130.0;160.0;170.39333839271438;s_s;;;;;0;21;21;21;;;;;;;493.22740139998496;None;494.8603194998577;495.1771243000403;496.3271158998832;496.3437931998633;501.31034289998934;None;7;0;501.31034289998934;None;;;;;;;;4;;;;;;;0.4957860999274999;502.8602861999534;None;None;None;[];502.8602861999534;None;['7'];[0.36193619994446635];502.8602861999534;None;;;S11420;2022_May_03_1103;VideoMask;2021.1.2;120.09487505856208;
8.0;f;028_y_f_h_a.jpg;happy;9.0;happy_23.1ns.avi;happy;9.0;congruent;120.0;150.0;225.70986890587952;h_h;;;;;0;22;22;22;;;;;;;505.86032099998556;None;507.94334959983826;508.26006769994274;509.4097786999773;509.4267206999939;513.9684055000544;None;9;0;513.9684055000544;None;;;;;;;;7;;;;;;;0.6538070000242442;515.5181585999671;None;None;None;[];515.5181585999671;None;"['9', '9']";"[0.29608980007469654, 0.5919212000444531]";515.5181585999671;None;;;S11420;2022_May_03_1103;VideoMask;2021.1.2;120.09487505856208;
8.0;m;008_y_m_h_a.jpg;happy;9.0;sad_111.1.wmv;sad;7.0;incongruent;120.0;160.0;152.63076835312847;h_s;;;;;0;23;23;23;;;;;;;518.5181189998984;None;520.0012884000316;520.3180645999964;521.4594384999946;521.4764855999965;523.4513546000235;None;7;0;523.4513546000235;None;;;;;;;;4;;;;;;;0.7228017998859286;525.526211499935;None;None;None;[];525.526211499935;None;"['7', '7']";"[0.34405569988302886, 0.9998845998197794]";525.526211499935;None;;;S11420;2022_May_03_1103;VideoMask;2021.1.2;120.09487505856208;
0.0;f;040_y_f_s_a.jpg;sad;7.0;sad_67.2ns.avi;sad;7.0;congruent;130.0;160.0;220.9892697323079;s_s;;;;;0;24;24;24;;;;;;;528.526293899864;None;530.6093786000274;530.9260299999733;532.1427623999771;532.1593201998621;541.2841340999585;None;7;0;541.2841340999585;None;;;;;;;;2;;;;;;;0.4740758999250829;542.8340846998617;None;None;None;[];542.8340846998617;None;"['7', '7', '7', '7']";"[0.6041339000221342, 0.9241924001835287, 1.2521138000302017, 1.604057600023225]";542.8340846998617;None;;;S11420;2022_May_03_1103;VideoMask;2021.1.2;120.09487505856208;
8.0;m;008_y_m_s_a.jpg;sad;7.0;happy_29.1ns.avi;happy;9.0;incongruent;130.0;150.0;120.0316142834122;s_h;;;;;0;25;25;25;;;;;;;545.8340545999818;None;547.0421519000083;547.3589135999791;548.4927232998889;548.5172466000076;551.184022200061;None;9;0;551.184022200061;None;;;;;;;;6;;;;;;;0.9422206000890583;552.7421269000042;None;None;None;[];552.7421269000042;None;['9'];[1.576538800029084];552.7421269000042;None;;;S11420;2022_May_03_1103;VideoMask;2021.1.2;120.09487505856208;
6.0;m;016_y_m_s_a.jpg;sad;7.0;sad_8.3ns.avi;sad;7.0;congruent;130.0;160.0;152.85371098242734;s_s;;;;;0;26;26;26;;;;;;;555.7504826998338;None;557.2669929999392;557.5835637999699;558.7752828998491;558.7919711000286;566.4749936000444;None;8;0;566.4749936000444;None;;;;;;;;4;;;;;;;1.1952623999677598;568.0249995000195;None;None;None;[];568.0249995000195;None;['7'];[0.6370912999846041];568.0249995000195;None;;;S11420;2022_May_03_1103;VideoMask;2021.1.2;120.09487505856208;
6.0;m;016_y_m_h_a.jpg;happy;9.0;sad_114.1.wmv;sad;7.0;incongruent;120.0;160.0;136.20550699298644;h_s;;;;;0;27;27;27;;;;;;;571.0333487000316;None;572.3831056999043;572.6997372999322;573.8248922999483;573.8415628999937;575.8331931999419;None;7;0;575.8331931999419;None;;;;;;;;3;;;;;;;1.1490789998788387;577.3913999998476;None;None;None;[];577.3913999998476;None;"['7', '7']";"[0.32687109988182783, 0.6947696998249739]";577.3913999998476;None;;;S11420;2022_May_03_1103;VideoMask;2021.1.2;120.09487505856208;
7.0;m;027_o_m_s_a.jpg;sad;7.0;happy_117.3.wmv;happy;9.0;incongruent;130.0;150.0;215.61964028550614;s_h;;;;;0;28;28;28;;;;;;;580.3912487998605;None;582.3827797998674;582.6994235999882;583.8246509998571;583.8412800999358;585.8494179998524;None;9;0;585.8494179998524;None;;;;;;;;6;;;;;;;1.1971508997958153;587.3993724000175;None;None;None;[];587.3993724000175;None;['9'];[0.542947200126946];587.3993724000175;None;;;S11420;2022_May_03_1103;VideoMask;2021.1.2;120.09487505856208;
6.0;m;016_y_m_h_a.jpg;happy;9.0;happy_9.2ns.avi;happy;9.0;congruent;120.0;150.0;130.52042428082717;h_h;;;;;0;29;29;29;;;;;;;590.399377600057;None;591.71594429994;592.0325694000348;593.2243080998305;593.2409440998454;599.0908659000415;None;9;0;599.0908659000415;None;;;;;;;;6;;;;;;;0.6513416999951005;600.6406994999852;None;None;None;[];600.6406994999852;None;['9'];[0.9017849999945611];600.6406994999852;None;;;S11420;2022_May_03_1103;VideoMask;2021.1.2;120.09487505856208;
0.0;f;040_y_f_s_a.jpg;sad;7.0;happy_127.3.wmv;happy;9.0;incongruent;130.0;150.0;131.7195455720239;s_h;;;;;0;30;30;30;;;;;;;603.6490741998423;None;604.9570949999616;605.2738999000285;606.3989562999923;606.4154850998893;608.4737795998808;None;9;0;608.4737795998808;None;;;;;;;;6;;;;;;;0.7244561000261456;610.0237362999469;None;None;None;[];610.0237362999469;None;['9'];[0.6707164000254124];610.0237362999469;None;;;S11420;2022_May_03_1103;VideoMask;2021.1.2;120.09487505856208;
0.0;f;030_o_f_s_a.jpg;sad;7.0;happy_125.3.wmv;happy;9.0;incongruent;130.0;150.0;220.51454909128134;s_h;;;;;0;31;31;31;;;;;;;613.0236356998794;None;615.0818347998429;615.3985087999608;616.5319314999506;616.5485332000535;618.5318195999134;None;None;0;618.5318195999134;None;;;;;;;;5;;;;;;;;620.131891899975;None;None;None;[];620.131891899975;None;"['9', '7']";"[0.058618800016120076, 1.4828107999637723]";620.131891899975;None;;;S11420;2022_May_03_1103;VideoMask;2021.1.2;120.09487505856208;
0.0;f;030_o_f_s_a.jpg;sad;7.0;sad_64.3ns.avi;sad;7.0;congruent;130.0;160.0;165.78667874766072;s_s;;;;;0;32;32;32;;;;;;;623.1317030999344;None;624.7315340999048;625.0482473999728;626.2316391998902;626.2481946998741;631.1814180999063;None;7;0;631.1814180999063;None;;;;;;;;3;;;;;;;0.6328603001311421;632.731539899949;None;None;None;[];632.731539899949;None;"['7', '7', '7']";"[0.2669206999707967, 0.6347982999868691, 1.09104899992235]";632.731539899949;None;;;S11420;2022_May_03_1103;VideoMask;2021.1.2;120.09487505856208;
3.0;m;013_y_m_s_a.jpg;sad;7.0;sad_7.7ns.avi;sad;7.0;congruent;130.0;160.0;196.24182255763262;s_s;;;;;0;33;33;33;;;;;;;635.7395601999015;None;637.6062783000525;637.9228036999702;639.1227543998975;639.1393919000402;645.0560749999713;None;7;0;645.0560749999713;None;;;;;;;;3;;;;;;;0.9101961001288146;646.6060194999445;None;None;None;[];646.6060194999445;None;"['7', '7']";"[0.2723330999724567, 0.5763014999683946]";646.6060194999445;None;;;S11420;2022_May_03_1103;VideoMask;2021.1.2;120.09487505856208;
3.0;m;013_y_m_h_a.jpg;happy;9.0;happy_9.1ns.avi;happy;9.0;congruent;120.0;150.0;165.1890303600433;h_h;;;;;0;34;34;34;;;;;;;649.6058930999134;None;651.2058875998482;651.5223204998765;652.7557564000599;652.7722705998458;655.8893515998498;None;9;0;655.8893515998498;None;;;;;;;;7;;;;;;;0.636996699962765;657.5805836999789;None;None;None;[];657.5805836999789;None;"['9', '9']";"[0.665828000055626, 1.0977647001855075]";657.5805836999789;None;;;S11420;2022_May_03_1103;VideoMask;2021.1.2;120.09487505856208;
4.0;m;004_o_m_h_a.jpg;happy;9.0;sad_95.1ns.avi;sad;7.0;incongruent;120.0;160.0;152.68270002069931;h_s;;;;;0;35;35;35;;;;;;;660.5807036999613;None;662.1222081000451;662.4387244998943;663.5888181999326;663.6054457998835;672.3637009998783;None;7;0;672.3637009998783;None;;;;;;;;2;;;;;;;0.5147661999799311;673.9218399999663;None;None;None;[];673.9218399999663;None;"['7', '7', '7', '7', '7']";"[0.2845168998464942, 0.5724386998917907, 0.8524420999456197, 1.2448659997899085, 1.6205326998606324]";673.9218399999663;None;;;S11420;2022_May_03_1103;VideoMask;2021.1.2;120.09487505856208;
3.0;m;013_y_m_h_a.jpg;happy;9.0;sad_113.2.wmv;sad;7.0;incongruent;120.0;160.0;217.4973891947951;h_s;;;;;0;36;36;36;;;;;;;676.9217588000465;None;678.9632506999187;679.2799286998343;680.4048303000163;680.4215337999631;682.4132512998767;None;7;0;682.4132512998767;None;;;;;;;;4;;;;;;;1.2811362999491394;684.0215467999224;None;None;None;[];684.0215467999224;None;['7'];[0.7290443000383675];684.0215467999224;None;;;S11420;2022_May_03_1103;VideoMask;2021.1.2;120.09487505856208;
4.0;m;004_o_m_h_a.jpg;happy;9.0;happy_25.1ns.avi;happy;9.0;congruent;120.0;150.0;216.63044503818386;h_h;;;;;0;37;37;37;;;;;;;687.029862599913;None;689.05452409992;689.3712212999817;690.5380492999684;690.5546311999205;694.2049383998383;None;9;0;694.2049383998383;None;;;;;;;;6;;;;;;;0.9137114000041038;696.0960661999416;None;None;None;[];696.0960661999416;None;['9'];[0.4782567999791354];696.0960661999416;None;;;S11420;2022_May_03_1103;VideoMask;2021.1.2;120.09487505856208;
4.0;m;004_o_m_s_a.jpg;sad;7.0;happy_131.2.wmv;happy;9.0;incongruent;130.0;150.0;181.38407540847405;s_h;;;;;0;38;38;38;;;;;;;699.1044945998583;None;700.8208720998373;701.13766509993;702.2876551998779;702.304356199922;704.2710398000199;None;9;0;704.2710398000199;None;;;;;;;;5;;;;;;;0.8233558000065386;705.8208838000428;None;None;None;[];705.8208838000428;None;None;;705.8208838000428;None;;;S11420;2022_May_03_1103;VideoMask;2021.1.2;120.09487505856208;
0.0;f;040_y_f_h_a.jpg;happy;9.0;happy_24.3ns.avi;happy;9.0;congruent;120.0;150.0;213.25460698950434;h_h;;;;;0;39;39;39;;;;;;;708.845664100023;None;710.8206225999165;711.1373363998719;712.3623454999179;712.3790202999953;714.1957194998395;None;9;0;714.1957194998395;None;;;;;;;;6;;;;;;;0.9310882999561727;715.7622527999338;None;None;None;[];715.7622527999338;None;['9'];[0.6762609998695552];715.7622527999338;None;;;S11420;2022_May_03_1103;VideoMask;2021.1.2;120.09487505856208;
2.0;f;012_o_f_s_a.jpg;sad;7.0;happy_139.1.wmv;happy;9.0;incongruent;130.0;150.0;162.31500468041804;s_h;;;;;0;40;40;40;;;;;;;718.7704556998797;None;720.3370209999848;720.6536721000448;721.795322000049;721.837124099955;723.7869211998768;None;9;0;723.7869211998768;None;;;;;;;;6;;;;;;;0.7954070998821408;725.3368923000526;None;None;None;[];725.3368923000526;None;['9'];[0.3175686998292804];725.3368923000526;None;;;S11420;2022_May_03_1103;VideoMask;2021.1.2;120.09487505856208;
0.0;f;030_o_f_h_a.jpg;happy;9.0;happy_24.1ns.avi;happy;9.0;congruent;120.0;150.0;168.36256624020774;h_h;;;;;0;41;41;41;;;;;;;728.3453528999817;None;729.9701115000062;730.2867288000416;731.4621933999006;731.4867856998462;734.7450892999768;None;9;0;734.7450892999768;None;;;;;;;;6;;;;;;;1.1093205998186022;736.2949492000043;None;None;None;[];736.2949492000043;None;['9'];[0.5434871001634747];736.2949492000043;None;;;S11420;2022_May_03_1103;VideoMask;2021.1.2;120.09487505856208;
2.0;f;012_o_f_h_a.jpg;happy;9.0;sad_113.1.wmv;sad;7.0;incongruent;120.0;160.0;177.44551734737394;h_s;;;;;0;42;42;42;;;;;;;739.3033306999132;None;740.9947166000493;741.3113885000348;742.4446155999321;742.461453499971;744.4446949998382;None;7;0;744.4446949998382;None;;;;;;;;4;;;;;;;0.5697566999588162;745.9946659000125;None;None;None;[];745.9946659000125;None;['7'];[0.4198239000979811];745.9946659000125;None;;;S11420;2022_May_03_1103;VideoMask;2021.1.2;120.09487505856208;
3.0;m;033_o_m_s_a.jpg;sad;7.0;sad_64.5ns.avi;sad;7.0;congruent;130.0;160.0;130.55717223801247;s_s;;;;;0;43;43;43;;;;;;;749.0029430999421;None;750.3362171000335;750.6528197999578;751.827806700021;751.8448393999133;758.3860365999863;None;7;0;758.3860365999863;None;;;;;;;;2;;;;;;;0.6844190000556409;759.9359067999758;None;None;None;[];759.9359067999758;None;"['7', '7', '7', '7', '7', '7']";"[0.2464822002220899, 0.5105249001644552, 0.8066758001223207, 1.1346126000862569, 1.526512200012803, 1.9665625002235174]";759.9359067999758;None;;;S11420;2022_May_03_1103;VideoMask;2021.1.2;120.09487505856208;
7.0;m;027_o_m_h_a.jpg;happy;9.0;sad_117.1.wmv;sad;7.0;incongruent;120.0;160.0;181.28665202824095;h_s;;;;;0;44;44;44;;;;;;;762.9440365999471;None;764.6774075999856;764.9940956998616;766.1357458999846;766.1523567999247;768.1357678999193;None;8;0;768.1357678999193;None;;;;;;;;4;;;;;;;0.7986400998197496;769.6939507999923;None;None;None;[];769.6939507999923;None;['7'];[1.0248301001265645];769.6939507999923;None;;;S11420;2022_May_03_1103;VideoMask;2021.1.2;120.09487505856208;
3.0;m;033_o_m_s_a.jpg;sad;7.0;happy_126.3.wmv;happy;9.0;incongruent;130.0;150.0;198.85252030535366;s_h;;;;;0;45;45;45;;;;;;;772.6938604000024;None;774.5602633999661;774.8770474998746;776.0103092000354;776.0270760999992;778.0103815000039;None;9;0;778.0103815000039;None;;;;;;;;5;;;;;;;0.9081138998735696;779.7684384000022;None;None;None;[];779.7684384000022;None;None;;779.7684384000022;None;;;S11420;2022_May_03_1103;VideoMask;2021.1.2;120.09487505856208;
3.0;m;033_o_m_h_a.jpg;happy;9.0;sad_136.1.wmv;sad;7.0;incongruent;120.0;160.0;176.97002883463455;h_s;;;;;0;46;46;46;;;;;;;782.7934655998833;None;784.4766974998638;784.7934636999853;785.9184190998785;785.9350034999661;787.9267275000457;None;7;0;787.9267275000457;None;;;;;;;;2;;;;;;;0.911737099988386;789.4766969999764;None;None;None;[];789.4766969999764;None;"['7', '7', '7']";"[0.36174770002253354, 0.6179005999583751, 0.9059707000851631]";789.4766969999764;None;;;S11420;2022_May_03_1103;VideoMask;2021.1.2;120.09487505856208;
9.0;f;019_m_f_h_a.jpg;happy;9.0;happy_10.1ns.avi;happy;9.0;congruent;120.0;150.0;157.2463435658512;h_h;;;;;0;47;47;47;;;;;;;792.4849165999331;None;794.0432390000205;794.3597694998607;795.5182044999674;795.5349004999734;802.9345998999197;None;9;0;802.9345998999197;None;;;;;;;;7;;;;;;;0.41614310001023114;804.4845710999798;None;None;None;[];804.4845710999798;None;"['9', '9']";"[0.37788949999958277, 0.6822350001893938]";804.4845710999798;None;;;S11420;2022_May_03_1103;VideoMask;2021.1.2;120.09487505856208;
2.0;f;012_o_f_h_a.jpg;happy;9.0;happy_2.2ns.avi;happy;9.0;congruent;120.0;150.0;206.34800317295262;h_h;;;;;0;48;48;48;;;;;;;807.4846477999818;None;809.4675819999538;809.7844280998688;810.9344370998442;810.9510154000018;823.1256017999258;None;9;0;823.1256017999258;None;;;;;;;;5;;;;;;;0.9050358000677079;824.6756354998797;None;None;None;[];824.6756354998797;None;None;;824.6756354998797;None;;;S11420;2022_May_03_1103;VideoMask;2021.1.2;120.09487505856208;
3.0;m;033_o_m_h_a.jpg;happy;9.0;happy_24.2ns.avi;happy;9.0;congruent;120.0;150.0;167.9423847659953;h_h;;;;;0;49;49;49;;;;;;;827.692116299877;None;829.3253764999099;829.6421870000195;830.8087624998298;830.8257788999472;834.5003275999334;None;9;0;834.5003275999334;None;;;;;;;;6;;;;;;;1.0822512998711318;836.0502273000311;None;None;None;[];836.0502273000311;None;['9'];[0.4042265999596566];836.0502273000311;None;;;S11420;2022_May_03_1103;VideoMask;2021.1.2;120.09487505856208;
1.0;f;021_o_f_s_a.jpg;sad;7.0;happy_61.2ns.avi;happy;9.0;incongruent;130.0;150.0;210.94664004826666;s_h;;;;;0;50;50;50;;;;;;;839.0502328998409;None;841.0334608999547;841.3500490000006;842.4914653999731;842.5084343999624;847.0250609000213;None;9;0;847.0250609000213;None;;;;;;;;5;;;;;;;0.6297228999901563;848.5832376000471;None;None;None;[];848.5832376000471;None;None;;848.5832376000471;None;;;S11420;2022_May_03_1103;VideoMask;2021.1.2;120.09487505856208;
4.0;m;004_o_m_s_a.jpg;sad;7.0;sad_2.4ns.avi;sad;7.0;congruent;130.0;160.0;153.02079367163634;s_s;;;;;0;51;51;51;;;;;;;851.5996721000411;None;853.0995565999765;853.4163742999081;854.6329756998457;854.6497463998385;862.5082109998912;None;7;0;862.5082109998912;None;;;;;;;;4;;;;;;;0.6823903999757022;864.2744089998305;None;None;None;[];864.2744089998305;None;['7'];[0.26804579980671406];864.2744089998305;None;;;S11420;2022_May_03_1103;VideoMask;2021.1.2;120.09487505856208;
8.0;m;008_y_m_h_a.jpg;happy;9.0;happy_1.2ns.avi;happy;9.0;congruent;120.0;150.0;210.98946429383824;h_h;;;;;0;52;52;52;;;;;;;867.274394299835;None;869.3075600999873;869.6242623999715;870.8492786998395;870.8659041000064;883.5655978999566;None;9;0;883.5655978999566;None;;;;;;;;5;;;;;;;0.9132213001139462;885.12377559999;None;None;None;[];885.12377559999;None;None;;885.12377559999;None;;;S11420;2022_May_03_1103;VideoMask;2021.1.2;120.09487505856208;
2.0;f;012_o_f_s_a.jpg;sad;7.0;happy_52.2ns.avi;happy;9.0;incongruent;130.0;150.0;172.57202848318138;s_h;;;;;0;53;53;53;;;;;;;888.1487483000383;None;889.798511599889;890.1152919998858;891.2901053000242;891.3068228999618;894.7985852998681;None;9;0;894.7985852998681;None;;;;;;;;6;;;;;;;0.9760357001796365;896.3484575999901;None;None;None;[];896.3484575999901;None;['9'];[0.5220654001459479];896.3484575999901;None;;;S11420;2022_May_03_1103;VideoMask;2021.1.2;120.09487505856208;
9.0;f;019_m_f_s_a.jpg;sad;7.0;happy_61.1ns.avi;happy;9.0;incongruent;130.0;150.0;181.3003220572762;s_h;;;;;0;54;54;54;;;;;;;899.3484671998303;None;901.1233872000594;901.4398461000528;902.6066310000606;902.6230666998308;909.9647677999455;None;9;0;909.9647677999455;None;;;;;;;;6;;;;;;;0.4737713998183608;911.5147067999933;None;None;None;[];911.5147067999933;None;['9'];[0.27594359987415373];911.5147067999933;None;;;S11420;2022_May_03_1103;VideoMask;2021.1.2;120.09487505856208;
0.0;f;030_o_f_h_a.jpg;happy;9.0;sad_133.1.wmv;sad;7.0;incongruent;120.0;160.0;198.86251500867985;h_s;;;;;0;55;55;55;;;;;;;914.523024499882;None;916.3894533999264;916.7062391999643;917.8394740999211;917.8565167998895;919.8395449998789;None;7;0;919.8395449998789;None;;;;;;;;3;;;;;;;0.9434388000518084;921.6477002999745;None;None;None;[];921.6477002999745;None;"['7', '7']";"[1.222976799821481, 1.7031895997934043]";921.6477002999745;None;;;S11420;2022_May_03_1103;VideoMask;2021.1.2;120.09487505856208;
0.0;f;040_y_f_h_a.jpg;happy;9.0;sad_128.2.wmv;sad;7.0;incongruent;120.0;160.0;206.10005857915363;h_s;;;;;0;56;56;56;;;;;;;924.656013000058;None;926.5974425000604;926.9141687999945;928.0473460999783;928.064188499935;930.0474050999619;None;7;0;930.0474050999619;None;;;;;;;;4;;;;;;;0.6875392000656575;931.5890505998395;None;None;None;[];931.5890505998395;None;['7'];[0.3136849000584334];931.5890505998395;None;;;S11420;2022_May_03_1103;VideoMask;2021.1.2;120.09487505856208;
1.0;f;021_o_f_s_a.jpg;sad;7.0;sad_9.5ns.avi;sad;7.0;congruent;130.0;160.0;206.16642757875042;s_s;;;;;0;57;57;57;;;;;;;934.5889520999044;None;936.5304346999619;936.8471941000316;938.0220669999253;938.0389111000113;943.7055383999832;None;7;0;943.7055383999832;None;;;;;;;;2;;;;;;;0.38117499998770654;945.2553486998659;None;None;None;[];945.2553486998659;None;"['7', '7', '7', '7']";"[0.25529600004665554, 0.5112232998944819, 0.7751704999245703, 1.0874022000934929]";945.2553486998659;None;;;S11420;2022_May_03_1103;VideoMask;2021.1.2;120.09487505856208;
1.0;f;021_o_f_h_a.jpg;happy;9.0;happy_12.1ns.avi;happy;9.0;congruent;120.0;150.0;132.59080005900228;h_h;;;;;0;58;58;58;;;;;;;948.2552560998593;None;949.6135203000158;949.9301704999525;951.096621699864;951.1134806999471;958.6799101999495;None;9;0;958.6799101999495;None;;;;;;;;8;;;;;;;0.6309179000090808;960.3130044999998;None;None;None;[];960.3130044999998;None;"['9', '9', '9', '9']";"[0.34975040005519986, 0.7176968001294881, 1.0538799001369625, 1.413688400061801]";960.3130044999998;None;;;S11420;2022_May_03_1103;VideoMask;2021.1.2;120.09487505856208;
3.0;m;013_y_m_s_a.jpg;sad;7.0;happy_56.2ns.avi;happy;9.0;incongruent;130.0;150.0;163.39234110935848;s_h;;;;;0;59;59;59;;;;;;;963.3132414999418;None;964.8963419999927;965.2129228999838;966.4128651998471;966.4298568998929;971.3712708000094;None;9;0;971.3712708000094;None;;;;;;;;7;;;;;;;0.6753994000609964;972.9211746000219;None;None;None;[];972.9211746000219;None;"['9', '9']";"[0.3975156999658793, 0.7577440000604838]";972.9211746000219;None;;;S11420;2022_May_03_1103;VideoMask;2021.1.2;120.09487505856208;
;;;;;;;;;;;;;;;;;;;;;;;;;;;;;;;;;;;;;;;;;;;;;;;;;;;;;;;;;;;;;;;;;975.9210715999361;None;;;;;;
