primePerson;primeGender;prime;primeEmotion;corrAnsPrime;target;targetEmotion;corrAnsTar;Cond;ID_Primer;ID_Target;JitterTime;Condition;example.thisRepN;example.thisTrialN;example.thisN;example.thisIndex;study.thisRepN;study.thisTrialN;study.thisN;study.thisIndex;MR_trigger_time;MR_trigger_number;text_intro.started;text_intro.stopped;text_probe.started;text_probe.stopped;polygon_ISI.started;polygon_ISI.stopped;polygon.started;polygon.stopped;primerImage.started;primerImage.stopped;response.started;response.stopped;key_resp.keys;key_resp.corr;key_resp.rt;key_resp.started;key_resp.stopped;slider_Text.started;slider_Text.stopped;slider_ex.response;slider_ex.rt;slider_ex.history;slider_ex.started;slider_ex.stopped;Rating;slider_resp_response.keys;slider_resp_response.rt;slider_resp_response.started;slider_resp_response.stopped;text_start.started;text_start.stopped;text_slider.started;text_slider.stopped;slider_stud.response;slider_stud.rt;slider_stud.history;slider_stud.started;slider_stud.stopped;slider_resp_study.keys;slider_resp_study.rt;slider_resp_study.started;slider_resp_study.stopped;text_ende.started;text_ende.stopped;participant;date;expName;psychopyVersion;frameRate;
1111;m;1111_m_m_h_a.jpg;happy;9;example_30.4ns.avi;neutral;7;incongruent;120.0;170.0;189.5874364012288;;0;0;0;0;;;;;127.49141890000101;1;127.58555510000224;129.58547009999893;129.58547009999893;None;131.6195226000018;None;134.0105719000021;134.3360778999995;135.4935030000015;135.51024250000046;139.81008830000064;None;8;0;1.8956247000023723;139.81008830000064;None;142.018305900001;None;None;None;[];142.018305900001;None;7;"['9', '9']";"[1.4553132000000915, 2.8476287000012235]";142.018305900001;None;;;;;;;;;;;;;;;;S11246;2022_Feb_25_1654;VideoMask;2021.1.2;119.96823241456998;
1113;f;1113_y_f_s_a.jpg;sad;7;example_30.3ns.avi;neutral;7;incongruent;130.0;170.0;229.02432995836998;;0;1;1;1;;;;;;;;;;;145.00998950000212;None;147.14315630000056;147.45978780000223;148.58490090000123;148.60152930000186;150.5931426999996;None;None;0;;150.5931426999996;None;152.1431302000019;None;None;None;[];152.1431302000019;None;6;['9'];[1.9866127999994205];152.1431302000019;None;;;;;;;;;;;;;;;;S11246;2022_Feb_25_1654;VideoMask;2021.1.2;119.96823241456998;
9.0;f;019_m_f_h_a.jpg;happy;9.0;sad_115.1.wmv;sad;7.0;incongruent;120.0;160.0;128.09063432376465;h_s;;;;;0;0;0;0;;;;;;;156.193000700001;None;157.48456710000028;157.80117729999984;158.93443390000175;158.95120650000172;160.95115000000078;None;None;0;;160.95115000000078;None;;;;;;;;2;;;;;155.14303579999978;None;162.50089540000045;None;None;None;[];162.50089540000045;None;"['7', '7', '7', '7']";"[0.04452630000014324, 1.3409670000000915, 1.7570593000018562, 2.7729080000026443]";162.50089540000045;None;;;S11246;2022_Feb_25_1654;VideoMask;2021.1.2;119.96823241456998;
3.0;m;033_o_m_s_a.jpg;sad;7.0;sad_94.2ns.avi;sad;7.0;congruent;130.0;160.0;182.29120173647655;s_s;;;;;0;1;1;1;;;;;;;165.50099260000206;None;167.2424178000001;167.55921260000105;168.7507110000006;168.76744429999962;171.38415910000185;None;None;0;;171.38415910000185;None;;;;;;;;3;;;;;;;172.92561520000163;None;None;None;[];172.92561520000163;None;"['7', '7']";"[0.9080690000009781, 1.7079947000020184]";172.92561520000163;None;;;S11246;2022_Feb_25_1654;VideoMask;2021.1.2;119.96823241456998;
8.0;m;008_y_m_h_a.jpg;happy;9.0;happy_26.1ns.avi;happy;9.0;congruent;120.0;150.0;155.9437854594882;h_h;;;;;0;2;2;2;;;;;;;175.93404270000246;None;177.4588107999989;177.77551980000135;178.94232629999897;178.95892110000204;180.90050220000194;None;9;0;1.2372052999999141;180.90050220000194;None;;;;;;;;8;;;;;;;182.45049800000197;None;None;None;[];182.45049800000197;None;"['9', '9', '9']";"[0.4550565000026836, 1.559233399999357, 2.351495500002784]";182.45049800000197;None;;;S11246;2022_Feb_25_1654;VideoMask;2021.1.2;119.96823241456998;
0.0;f;040_y_f_h_a.jpg;happy;9.0;sad_138.1.wmv;sad;7.0;incongruent;120.0;160.0;133.99071306426532;h_s;;;;;0;3;3;3;;;;;;;185.4586636999993;None;186.79185560000042;187.1085724000004;188.23367839999992;188.250224899999;190.24187489999895;None;8;0;1.3277309999975841;190.24187489999895;None;;;;;;;;4;;;;;;;191.7834827000006;None;None;None;[];191.7834827000006;None;['7'];[0.506193400000484];191.7834827000006;None;;;S11246;2022_Feb_25_1654;VideoMask;2021.1.2;119.96823241456998;
8.0;f;028_y_f_s_a.jpg;sad;7.0;sad_64.2ns.avi;sad;7.0;congruent;130.0;160.0;229.88540597086478;s_s;;;;;0;4;4;4;;;;;;;194.78347030000077;None;196.99168220000138;197.3082953000012;198.45827800000188;198.4749539000004;209.4413069000002;None;7;0;1.128368199999386;209.4413069000002;None;;;;;;;;3;;;;;;;210.99125410000124;None;None;None;[];210.99125410000124;None;"['7', '7']";"[0.6343390000001818, 1.2427451000003202]";210.99125410000124;None;;;S11246;2022_Feb_25_1654;VideoMask;2021.1.2;119.96823241456998;
7.0;m;027_o_m_s_a.jpg;sad;7.0;sad_10.4ns.avi;sad;7.0;congruent;130.0;160.0;185.20129417468752;s_s;;;;;0;5;5;5;;;;;;;213.9912015000009;None;215.74100969999927;216.05758440000136;217.2908258000025;217.30752589999975;220.35777959999905;None;7;0;0.7319123000015679;220.35777959999905;None;;;;;;;;3;;;;;;;221.90754150000066;None;None;None;[];221.90754150000066;None;"['7', '7']";"[0.566285599998082, 0.9500685999992129]";221.90754150000066;None;;;S11246;2022_Feb_25_1654;VideoMask;2021.1.2;119.96823241456998;
2.0;f;012_o_f_s_a.jpg;sad;7.0;sad_7.5ns.avi;sad;7.0;congruent;130.0;160.0;220.27842655424388;s_s;;;;;0;6;6;6;;;;;;;224.9158950000019;None;226.9656367000025;227.28234710000106;228.49944170000163;228.52391640000133;231.20737070000177;None;7;0;0.5622287000005599;231.20737070000177;None;;;;;;;;2;;;;;;;232.75722990000213;None;None;None;[];232.75722990000213;None;"['7', '7', '7', '7']";"[0.4525323000016215, 0.9324986999999965, 1.3643575999994937, 2.756228000002011]";232.75722990000213;None;;;S11246;2022_Feb_25_1654;VideoMask;2021.1.2;119.96823241456998;
2.0;f;012_o_f_h_a.jpg;happy;9.0;happy_27.1ns.avi;happy;9.0;congruent;120.0;150.0;146.44967055810616;h_h;;;;;0;7;7;7;;;;;;;235.75712340000246;None;237.1820355000018;237.49861489999967;238.69833590000053;238.71513350000168;241.12365219999992;None;9;0;0.7180484999989858;241.12365219999992;None;;;;;;;;8;;;;;;;242.67349459999969;None;None;None;[];242.67349459999969;None;"['9', '9', '9', '9']";"[0.43230550000225776, 0.7762672000026214, 1.1601940000000468, 1.584486800002196]";242.67349459999969;None;;;S11246;2022_Feb_25_1654;VideoMask;2021.1.2;119.96823241456998;
8.0;f;028_y_f_h_a.jpg;happy;9.0;sad_119.1.wmv;sad;7.0;incongruent;120.0;160.0;148.71526953572538;h_s;;;;;0;8;8;8;;;;;;;245.6734017000017;None;247.14828540000235;247.46502070000133;248.6067374000013;248.62333760000183;250.664908499999;None;7;0;0.8486792000003334;250.664908499999;None;;;;;;;;2;;;;;;;252.20661330000075;None;None;None;[];252.20661330000075;None;"['7', '7', '7']";"[0.33106299999781186, 0.6109873999994306, 1.6831329999986337]";252.20661330000075;None;;;S11246;2022_Feb_25_1654;VideoMask;2021.1.2;119.96823241456998;
6.0;m;016_y_m_s_a.jpg;sad;7.0;happy_60.4ns.avi;happy;9.0;incongruent;130.0;150.0;126.02367393611817;s_h;;;;;0;9;9;9;;;;;;;255.2066906;None;256.5147517000005;256.8313928999996;257.9730978000007;257.9903895000025;263.75634640000135;None;9;0;0.5331745000003139;263.75634640000135;None;;;;;;;;8;;;;;;;265.3061928999996;None;None;None;[];265.3061928999996;None;"['9', '9', '9']";"[0.3675511999972514, 0.6955662000000302, 1.0873719999981404]";265.3061928999996;None;;;S11246;2022_Feb_25_1654;VideoMask;2021.1.2;119.96823241456998;
9.0;f;019_m_f_s_a.jpg;sad;7.0;sad_8.4ns.avi;sad;7.0;congruent;130.0;160.0;171.6633093155257;s_s;;;;;0;10;10;10;;;;;;;268.31451630000083;None;270.0060704000025;270.32264940000096;271.48928890000025;271.5059829999991;279.58918320000157;None;7;0;0.5404807000013534;279.58918320000157;None;;;;;;;;1;;;;;;;281.1390229999997;None;None;None;[];281.1390229999997;None;"['7', '7', '7', '7', '7']";"[0.31854390000080457, 0.5424916000010853, 1.0864619000021776, 1.3904623999987962, 1.814564700001938]";281.1390229999997;None;;;S11246;2022_Feb_25_1654;VideoMask;2021.1.2;119.96823241456998;
4.0;m;004_o_m_h_a.jpg;happy;9.0;happy_1.1ns.avi;happy;9.0;congruent;120.0;150.0;203.50057144619865;h_h;;;;;0;11;11;11;;;;;;;284.1473370999993;None;286.11366479999924;286.4304584999991;287.5554488000016;287.5720375000019;302.04668930000116;None;8;0;0.8588041999973939;302.04668930000116;None;;;;;;;;6;;;;;;;303.5966370000024;None;None;None;[];303.5966370000024;None;['9'];[0.7329625999991549];303.5966370000024;None;;;S11246;2022_Feb_25_1654;VideoMask;2021.1.2;119.96823241456998;
7.0;m;027_o_m_h_a.jpg;happy;9.0;happy_20.1ns.avi;happy;9.0;congruent;120.0;150.0;152.91127178874285;h_h;;;;;0;12;12;12;;;;;;;306.6050079000015;None;308.09624819999954;308.4132298000004;309.5548321000024;309.57137069999953;312.56304119999913;None;9;0;1.0381996000032814;312.56304119999913;None;;;;;;;;7;;;;;;;314.1796490000015;None;None;None;[];314.1796490000015;None;"['9', '9', '9']";"[1.0460796000006667, 1.461635000003298, 1.91008210000291]";314.1796490000015;None;;;S11246;2022_Feb_25_1654;VideoMask;2021.1.2;119.96823241456998;
0.0;f;040_y_f_s_a.jpg;sad;7.0;sad_94.3ns.avi;sad;7.0;congruent;130.0;160.0;155.27414203894395;s_s;;;;;0;13;13;13;;;;;;;317.17961809999906;None;318.679393800001;318.9960850999996;320.1625677000011;320.1792748000007;322.75445820000095;None;None;0;;322.75445820000095;None;;;;;;;;4;;;;;;;324.31247780000194;None;None;None;[];324.31247780000194;None;"['7', '7']";"[1.161367299999256, 2.153093600001739]";324.31247780000194;None;;;S11246;2022_Feb_25_1654;VideoMask;2021.1.2;119.96823241456998;
0.0;f;030_o_f_s_a.jpg;sad;7.0;sad_68.1ns.avi;sad;7.0;congruent;130.0;160.0;158.9411396037211;s_s;;;;;0;14;14;14;;;;;;;327.32103030000144;None;328.87899160000234;329.20491330000004;330.3873631999995;330.40398579999965;337.7538934000004;None;7;0;0.8076406000000134;337.7538934000004;None;;;;;;;;2;;;;;;;339.7785640000002;None;None;None;[];339.7785640000002;None;"['7', '7', '7']";"[0.45493920000080834, 0.7267365000006976, 1.1430462999996962]";339.7785640000002;None;;;S11246;2022_Feb_25_1654;VideoMask;2021.1.2;119.96823241456998;
0.0;f;030_o_f_h_a.jpg;happy;9.0;sad_127.1.wmv;sad;7.0;incongruent;120.0;160.0;180.59976631384873;h_s;;;;;0;15;15;15;;;;;;;342.7871315000011;None;344.50353489999907;344.8201426000014;345.9453684;345.96196190000046;347.95357910000166;None;None;0;;347.95357910000166;None;;;;;;;;4;;;;;;;349.5033575000016;None;None;None;[];349.5033575000016;None;['7'];[0.6823441999986244];349.5033575000016;None;;;S11246;2022_Feb_25_1654;VideoMask;2021.1.2;119.96823241456998;
8.0;m;008_y_m_s_a.jpg;sad;7.0;happy_133.3.wmv;happy;9.0;incongruent;130.0;150.0;152.577966552593;s_h;;;;;0;16;16;16;;;;;;;352.51178789999904;None;354.00325650000013;354.31990829999995;355.44512830000167;355.4617333000024;357.45327800000086;None;9;0;0.6842257000025711;357.45327800000086;None;;;;;;;;7;;;;;;;359.0032452000014;None;None;None;[];359.0032452000014;None;"['9', '9']";"[0.6702743999994709, 1.0461445000000822]";359.0032452000014;None;;;S11246;2022_Feb_25_1654;VideoMask;2021.1.2;119.96823241456998;
3.0;m;033_o_m_h_a.jpg;happy;9.0;sad_128.1.wmv;sad;7.0;incongruent;120.0;160.0;171.0492454518585;h_s;;;;;0;17;17;17;;;;;;;362.00350479999906;None;363.66965020000134;363.98631960000057;365.11953930000163;365.13612120000107;367.1195589000017;None;None;0;;367.1195589000017;None;;;;;;;;3;;;;;;;368.66957120000006;None;None;None;[];368.66957120000006;None;"['7', '7']";"[0.2199183999982779, 1.123908699999447]";368.66957120000006;None;;;S11246;2022_Feb_25_1654;VideoMask;2021.1.2;119.96823241456998;
1.0;f;021_o_f_h_a.jpg;happy;9.0;sad_116.1.wmv;sad;7.0;incongruent;120.0;160.0;184.06847610053055;h_s;;;;;0;18;18;18;;;;;;;371.6694019000024;None;373.42750330000126;373.74432870000237;374.8775429000016;374.8941894000018;376.8774857999997;None;7;0;0.6196887000005518;376.8774857999997;None;;;;;;;;3;;;;;;;378.4276076999995;None;None;None;[];378.4276076999995;None;"['7', '7']";"[0.7980548000014096, 1.6617184999995516]";378.4276076999995;None;;;S11246;2022_Feb_25_1654;VideoMask;2021.1.2;119.96823241456998;
4.0;m;004_o_m_s_a.jpg;sad;7.0;happy_28.1ns.avi;happy;9.0;incongruent;130.0;150.0;157.40741103039684;s_h;;;;;0;19;19;19;;;;;;;381.42760629999975;None;382.96073049999904;383.2773930000003;384.4107914000015;384.42744239999956;388.80240120000235;None;9;0;0.7188439000019571;388.80240120000235;None;;;;;;;;7;;;;;;;390.3522311000015;None;None;None;[];390.3522311000015;None;"['9', '9']";"[2.0572386999992887, 2.5053678000003856]";390.3522311000015;None;;;S11246;2022_Feb_25_1654;VideoMask;2021.1.2;119.96823241456998;
8.0;f;028_y_f_s_a.jpg;sad;7.0;happy_122.3.wmv;happy;9.0;incongruent;130.0;150.0;171.8670540936116;s_h;;;;;0;20;20;20;;;;;;;393.3522238000005;None;395.02699589999975;395.34367030000067;396.47709179999947;396.4936884000017;398.4769532999999;None;None;0;;398.4769532999999;None;;;;;;;;7;;;;;;;400.01841590000186;None;None;None;[];400.01841590000186;None;"['9', '9']";"[0.6791661999995995, 1.2151422999995702]";400.01841590000186;None;;;S11246;2022_Feb_25_1654;VideoMask;2021.1.2;119.96823241456998;
8.0;m;008_y_m_s_a.jpg;sad;7.0;sad_6.5ns.avi;sad;7.0;congruent;130.0;160.0;170.39333839271438;s_s;;;;;0;21;21;21;;;;;;;403.0351780000019;None;404.685036400002;405.0016171999996;406.1767819000015;406.19319879999966;411.1350643000005;None;7;0;1.154506599999877;411.1350643000005;None;;;;;;;;3;;;;;;;412.6848659000025;None;None;None;[];412.6848659000025;None;"['7', '7', '7']";"[0.4525147999993351, 0.9083199999986391, 1.5407237999970675]";412.6848659000025;None;;;S11246;2022_Feb_25_1654;VideoMask;2021.1.2;119.96823241456998;
8.0;f;028_y_f_h_a.jpg;happy;9.0;happy_23.1ns.avi;happy;9.0;congruent;120.0;150.0;225.70986890587952;h_h;;;;;0;22;22;22;;;;;;;415.6930960999998;None;417.81790360000014;418.1346217999999;419.2762231000015;419.292977699999;423.8428234000021;None;8;0;0.6146262000002025;423.8428234000021;None;;;;;;;;7;;;;;;;425.38436179999917;None;None;None;[];425.38436179999917;None;"['9', '9']";"[0.6972359999999753, 1.753160399999615]";425.38436179999917;None;;;S11246;2022_Feb_25_1654;VideoMask;2021.1.2;119.96823241456998;
8.0;m;008_y_m_h_a.jpg;happy;9.0;sad_111.1.wmv;sad;7.0;incongruent;120.0;160.0;152.63076835312847;h_s;;;;;0;23;23;23;;;;;;;428.3927842000012;None;429.8925292000022;430.2092807000008;431.34305099999983;431.3674788999997;433.3425367999989;None;7;0;1.2268341000017244;433.3425367999989;None;;;;;;;;3;;;;;;;434.89250549999997;None;None;None;[];434.89250549999997;None;"['7', '7']";"[0.7086481000005733, 1.3009289000001445]";434.89250549999997;None;;;S11246;2022_Feb_25_1654;VideoMask;2021.1.2;119.96823241456998;
0.0;f;040_y_f_s_a.jpg;sad;7.0;sad_67.2ns.avi;sad;7.0;congruent;130.0;160.0;220.9892697323079;s_s;;;;;0;24;24;24;;;;;;;437.90061609999975;None;439.99235039999985;440.3089304000023;441.5006422000006;441.51724280000053;450.66688559999966;None;7;0;1.1505520999999135;450.66688559999966;None;;;;;;;;3;;;;;;;452.21693790000063;None;None;None;[];452.21693790000063;None;"['7', '7', '7']";"[0.6164942999967025, 1.3523371999981464, 1.7605859999966924]";452.21693790000063;None;;;S11246;2022_Feb_25_1654;VideoMask;2021.1.2;119.96823241456998;
8.0;m;008_y_m_s_a.jpg;sad;7.0;happy_29.1ns.avi;happy;9.0;incongruent;130.0;150.0;120.0316142834122;s_h;;;;;0;25;25;25;;;;;;;455.21692389999953;None;456.4416687000012;456.7584031000006;457.9248738999995;457.9417684;460.58332750000045;None;8;0;0.7779539000002842;460.58332750000045;None;;;;;;;;7;;;;;;;462.13332210000226;None;None;None;[];462.13332210000226;None;"['9', '9', '9']";"[0.43600140000125975, 0.7640644999992219, 1.5961228000014671]";462.13332210000226;None;;;S11246;2022_Feb_25_1654;VideoMask;2021.1.2;119.96823241456998;
6.0;m;016_y_m_s_a.jpg;sad;7.0;sad_8.3ns.avi;sad;7.0;congruent;130.0;160.0;152.85371098242734;s_s;;;;;0;26;26;26;;;;;;;465.14161650000096;None;466.6998539000015;467.01639140000043;468.22470880000037;468.2412031999993;475.90785719999985;None;None;0;;475.90785719999985;None;;;;;;;;3;;;;;;;477.4577835000018;None;None;None;[];477.4577835000018;None;"['7', '7']";"[0.6155070999993768, 1.2155063999998674]";477.4577835000018;None;;;S11246;2022_Feb_25_1654;VideoMask;2021.1.2;119.96823241456998;
6.0;m;016_y_m_h_a.jpg;happy;9.0;sad_114.1.wmv;sad;7.0;incongruent;120.0;160.0;136.20550699298644;h_s;;;;;0;27;27;27;;;;;;;480.4660471999996;None;481.84089660000245;482.1575914999994;483.2826587000018;483.29924310000206;485.29093400000056;None;None;0;;485.29093400000056;None;;;;;;;;3;;;;;;;486.84069830000226;None;None;None;[];486.84069830000226;None;"['7', '7']";"[0.512389899999107, 0.8725798999985273]";486.84069830000226;None;;;S11246;2022_Feb_25_1654;VideoMask;2021.1.2;119.96823241456998;
7.0;m;027_o_m_s_a.jpg;sad;7.0;happy_117.3.wmv;happy;9.0;incongruent;130.0;150.0;215.61964028550614;s_h;;;;;0;28;28;28;;;;;;;489.849081700002;None;491.87387149999995;492.19061019999936;493.3239801000018;493.34060189999946;495.3238973000007;None;None;0;;495.3238973000007;None;;;;;;;;7;;;;;;;496.8737990000009;None;None;None;[];496.8737990000009;None;"['9', '9']";"[1.0235135000002629, 1.655433299998549]";496.8737990000009;None;;;S11246;2022_Feb_25_1654;VideoMask;2021.1.2;119.96823241456998;
6.0;m;016_y_m_h_a.jpg;happy;9.0;happy_9.2ns.avi;happy;9.0;congruent;120.0;150.0;130.52042428082717;h_h;;;;;0;29;29;29;;;;;;;499.87384870000096;None;501.1986840999998;501.515192400002;502.67356030000155;502.6901777000021;508.57347220000156;None;None;0;;508.57347220000156;None;;;;;;;;7;;;;;;;510.1233003000016;None;None;None;[];510.1233003000016;None;"['9', '9']";"[0.5578984999992826, 0.9341174000001047]";510.1233003000016;None;;;S11246;2022_Feb_25_1654;VideoMask;2021.1.2;119.96823241456998;
0.0;f;040_y_f_s_a.jpg;sad;7.0;happy_127.3.wmv;happy;9.0;incongruent;130.0;150.0;131.7195455720239;s_h;;;;;0;30;30;30;;;;;;;513.1317133000011;None;514.4314828000024;514.7482846999992;515.8816853999997;515.8982448999996;517.9481994000016;None;8;0;0.8050858000024164;517.9481994000016;None;;;;;;;;7;;;;;;;519.4897887000006;None;None;None;[];519.4897887000006;None;"['9', '9']";"[0.4954838999983622, 0.9913259999993898]";519.4897887000006;None;;;S11246;2022_Feb_25_1654;VideoMask;2021.1.2;119.96823241456998;
0.0;f;030_o_f_s_a.jpg;sad;7.0;happy_125.3.wmv;happy;9.0;incongruent;130.0;150.0;220.51454909128134;s_h;;;;;0;31;31;31;;;;;;;522.4898819000009;None;524.5478212000016;524.8644722999998;526.006304999999;526.0229213999992;527.9978894000014;None;8;0;0.8035185999979149;527.9978894000014;None;;;;;;;;6;;;;;;;529.5478269000014;None;None;None;[];529.5478269000014;None;['9'];[2.5975469000004523];529.5478269000014;None;;;S11246;2022_Feb_25_1654;VideoMask;2021.1.2;119.96823241456998;
0.0;f;030_o_f_s_a.jpg;sad;7.0;sad_64.3ns.avi;sad;7.0;congruent;130.0;160.0;165.78667874766072;s_s;;;;;0;32;32;32;;;;;;;532.5560820999999;None;534.172609199999;534.4893260999997;535.6393667000011;535.6559930000003;540.6389942000023;None;8;0;1.4021039999970526;540.6389942000023;None;;;;;;;;3;;;;;;;542.1890902000014;None;None;None;[];542.1890902000014;None;"['7', '7', '7']";"[0.46038190000035684, 0.9801905999993323, 1.548073599999043]";542.1890902000014;None;;;S11246;2022_Feb_25_1654;VideoMask;2021.1.2;119.96823241456998;
3.0;m;013_y_m_s_a.jpg;sad;7.0;sad_7.7ns.avi;sad;7.0;congruent;130.0;160.0;196.24182255763262;s_s;;;;;0;33;33;33;;;;;;;545.1974354000013;None;547.0722176000017;547.388855600002;548.5471548999994;548.5638039000005;554.5221410000013;None;7;0;1.3991215999994893;554.5221410000013;None;;;;;;;;4;;;;;;;556.0719568000022;None;None;None;[];556.0719568000022;None;['7'];[0.6410964000024251];556.0719568000022;None;;;S11246;2022_Feb_25_1654;VideoMask;2021.1.2;119.96823241456998;
3.0;m;013_y_m_h_a.jpg;happy;9.0;happy_9.1ns.avi;happy;9.0;congruent;120.0;150.0;165.1890303600433;h_h;;;;;0;34;34;34;;;;;;;559.0802086000003;None;560.6884218000014;561.0050904000018;562.1798292000021;562.1965971999998;565.3633640000007;None;8;0;1.2538448999985121;565.3633640000007;None;;;;;;;;7;;;;;;;566.9383056000006;None;None;None;[];566.9383056000006;None;"['9', '9']";"[0.46307140000135405, 0.8870865999997477]";566.9383056000006;None;;;S11246;2022_Feb_25_1654;VideoMask;2021.1.2;119.96823241456998;
4.0;m;004_o_m_h_a.jpg;happy;9.0;sad_95.1ns.avi;sad;7.0;incongruent;120.0;160.0;152.68270002069931;h_s;;;;;0;35;35;35;;;;;;;569.9381950000025;None;571.4798158000012;571.7964756000001;572.9629428000007;572.9797693;581.7211647000004;None;7;0;0.5280032000009669;581.7211647000004;None;;;;;;;;2;;;;;;;583.2711027000005;None;None;None;[];583.2711027000005;None;"['7', '7', '7']";"[0.5941591000009794, 0.9060996000007435, 1.978192599999602]";583.2711027000005;None;;;S11246;2022_Feb_25_1654;VideoMask;2021.1.2;119.96823241456998;
3.0;m;013_y_m_h_a.jpg;happy;9.0;sad_113.2.wmv;sad;7.0;incongruent;120.0;160.0;217.4973891947951;h_s;;;;;0;36;36;36;;;;;;;586.2710642999991;None;588.3291688999998;588.6458843;589.770909400002;589.7875447000006;591.7881847999997;None;7;0;1.3407446999990498;591.7881847999997;None;;;;;;;;3;;;;;;;593.3624077000022;None;None;None;[];593.3624077000022;None;"['7', '7']";"[0.6868529000021226, 1.0065375000012864]";593.3624077000022;None;;;S11246;2022_Feb_25_1654;VideoMask;2021.1.2;119.96823241456998;
4.0;m;004_o_m_h_a.jpg;happy;9.0;happy_25.1ns.avi;happy;9.0;congruent;120.0;150.0;216.63044503818386;h_h;;;;;0;37;37;37;;;;;;;596.3623756000015;None;598.404041400001;598.7206465000017;599.9039422999995;599.9205954999998;603.5454973000014;None;9;0;0.8956539000027988;603.5454973000014;None;;;;;;;;8;;;;;;;605.0954894999995;None;None;None;[];605.0954894999995;None;"['9', '9', '9', '9']";"[0.425454100000934, 0.7776843000028748, 1.3138796000021102, 2.313695100001496]";605.0954894999995;None;;;S11246;2022_Feb_25_1654;VideoMask;2021.1.2;119.96823241456998;
4.0;m;004_o_m_s_a.jpg;sad;7.0;happy_131.2.wmv;happy;9.0;incongruent;130.0;150.0;181.38407540847405;s_h;;;;;0;38;38;38;;;;;;;608.1037735999998;None;609.8368292000014;610.153517900002;611.2868320000016;611.3033859999996;613.2868803999991;None;None;0;;613.2868803999991;None;;;;;;;;7;;;;;;;614.8366142000013;None;None;None;[];614.8366142000013;None;"['9', '9', '9']";"[0.15659030000097118, 0.8444726999987324, 1.4766641999995045]";614.8366142000013;None;;;S11246;2022_Feb_25_1654;VideoMask;2021.1.2;119.96823241456998;
0.0;f;040_y_f_h_a.jpg;happy;9.0;happy_24.3ns.avi;happy;9.0;congruent;120.0;150.0;213.25460698950434;h_h;;;;;0;39;39;39;;;;;;;617.8367672999993;None;619.8282727000005;620.1448617999995;621.3448430999997;621.361880299999;623.2033222999999;None;None;0;;623.2033222999999;None;;;;;;;;7;;;;;;;624.7529742000006;None;None;None;[];624.7529742000006;None;"['9', '9']";"[0.17621470000085537, 0.7840240999976231]";624.7529742000006;None;;;S11246;2022_Feb_25_1654;VideoMask;2021.1.2;119.96823241456998;
2.0;f;012_o_f_s_a.jpg;sad;7.0;happy_139.1.wmv;happy;9.0;incongruent;130.0;150.0;162.31500468041804;s_h;;;;;0;40;40;40;;;;;;;627.7613941999989;None;629.3194772999996;629.6362604000024;630.7784552000012;630.8030216000006;632.7696393000006;None;8;0;1.3115079999988666;632.7696393000006;None;;;;;;;;7;;;;;;;634.3278341000005;None;None;None;[];634.3278341000005;None;"['9', '9']";"[0.4092997000007017, 1.2972819999995409]";634.3278341000005;None;;;S11246;2022_Feb_25_1654;VideoMask;2021.1.2;119.96823241456998;
0.0;f;030_o_f_h_a.jpg;happy;9.0;happy_24.1ns.avi;happy;9.0;congruent;120.0;150.0;168.36256624020774;h_h;;;;;0;41;41;41;;;;;;;637.3278599000005;None;638.9609100000016;639.2776149000019;640.4693064999992;640.4860176000002;643.7360083999993;None;9;0;1.1290356000026804;643.7360083999993;None;;;;;;;;8;;;;;;;645.285827300002;None;None;None;[];645.285827300002;None;"['9', '9', '9']";"[0.47549829999843496, 0.7873101999975916, 1.1633550000005926]";645.285827300002;None;;;S11246;2022_Feb_25_1654;VideoMask;2021.1.2;119.96823241456998;
2.0;f;012_o_f_h_a.jpg;happy;9.0;sad_113.1.wmv;sad;7.0;incongruent;120.0;160.0;177.44551734737394;h_s;;;;;0;42;42;42;;;;;;;648.2858333000004;None;649.9855537000003;650.3022789000024;651.4356377000004;651.4523455000017;653.4355620999995;None;None;0;;653.4355620999995;None;;;;;;;;3;;;;;;;654.9853363000002;None;None;None;[];654.9853363000002;None;"['7', '7']";"[0.4798764000006486, 0.831777499999589]";654.9853363000002;None;;;S11246;2022_Feb_25_1654;VideoMask;2021.1.2;119.96823241456998;
3.0;m;033_o_m_s_a.jpg;sad;7.0;sad_64.5ns.avi;sad;7.0;congruent;130.0;160.0;130.55717223801247;s_s;;;;;0;43;43;43;;;;;;;657.9855190000017;None;659.318734299999;659.6352955000002;660.8103904000018;660.8269920999992;667.3602652000009;None;7;0;0.8569688000025053;667.3602652000009;None;;;;;;;;2;;;;;;;668.910079199999;None;None;None;[];668.910079199999;None;"['7', '7', '7']";"[0.339011500000197, 0.6029515000009269, 0.9549167000004672]";668.910079199999;None;;;S11246;2022_Feb_25_1654;VideoMask;2021.1.2;119.96823241456998;
7.0;m;027_o_m_h_a.jpg;happy;9.0;sad_117.1.wmv;sad;7.0;incongruent;120.0;160.0;181.28665202824095;h_s;;;;;0;44;44;44;;;;;;;671.9099338000015;None;673.6598594000025;673.9765308999995;675.1186887000003;675.1432385000007;677.1098192999998;None;8;0;1.2352406999998493;677.1098192999998;None;;;;;;;;5;;;;;;;678.6597505999998;None;None;None;[];678.6597505999998;None;None;;678.6597505999998;None;;;S11246;2022_Feb_25_1654;VideoMask;2021.1.2;119.96823241456998;
3.0;m;033_o_m_s_a.jpg;sad;7.0;happy_126.3.wmv;happy;9.0;incongruent;130.0;150.0;198.85252030535366;s_h;;;;;0;45;45;45;;;;;;;681.6845240000002;None;683.567796700001;683.8845332000019;685.0177836000003;685.0345637999999;687.0178253000013;None;8;0;1.2952115000007325;687.0178253000013;None;;;;;;;;6;;;;;;;688.5677868000021;None;None;None;[];688.5677868000021;None;['9'];[0.46513920000143116];688.5677868000021;None;;;S11246;2022_Feb_25_1654;VideoMask;2021.1.2;119.96823241456998;
3.0;m;033_o_m_h_a.jpg;happy;9.0;sad_136.1.wmv;sad;7.0;incongruent;120.0;160.0;176.97002883463455;h_s;;;;;0;46;46;46;;;;;;;691.5760329000004;None;693.2758318000015;693.5926118999996;694.7177331999992;694.7342067999998;696.7258468;None;8;0;1.323386300002312;696.7258468;None;;;;;;;;5;;;;;;;698.275829000002;None;None;None;[];698.275829000002;None;None;;698.275829000002;None;;;S11246;2022_Feb_25_1654;VideoMask;2021.1.2;119.96823241456998;
9.0;f;019_m_f_h_a.jpg;happy;9.0;happy_10.1ns.avi;happy;9.0;congruent;120.0;150.0;157.2463435658512;h_h;;;;;0;47;47;47;;;;;;;701.2922371000022;None;702.8506479999996;703.1672776000014;704.2923354000013;704.3087660000019;711.7420583999992;None;8;0;1.562981499999296;711.7420583999992;None;;;;;;;;6;;;;;;;713.3920298000012;None;None;None;[];713.3920298000012;None;['9'];[0.529102000000421];713.3920298000012;None;;;S11246;2022_Feb_25_1654;VideoMask;2021.1.2;119.96823241456998;
2.0;f;012_o_f_h_a.jpg;happy;9.0;happy_2.2ns.avi;happy;9.0;congruent;120.0;150.0;206.34800317295262;h_h;;;;;0;48;48;48;;;;;;;716.391926100001;None;718.3668165000017;718.6834459999991;719.816872200001;719.8334061000023;732.0165065000001;None;9;0;0.9607386999996379;732.0165065000001;None;;;;;;;;7;;;;;;;733.5747054999993;None;None;None;[];733.5747054999993;None;"['9', '9']";"[0.32237780000286875, 0.7224780000033206]";733.5747054999993;None;;;S11246;2022_Feb_25_1654;VideoMask;2021.1.2;119.96823241456998;
3.0;m;033_o_m_h_a.jpg;happy;9.0;happy_24.2ns.avi;happy;9.0;congruent;120.0;150.0;167.9423847659953;h_h;;;;;0;49;49;49;;;;;;;736.5829914999995;None;738.2162134999999;738.5419134000003;739.7661986999992;739.7830794000001;743.3911164000019;None;9;0;1.0099749000000884;743.3911164000019;None;;;;;;;;7;;;;;;;744.9409926000008;None;None;None;[];744.9409926000008;None;"['9', '9']";"[0.3801458999987517, 0.716066499997396]";744.9409926000008;None;;;S11246;2022_Feb_25_1654;VideoMask;2021.1.2;119.96823241456998;
1.0;f;021_o_f_s_a.jpg;sad;7.0;happy_61.2ns.avi;happy;9.0;incongruent;130.0;150.0;210.94664004826666;s_h;;;;;0;50;50;50;;;;;;;747.9492854000018;None;749.9408981000015;750.2574083;751.4656293000007;751.4822674000025;755.9157737000023;None;9;0;1.1973668000027828;755.9157737000023;None;;;;;;;;7;;;;;;;757.4656109000025;None;None;None;[];757.4656109000025;None;"['9', '9']";"[0.3274896000002627, 0.7754353999989689]";757.4656109000025;None;;;S11246;2022_Feb_25_1654;VideoMask;2021.1.2;119.96823241456998;
4.0;m;004_o_m_s_a.jpg;sad;7.0;sad_2.4ns.avi;sad;7.0;congruent;130.0;160.0;153.02079367163634;s_s;;;;;0;51;51;51;;;;;;;760.4656479000005;None;761.9820832000005;762.2987116000004;763.5153778000022;763.5318557999999;771.3904237000024;None;7;0;0.8585968000006687;771.3904237000024;None;;;;;;;;3;;;;;;;772.9484711000005;None;None;None;[];772.9484711000005;None;"['7', '7']";"[0.5001290999971388, 0.9484421999986807]";772.9484711000005;None;;;S11246;2022_Feb_25_1654;VideoMask;2021.1.2;119.96823241456998;
8.0;m;008_y_m_h_a.jpg;happy;9.0;happy_1.2ns.avi;happy;9.0;congruent;120.0;150.0;210.98946429383824;h_h;;;;;0;52;52;52;;;;;;;775.9484474000019;None;777.9898453000023;778.306440700002;779.4737286000018;779.4989745999992;792.2312094000008;None;9;0;0.9058095999971556;792.2312094000008;None;;;;;;;;8;;;;;;;793.781096499999;None;None;None;[];793.781096499999;None;"['9', '9', '9']";"[0.2998738999995112, 0.6037806999993336, 1.5958554999997432]";793.781096499999;None;;;S11246;2022_Feb_25_1654;VideoMask;2021.1.2;119.96823241456998;
2.0;f;012_o_f_s_a.jpg;sad;7.0;happy_52.2ns.avi;happy;9.0;incongruent;130.0;150.0;172.57202848318138;s_h;;;;;0;53;53;53;;;;;;;796.7810821000021;None;798.4475305000014;798.7642328000002;799.9474322999995;799.9727091000022;803.4641655000014;None;None;0;;803.4641655000014;None;;;;;;;;7;;;;;;;805.0140314000018;None;None;None;[];805.0140314000018;None;"['9', '9']";"[0.8349134000018239, 1.6187898000025598]";805.0140314000018;None;;;S11246;2022_Feb_25_1654;VideoMask;2021.1.2;119.96823241456998;
9.0;f;019_m_f_s_a.jpg;sad;7.0;happy_61.1ns.avi;happy;9.0;incongruent;130.0;150.0;181.3003220572762;s_h;;;;;0;54;54;54;;;;;;;808.0141818000011;None;809.7973323000006;810.1138489000004;811.3139470999995;811.330586;818.638790500001;None;8;0;1.1541926999998395;818.638790500001;None;;;;;;;;6;;;;;;;820.1886564000015;None;None;None;[];820.1886564000015;None;['9'];[0.4202565000014147];820.1886564000015;None;;;S11246;2022_Feb_25_1654;VideoMask;2021.1.2;119.96823241456998;
0.0;f;030_o_f_h_a.jpg;happy;9.0;sad_133.1.wmv;sad;7.0;incongruent;120.0;160.0;198.86251500867985;h_s;;;;;0;55;55;55;;;;;;;823.196949000001;None;825.0800291000014;825.3967353000007;826.5218061000014;826.5384381000003;828.5390353000003;None;7;0;0.8221255000025849;828.5390353000003;None;;;;;;;;3;;;;;;;830.2633338000014;None;None;None;[];830.2633338000014;None;"['7', '7', '7']";"[0.4016016999994463, 0.7533065999996325, 1.2176992000022437]";830.2633338000014;None;;;S11246;2022_Feb_25_1654;VideoMask;2021.1.2;119.96823241456998;
0.0;f;040_y_f_h_a.jpg;happy;9.0;sad_128.2.wmv;sad;7.0;incongruent;120.0;160.0;206.10005857915363;h_s;;;;;0;56;56;56;;;;;;;833.2632331999994;None;835.2130541000006;835.5296584000025;836.6630401000002;836.6798006999998;838.6630289999994;None;7;0;0.5380049000013969;838.6630289999994;None;;;;;;;;3;;;;;;;840.2130042999997;None;None;None;[];840.2130042999997;None;"['7', '7']";"[0.4038254999977653, 0.7717660999987856]";840.2130042999997;None;;;S11246;2022_Feb_25_1654;VideoMask;2021.1.2;119.96823241456998;
1.0;f;021_o_f_s_a.jpg;sad;7.0;sad_9.5ns.avi;sad;7.0;congruent;130.0;160.0;206.16642757875042;s_s;;;;;0;57;57;57;;;;;;;843.2129385000007;None;845.1460933000017;845.4627667999994;846.6044010000005;846.6210924000006;852.3209547000006;None;None;0;;852.3209547000006;None;;;;;;;;2;;;;;;;853.8709573000015;None;None;None;[];853.8709573000015;None;"['7', '7', '7']";"[0.35389020000002347, 0.6980483999977878, 1.5058069999977306]";853.8709573000015;None;;;S11246;2022_Feb_25_1654;VideoMask;2021.1.2;119.96823241456998;
1.0;f;021_o_f_h_a.jpg;happy;9.0;happy_12.1ns.avi;happy;9.0;congruent;120.0;150.0;132.59080005900228;h_h;;;;;0;58;58;58;;;;;;;856.8792161000019;None;858.2457802999998;858.5623994000016;859.7129322000001;859.7374280000004;867.3121594000004;None;8;0;0.7128536999989592;867.3121594000004;None;;;;;;;;6;;;;;;;868.8621162999989;None;None;None;[];868.8621162999989;None;['9'];[0.3868326000010711];868.8621162999989;None;;;S11246;2022_Feb_25_1654;VideoMask;2021.1.2;119.96823241456998;
3.0;m;013_y_m_s_a.jpg;sad;7.0;happy_56.2ns.avi;happy;9.0;incongruent;130.0;150.0;163.39234110935848;s_h;;;;;0;59;59;59;;;;;;;871.8620795999996;None;873.4534224000017;873.770206000001;874.9539823000014;874.978418499999;879.9283981000008;None;8;0;1.0004616000005626;879.9283981000008;None;;;;;;;;5;;;;;;;881.7616841000017;None;None;None;[];881.7616841000017;None;None;;881.7616841000017;None;;;S11246;2022_Feb_25_1654;VideoMask;2021.1.2;119.96823241456998;
;;;;;;;;;;;;;;;;;;;;;;;;;;;;;;;;;;;;;;;;;;;;;;;;;;;;;;;;;;;;;;;;;884.7949531000013;None;;;;;;
