primePerson;primeGender;prime;primeEmotion;corrAnsPrime;target;targetEmotion;corrAnsTar;Cond;ID_Primer;ID_Target;JitterTime;Condition;example.thisRepN;example.thisTrialN;example.thisN;example.thisIndex;study.thisRepN;study.thisTrialN;study.thisN;study.thisIndex;MR_trigger_time;MR_trigger_number;text_intro.started;text_intro.stopped;text_probe.started;text_probe.stopped;polygon_ISI.started;polygon_ISI.stopped;polygon.started;polygon.stopped;primerImage.started;primerImage.stopped;response.started;response.stopped;key_resp.keys;key_resp.corr;key_resp.rt;key_resp.started;key_resp.stopped;slider_Text.started;slider_Text.stopped;slider_ex.response;slider_ex.rt;slider_ex.history;slider_ex.started;slider_ex.stopped;Rating;slider_resp_response.keys;slider_resp_response.rt;slider_resp_response.started;slider_resp_response.stopped;text_start.started;text_start.stopped;text_slider.started;text_slider.stopped;slider_stud.response;slider_stud.rt;slider_stud.history;slider_stud.started;slider_stud.stopped;slider_resp_study.keys;slider_resp_study.rt;slider_resp_study.started;slider_resp_study.stopped;text_ende.started;text_ende.stopped;participant;date;expName;psychopyVersion;frameRate;
1111;m;1111_m_m_h_a.jpg;happy;9;example_30.4ns.avi;neutral;7;incongruent;120.0;170.0;189.5874364012288;;0;0;0;0;;;;;29.493725900072604;1;29.57104660011828;31.571214399766177;31.571214399766177;None;33.59615270001814;None;35.57110770000145;35.896085899788886;37.037468099966645;37.054186299908906;41.36245210003108;None;9;0;0.9263138002716005;41.36245210003108;None;42.92079309979454;None;None;None;[];42.92079309979454;None;7;"['9', '9', '9']";"[0.8484042999334633, 1.3680629003793001, 1.9040880003012717]";42.92079309979454;None;;;;;;;;;;;;;;;;S11576;2022_Jul_11_1434;VideoMask;2021.1.2;120.07771410550647;
1113;f;1113_y_f_s_a.jpg;sad;7;example_30.3ns.avi;neutral;7;incongruent;130.0;170.0;229.02432995836998;;0;1;1;1;;;;;;;;;;;45.904210899956524;None;48.02054819976911;48.33726010005921;49.57068149978295;49.587266199756414;51.470685199834406;None;None;0;;51.470685199834406;None;53.020522200036794;None;None;None;[];53.020522200036794;None;6;"['9', '9', '7']";"[0.10058380011469126, 1.5645109000615776, 2.1326178000308573]";53.020522200036794;None;;;;;;;;;;;;;;;;S11576;2022_Jul_11_1434;VideoMask;2021.1.2;120.07771410550647;
9.0;f;019_m_f_h_a.jpg;happy;9.0;sad_115.1.wmv;sad;7.0;incongruent;120.0;160.0;128.09063432376465;h_s;;;;;0;0;0;0;;;;;;;57.062071199994534;None;58.336945599876344;58.65359820006415;59.81180869974196;59.84533869987354;61.78689179988578;None;None;0;;61.78689179988578;None;;;;;;;;4;;;;;56.02041330002248;None;63.33688780013472;None;None;None;[];63.33688780013472;None;['7'];[0.9760814998298883];63.33688780013472;None;;;S11576;2022_Jul_11_1434;VideoMask;2021.1.2;120.07771410550647;
3.0;m;033_o_m_s_a.jpg;sad;7.0;sad_94.2ns.avi;sad;7.0;congruent;130.0;160.0;182.29120173647655;s_s;;;;;0;1;1;1;;;;;;;66.34509800001979;None;68.07826620014384;68.3949898998253;69.58662369986996;69.60333770001307;72.22002999996766;None;7;0;0.6368854003958404;72.22002999996766;None;;;;;;;;3;;;;;;;73.76973980013281;None;None;None;[];73.76973980013281;None;"['7', '7']";"[0.20702219987288117, 0.5031594000756741]";73.76973980013281;None;;;S11576;2022_Jul_11_1434;VideoMask;2021.1.2;120.07771410550647;
8.0;m;008_y_m_h_a.jpg;happy;9.0;happy_26.1ns.avi;happy;9.0;congruent;120.0;150.0;155.9437854594882;h_h;;;;;0;2;2;2;;;;;;;76.76987549988553;None;78.26125829992816;78.5779590997845;79.71123829996213;79.72792619979009;81.70299030002207;None;9;0;0.36990540008991957;81.70299030002207;None;;;;;;;;7;;;;;;;83.28621979989111;None;None;None;[];83.28621979989111;None;"['9', '9', '9']";"[0.27463759994134307, 0.6267551998607814, 1.1228485996834934]";83.28621979989111;None;;;S11576;2022_Jul_11_1434;VideoMask;2021.1.2;120.07771410550647;
0.0;f;040_y_f_h_a.jpg;happy;9.0;sad_138.1.wmv;sad;7.0;incongruent;120.0;160.0;133.99071306426532;h_s;;;;;0;3;3;3;;;;;;;86.28606359986588;None;87.61095390003175;87.92766600009054;89.05276999995112;89.06932140002027;91.06095039984211;None;7;0;0.051881300285458565;91.06095039984211;None;;;;;;;;1;;;;;;;92.67757980013266;None;None;None;[];92.67757980013266;None;"['7', '7', '7', '7']";"[0.22728610038757324, 0.5233340002596378, 1.099320000037551, 2.6754858000203967]";92.67757980013266;None;;;S11576;2022_Jul_11_1434;VideoMask;2021.1.2;120.07771410550647;
8.0;f;028_y_f_s_a.jpg;sad;7.0;sad_64.2ns.avi;sad;7.0;congruent;130.0;160.0;229.88540597086478;s_s;;;;;0;4;4;4;;;;;;;95.67748739989474;None;97.87742359982803;98.19414989976212;99.3611284000799;99.38578599970788;110.32717840000987;None;7;0;0.5857067001052201;110.32717840000987;None;;;;;;;;1;;;;;;;111.87700049998239;None;None;None;[];111.87700049998239;None;"['7', '7', '7', '7', '7']";"[0.20401090011000633, 0.49186159996315837, 0.8678534999489784, 1.1719388999044895, 1.4278037999756634]";111.87700049998239;None;;;S11576;2022_Jul_11_1434;VideoMask;2021.1.2;120.07771410550647;
7.0;m;027_o_m_s_a.jpg;sad;7.0;sad_10.4ns.avi;sad;7.0;congruent;130.0;160.0;185.20129417468752;s_s;;;;;0;5;5;5;;;;;;;114.88531329995021;None;116.63502879999578;116.95172799983993;118.11009849980474;118.12683149985969;121.25187559984624;None;None;0;;121.25187559984624;None;;;;;;;;2;;;;;;;122.80146230012178;None;None;None;[];122.80146230012178;None;"['7', '7', '7']";"[0.22374559985473752, 0.5833472996018827, 1.4714743997901678]";122.80146230012178;None;;;S11576;2022_Jul_11_1434;VideoMask;2021.1.2;120.07771410550647;
2.0;f;012_o_f_s_a.jpg;sad;7.0;sad_7.5ns.avi;sad;7.0;congruent;130.0;160.0;220.27842655424388;s_s;;;;;0;6;6;6;;;;;;;125.80994120007381;None;127.8346044998616;128.15133009990677;129.29294129973277;129.30975909996778;132.07684329990298;None;None;0;;132.07684329990298;None;;;;;;;;4;;;;;;;133.65948629984632;None;None;None;[];133.65948629984632;None;['7'];[0.19736120011657476];133.65948629984632;None;;;S11576;2022_Jul_11_1434;VideoMask;2021.1.2;120.07771410550647;
2.0;f;012_o_f_h_a.jpg;happy;9.0;happy_27.1ns.avi;happy;9.0;congruent;120.0;150.0;146.44967055810616;h_h;;;;;0;7;7;7;;;;;;;136.6596836997196;None;138.08436969993636;138.40106459986418;139.55949029978365;139.57595019973814;142.02610770007595;None;None;0;;142.02610770007595;None;;;;;;;;7;;;;;;;143.57591379992664;None;None;None;[];143.57591379992664;None;"['9', '9']";"[0.29697660030797124, 0.7369156000204384]";143.57591379992664;None;;;S11576;2022_Jul_11_1434;VideoMask;2021.1.2;120.07771410550647;
8.0;f;028_y_f_h_a.jpg;happy;9.0;sad_119.1.wmv;sad;7.0;incongruent;120.0;160.0;148.71526953572538;h_s;;;;;0;8;8;8;;;;;;;146.58423639973626;None;148.03406349988654;148.3507787999697;149.4840496997349;149.50076279975474;151.55072039971128;None;None;0;;151.55072039971128;None;;;;;;;;5;;;;;;;153.10079269995913;None;None;None;[];153.10079269995913;None;"['7', '9']";"[0.531957299914211, 1.7479795999825]";153.10079269995913;None;;;S11576;2022_Jul_11_1434;VideoMask;2021.1.2;120.07771410550647;
6.0;m;016_y_m_s_a.jpg;sad;7.0;happy_60.4ns.avi;happy;9.0;incongruent;130.0;150.0;126.02367393611817;s_h;;;;;0;9;9;9;;;;;;;156.10908069973812;None;157.4171965997666;157.73375539993867;158.8921827999875;158.90891489991918;164.65862210001796;None;None;0;;164.65862210001796;None;;;;;;;;6;;;;;;;166.20860669994727;None;None;None;[];166.20860669994727;None;['9'];[0.25619039963930845];166.20860669994727;None;;;S11576;2022_Jul_11_1434;VideoMask;2021.1.2;120.07771410550647;
9.0;f;019_m_f_s_a.jpg;sad;7.0;sad_8.4ns.avi;sad;7.0;congruent;130.0;160.0;171.6633093155257;s_s;;;;;0;10;10;10;;;;;;;169.2086657998152;None;170.88332869997248;171.20003880001605;172.34168760012835;172.35846359981224;180.47544339997694;None;7;0;0.2937699002213776;180.47544339997694;None;;;;;;;;3;;;;;;;182.2497799997218;None;None;None;[];182.2497799997218;None;"['7', '7', '7', '7']";"[0.33507149992510676, 0.6550671998411417, 0.927006300073117, 1.2869838001206517]";182.2497799997218;None;;;S11576;2022_Jul_11_1434;VideoMask;2021.1.2;120.07771410550647;
4.0;m;004_o_m_h_a.jpg;happy;9.0;happy_1.1ns.avi;happy;9.0;congruent;120.0;150.0;203.50057144619865;h_h;;;;;0;11;11;11;;;;;;;185.24973429972306;None;187.2329017999582;187.54957049991935;188.72457889979705;188.7412052997388;203.18251439975575;None;None;0;;203.18251439975575;None;;;;;;;;7;;;;;;;204.7405371000059;None;None;None;[];204.7405371000059;None;"['9', '9']";"[0.3242609999142587, 0.7401904999278486]";204.7405371000059;None;;;S11576;2022_Jul_11_1434;VideoMask;2021.1.2;120.07771410550647;
7.0;m;027_o_m_h_a.jpg;happy;9.0;happy_20.1ns.avi;happy;9.0;congruent;120.0;150.0;152.91127178874285;h_h;;;;;0;12;12;12;;;;;;;207.74892459996045;None;209.24879999971017;209.56551879970357;210.6821365999058;210.69943520007655;213.71565030002967;None;None;0;;213.71565030002967;None;;;;;;;;5;;;;;;;215.26535010011867;None;None;None;[];215.26535010011867;None;"['9', '9', '9', '9', '7', '9']";"[0.6396362003870308, 1.095698700286448, 1.5355782001279294, 1.951469900086522, 2.6474962001666427, 2.935452700126916]";215.26535010011867;None;;;S11576;2022_Jul_11_1434;VideoMask;2021.1.2;120.07771410550647;
0.0;f;040_y_f_s_a.jpg;sad;7.0;sad_94.3ns.avi;sad;7.0;congruent;130.0;160.0;155.27414203894395;s_s;;;;;0;13;13;13;;;;;;;218.26528679998592;None;219.76513390010223;220.08181930007413;221.2566535999067;221.27365979971364;223.84017860004678;None;None;0;;223.84017860004678;None;;;;;;;;4;;;;;;;225.39008839987218;None;None;None;[];225.39008839987218;None;['7'];[1.1066025998443365];225.39008839987218;None;;;S11576;2022_Jul_11_1434;VideoMask;2021.1.2;120.07771410550647;
0.0;f;030_o_f_s_a.jpg;sad;7.0;sad_68.1ns.avi;sad;7.0;congruent;130.0;160.0;158.9411396037211;s_s;;;;;0;14;14;14;;;;;;;228.39826859999448;None;229.96482090000063;230.28150709997863;231.44824500009418;231.4648798997514;238.83972600009292;None;7;0;0.3451032000593841;238.83972600009292;None;;;;;;;;4;;;;;;;240.3895884999074;None;None;None;[];240.3895884999074;None;['7'];[0.2672733999788761];240.3895884999074;None;;;S11576;2022_Jul_11_1434;VideoMask;2021.1.2;120.07771410550647;
0.0;f;030_o_f_h_a.jpg;happy;9.0;sad_127.1.wmv;sad;7.0;incongruent;120.0;160.0;180.59976631384873;h_s;;;;;0;15;15;15;;;;;;;243.39790110010654;None;245.11425059987232;245.43108059978113;246.5810825000517;246.59770589973778;248.5642268001102;None;None;0;;248.5642268001102;None;;;;;;;;3;;;;;;;250.114287099801;None;None;None;[];250.114287099801;None;"['7', '7']";"[0.382852999959141, 1.3983751996420324]";250.114287099801;None;;;S11576;2022_Jul_11_1434;VideoMask;2021.1.2;120.07771410550647;
8.0;m;008_y_m_s_a.jpg;sad;7.0;happy_133.3.wmv;happy;9.0;incongruent;130.0;150.0;152.577966552593;s_h;;;;;0;16;16;16;;;;;;;253.1143478001468;None;254.59735099971294;254.91401960002258;256.06420429982245;256.08077829983085;258.0473345001228;None;None;0;;258.0473345001228;None;;;;;;;;7;;;;;;;259.5974171999842;None;None;None;[];259.5974171999842;None;"['9', '9']";"[0.3874642001464963, 2.1796158999204636]";259.5974171999842;None;;;S11576;2022_Jul_11_1434;VideoMask;2021.1.2;120.07771410550647;
3.0;m;033_o_m_h_a.jpg;happy;9.0;sad_128.1.wmv;sad;7.0;incongruent;120.0;160.0;171.0492454518585;h_s;;;;;0;17;17;17;;;;;;;262.59720559976995;None;264.2470927000977;264.5637459997088;265.6969309998676;265.71387400012463;267.69707889994606;None;None;0;;267.69707889994606;None;;;;;;;;3;;;;;;;269.2470392999239;None;None;None;[];269.2470392999239;None;"['7', '7']";"[0.2818528995849192, 0.6418206999078393]";269.2470392999239;None;;;S11576;2022_Jul_11_1434;VideoMask;2021.1.2;120.07771410550647;
1.0;f;021_o_f_h_a.jpg;happy;9.0;sad_116.1.wmv;sad;7.0;incongruent;120.0;160.0;184.06847610053055;h_s;;;;;0;18;18;18;;;;;;;272.24694949993864;None;273.9967131000012;274.31342800008133;275.4548972998746;275.4717493997887;277.4465995999053;None;None;0;;277.4465995999053;None;;;;;;;;4;;;;;;;279.0048877997324;None;None;None;[];279.0048877997324;None;"['7', '7']";"[0.8121098997071385, 1.2759361998178065]";279.0048877997324;None;;;S11576;2022_Jul_11_1434;VideoMask;2021.1.2;120.07771410550647;
4.0;m;004_o_m_s_a.jpg;sad;7.0;happy_28.1ns.avi;happy;9.0;incongruent;130.0;150.0;157.40741103039684;s_h;;;;;0;19;19;19;;;;;;;282.0133488997817;None;283.5380755001679;283.8547135000117;285.02969540003687;285.046323500108;289.3797629000619;None;None;0;;289.3797629000619;None;;;;;;;;7;;;;;;;290.92117240000516;None;None;None;[];290.92117240000516;None;"['9', '9', '9']";"[0.3358758999966085, 0.6715549002401531, 1.0316181001253426]";290.92117240000516;None;;;S11576;2022_Jul_11_1434;VideoMask;2021.1.2;120.07771410550647;
8.0;f;028_y_f_s_a.jpg;sad;7.0;happy_122.3.wmv;happy;9.0;incongruent;130.0;150.0;171.8670540936116;s_h;;;;;0;20;20;20;;;;;;;293.9295466998592;None;295.57937679998577;295.8960842997767;297.02947079995647;297.0460839001462;299.0293692997657;None;None;0;;299.0293692997657;None;;;;;;;;7;;;;;;;300.57915899995714;None;None;None;[];300.57915899995714;None;"['9', '9']";"[0.3416607999242842, 1.5816724002361298]";300.57915899995714;None;;;S11576;2022_Jul_11_1434;VideoMask;2021.1.2;120.07771410550647;
8.0;m;008_y_m_s_a.jpg;sad;7.0;sad_6.5ns.avi;sad;7.0;congruent;130.0;160.0;170.39333839271438;s_s;;;;;0;21;21;21;;;;;;;303.5876830997877;None;305.22074620006606;305.53746009990573;306.69573399983346;306.7126599997282;311.6706411000341;None;None;0;;311.6706411000341;None;;;;;;;;4;;;;;;;313.22042830009013;None;None;None;[];313.22042830009013;None;['7'];[0.3082172996364534];313.22042830009013;None;;;S11576;2022_Jul_11_1434;VideoMask;2021.1.2;120.07771410550647;
8.0;f;028_y_f_h_a.jpg;happy;9.0;happy_23.1ns.avi;happy;9.0;congruent;120.0;150.0;225.70986890587952;h_h;;;;;0;22;22;22;;;;;;;316.2205154998228;None;318.3036111998372;318.6203743000515;319.8118356997147;319.82853049971163;324.328514599707;None;None;0;;324.328514599707;None;;;;;;;;6;;;;;;;325.8785759997554;None;None;None;[];325.8785759997554;None;['9'];[0.290276600047946];325.8785759997554;None;;;S11576;2022_Jul_11_1434;VideoMask;2021.1.2;120.07771410550647;
8.0;m;008_y_m_h_a.jpg;happy;9.0;sad_111.1.wmv;sad;7.0;incongruent;120.0;160.0;152.63076835312847;h_s;;;;;0;23;23;23;;;;;;;328.8785602999851;None;330.3532723998651;330.6698789000511;331.81175959995016;331.8283250001259;333.80341779999435;None;None;0;;333.80341779999435;None;;;;;;;;4;;;;;;;335.35304299974814;None;None;None;[];335.35304299974814;None;['7'];[0.23159390036016703];335.35304299974814;None;;;S11576;2022_Jul_11_1434;VideoMask;2021.1.2;120.07771410550647;
0.0;f;040_y_f_s_a.jpg;sad;7.0;sad_67.2ns.avi;sad;7.0;congruent;130.0;160.0;220.9892697323079;s_s;;;;;0;24;24;24;;;;;;;338.353163999971;None;340.4363676998764;340.75300160003826;341.9364543999545;341.9530389001593;351.11113029997796;None;7;0;0.9615571997128427;351.11113029997796;None;;;;;;;;2;;;;;;;352.660996499937;None;None;None;[];352.660996499937;None;"['7', '7', '7', '7']";"[0.2597171999514103, 0.5796328000724316, 0.9159021000377834, 1.371917000040412]";352.660996499937;None;;;S11576;2022_Jul_11_1434;VideoMask;2021.1.2;120.07771410550647;
8.0;m;008_y_m_s_a.jpg;sad;7.0;happy_29.1ns.avi;happy;9.0;incongruent;130.0;150.0;120.0316142834122;s_h;;;;;0;25;25;25;;;;;;;355.66925529995933;None;356.87742100004107;357.19415850006044;358.38586070016026;358.4025170998648;361.0192734999582;None;None;0;;361.0192734999582;None;;;;;;;;7;;;;;;;362.569090699777;None;None;None;[];362.569090699777;None;"['9', '9']";"[0.24772490002214909, 0.647460799664259]";362.569090699777;None;;;S11576;2022_Jul_11_1434;VideoMask;2021.1.2;120.07771410550647;
6.0;m;016_y_m_s_a.jpg;sad;7.0;sad_8.3ns.avi;sad;7.0;congruent;130.0;160.0;152.85371098242734;s_s;;;;;0;26;26;26;;;;;;;365.5689110998064;None;367.1022779997438;367.4188143997453;368.65205080015585;368.6686594998464;376.3104026997462;None;None;0;;376.3104026997462;None;;;;;;;;4;;;;;;;377.85174690000713;None;None;None;[];377.85174690000713;None;"['7', '7']";"[0.36510360008105636, 0.6850026999600232]";377.85174690000713;None;;;S11576;2022_Jul_11_1434;VideoMask;2021.1.2;120.07771410550647;
6.0;m;016_y_m_h_a.jpg;happy;9.0;sad_114.1.wmv;sad;7.0;incongruent;120.0;160.0;136.20550699298644;h_s;;;;;0;27;27;27;;;;;;;380.868439800106;None;382.21003390010446;382.52670549973845;383.65178859978914;383.6683946000412;385.6600254001096;None;None;0;;385.6600254001096;None;;;;;;;;3;;;;;;;387.21002139989287;None;None;None;[];387.21002139989287;None;"['7', '7']";"[0.2626684997230768, 0.6228335998021066]";387.21002139989287;None;;;S11576;2022_Jul_11_1434;VideoMask;2021.1.2;120.07771410550647;
7.0;m;027_o_m_s_a.jpg;sad;7.0;happy_117.3.wmv;happy;9.0;incongruent;130.0;150.0;215.61964028550614;s_h;;;;;0;28;28;28;;;;;;;390.21823749970645;None;392.21801690012217;392.53468760009855;393.66808609990403;393.6847151000984;395.6764398999512;None;None;0;;395.6764398999512;None;;;;;;;;7;;;;;;;397.2261000997387;None;None;None;[];397.2261000997387;None;"['9', '9']";"[0.35877039982005954, 0.806754999794066]";397.2261000997387;None;;;S11576;2022_Jul_11_1434;VideoMask;2021.1.2;120.07771410550647;
6.0;m;016_y_m_h_a.jpg;happy;9.0;happy_9.2ns.avi;happy;9.0;congruent;120.0;150.0;130.52042428082717;h_h;;;;;0;29;29;29;;;;;;;400.23459729971364;None;401.5511663998477;401.8761701998301;403.0343438000418;403.0513617997058;408.9259123997763;None;None;0;;408.9259123997763;None;;;;;;;;6;;;;;;;410.4758953000419;None;None;None;[];410.4758953000419;None;"['9', '9']";"[0.6369178998284042, 1.3730822997167706]";410.4758953000419;None;;;S11576;2022_Jul_11_1434;VideoMask;2021.1.2;120.07771410550647;
0.0;f;040_y_f_s_a.jpg;sad;7.0;happy_127.3.wmv;happy;9.0;incongruent;130.0;150.0;131.7195455720239;s_h;;;;;0;30;30;30;;;;;;;413.4757924997248;None;414.7757672001608;415.09228320000693;416.225723200012;416.2422726000659;418.3089552000165;None;None;0;;418.3089552000165;None;;;;;;;;6;;;;;;;419.8503904999234;None;None;None;[];419.8503904999234;None;"['9', '9']";"[0.3263942003250122, 0.870346300303936]";419.8503904999234;None;;;S11576;2022_Jul_11_1434;VideoMask;2021.1.2;120.07771410550647;
0.0;f;030_o_f_s_a.jpg;sad;7.0;happy_125.3.wmv;happy;9.0;incongruent;130.0;150.0;220.51454909128134;s_h;;;;;0;31;31;31;;;;;;;422.86719849985093;None;424.9169339998625;425.233825400006;426.4003733997233;426.4170312997885;428.3836221001111;None;None;0;;428.3836221001111;None;;;;;;;;5;;;;;;;430.0002816999331;None;None;None;[];430.0002816999331;None;"['9', '7']";"[0.9045231998898089, 1.5043852999806404]";430.0002816999331;None;;;S11576;2022_Jul_11_1434;VideoMask;2021.1.2;120.07771410550647;
0.0;f;030_o_f_s_a.jpg;sad;7.0;sad_64.3ns.avi;sad;7.0;congruent;130.0;160.0;165.78667874766072;s_s;;;;;0;32;32;32;;;;;;;433.0084655000828;None;434.61667999997735;434.9334391998127;436.133413199801;436.1500359997153;441.0665870998055;None;None;0;;441.0665870998055;None;;;;;;;;3;;;;;;;442.73316319985315;None;None;None;[];442.73316319985315;None;"['7', '7', '7']";"[0.4276335001923144, 0.8275163001380861, 2.1317122001200914]";442.73316319985315;None;;;S11576;2022_Jul_11_1434;VideoMask;2021.1.2;120.07771410550647;
3.0;m;013_y_m_s_a.jpg;sad;7.0;sad_7.7ns.avi;sad;7.0;congruent;130.0;160.0;196.24182255763262;s_s;;;;;0;33;33;33;;;;;;;445.7415032000281;None;447.59957590000704;447.9163441997953;449.07440359983593;449.091338200029;455.0496426001191;None;None;0;;455.0496426001191;None;;;;;;;;3;;;;;;;456.59927179990336;None;None;None;[];456.59927179990336;None;"['7', '7']";"[0.3294661999680102, 0.6255958001129329]";456.59927179990336;None;;;S11576;2022_Jul_11_1434;VideoMask;2021.1.2;120.07771410550647;
3.0;m;013_y_m_h_a.jpg;happy;9.0;happy_9.1ns.avi;happy;9.0;congruent;120.0;150.0;165.1890303600433;h_h;;;;;0;34;34;34;;;;;;;459.5993983000517;None;461.20762960007414;461.52415770012885;462.7908462998457;462.80733919981867;465.88241990003735;None;None;0;;465.88241990003735;None;;;;;;;;7;;;;;;;467.4324723999016;None;None;None;[];467.4324723999016;None;"['9', '9']";"[0.2643239996396005, 1.0246424996294081]";467.4324723999016;None;;;S11576;2022_Jul_11_1434;VideoMask;2021.1.2;120.07771410550647;
4.0;m;004_o_m_h_a.jpg;happy;9.0;sad_95.1ns.avi;sad;7.0;incongruent;120.0;160.0;152.68270002069931;h_s;;;;;0;35;35;35;;;;;;;470.4406747999601;None;471.97395080002025;472.2904839999974;473.4656309001148;473.4821315999143;482.2154886997305;None;None;0;;482.2154886997305;None;;;;;;;;3;;;;;;;483.7733796997927;None;None;None;[];483.7733796997927;None;"['7', '7']";"[0.2513228999450803, 0.5552873997949064]";483.7733796997927;None;;;S11576;2022_Jul_11_1434;VideoMask;2021.1.2;120.07771410550647;
3.0;m;013_y_m_h_a.jpg;happy;9.0;sad_113.2.wmv;sad;7.0;incongruent;120.0;160.0;217.4973891947951;h_s;;;;;0;36;36;36;;;;;;;486.78187750000507;None;488.8149644001387;489.1316275000572;490.2567100999877;490.2732589999214;492.26491539971903;None;None;0;;492.26491539971903;None;;;;;;;;4;;;;;;;493.8147145998664;None;None;None;[];493.8147145998664;None;['7'];[0.4579234002158046];493.8147145998664;None;;;S11576;2022_Jul_11_1434;VideoMask;2021.1.2;120.07771410550647;
4.0;m;004_o_m_h_a.jpg;happy;9.0;happy_25.1ns.avi;happy;9.0;congruent;120.0;150.0;216.63044503818386;h_h;;;;;0;37;37;37;;;;;;;496.8149120998569;None;498.83963319985196;499.15642300015315;500.3147096997127;500.3313235999085;503.98133759992197;None;None;0;;503.98133759992197;None;;;;;;;;6;;;;;;;505.539557099808;None;None;None;[];505.539557099808;None;"['9', '9']";"[0.4851136999204755, 1.5331945000216365]";505.539557099808;None;;;S11576;2022_Jul_11_1434;VideoMask;2021.1.2;120.07771410550647;
4.0;m;004_o_m_s_a.jpg;sad;7.0;happy_131.2.wmv;happy;9.0;incongruent;130.0;150.0;181.38407540847405;s_h;;;;;0;38;38;38;;;;;;;508.5477386000566;None;510.264254800044;510.580962699838;511.71412670006976;511.73096100008115;513.7142984997481;None;None;0;;513.7142984997481;None;;;;;;;;6;;;;;;;515.2641960000619;None;None;None;[];515.2641960000619;None;['9'];[0.8807157003320754];515.2641960000619;None;;;S11576;2022_Jul_11_1434;VideoMask;2021.1.2;120.07771410550647;
0.0;f;040_y_f_h_a.jpg;happy;9.0;happy_24.3ns.avi;happy;9.0;congruent;120.0;150.0;213.25460698950434;h_h;;;;;0;39;39;39;;;;;;;518.2642911998555;None;520.2389853000641;520.5556320999749;521.7391208000481;521.7556759999134;523.6139968000352;None;None;0;;523.6139968000352;None;;;;;;;;6;;;;;;;525.1638523000292;None;None;None;[];525.1638523000292;None;"['9', '9']";"[0.6368983997963369, 1.148928300011903]";525.1638523000292;None;;;S11576;2022_Jul_11_1434;VideoMask;2021.1.2;120.07771410550647;
2.0;f;012_o_f_s_a.jpg;sad;7.0;happy_139.1.wmv;happy;9.0;incongruent;130.0;150.0;162.31500468041804;s_h;;;;;0;40;40;40;;;;;;;528.1637401999906;None;529.7219476997852;530.03878419986;531.1802023998462;531.1970317000523;533.1803938001394;None;None;0;;533.1803938001394;None;;;;;;;;7;;;;;;;534.7635281998664;None;None;None;[];534.7635281998664;None;"['9', '9', '9']";"[0.5095649999566376, 1.0771038001403213, 1.629228100180626]";534.7635281998664;None;;;S11576;2022_Jul_11_1434;VideoMask;2021.1.2;120.07771410550647;
0.0;f;030_o_f_h_a.jpg;happy;9.0;happy_24.1ns.avi;happy;9.0;congruent;120.0;150.0;168.36256624020774;h_h;;;;;0;41;41;41;;;;;;;537.7718110000715;None;539.3968114000745;539.7133832997642;540.8717614999041;540.8884513997473;544.1717495997436;None;None;0;;544.1717495997436;None;;;;;;;;7;;;;;;;545.721612600144;None;None;None;[];545.721612600144;None;"['9', '9']";"[0.33508919971063733, 0.7829664996825159]";545.721612600144;None;;;S11576;2022_Jul_11_1434;VideoMask;2021.1.2;120.07771410550647;
2.0;f;012_o_f_h_a.jpg;happy;9.0;sad_113.1.wmv;sad;7.0;incongruent;120.0;160.0;177.44551734737394;h_s;;;;;0;42;42;42;;;;;;;548.7215558998287;None;550.4046362000518;550.7213436998427;551.854671199806;551.8714195997454;553.8546497998759;None;None;0;;553.8546497998759;None;;;;;;;;4;;;;;;;555.4046339001507;None;None;None;[];555.4046339001507;None;['7'];[0.26805790001526475];555.4046339001507;None;;;S11576;2022_Jul_11_1434;VideoMask;2021.1.2;120.07771410550647;
3.0;m;033_o_m_s_a.jpg;sad;7.0;sad_64.5ns.avi;sad;7.0;congruent;130.0;160.0;130.55717223801247;s_s;;;;;0;43;43;43;;;;;;;558.4044638997875;None;559.7544384999201;560.0711113000289;561.2461961000226;561.2626641998067;567.78752969997;None;None;0;;567.78752969997;None;;;;;;;;3;;;;;;;569.3375236997381;None;None;None;[];569.3375236997381;None;"['7', '7', '7']";"[0.4391930000856519, 0.7510465998202562, 1.3831772999837995]";569.3375236997381;None;;;S11576;2022_Jul_11_1434;VideoMask;2021.1.2;120.07771410550647;
7.0;m;027_o_m_h_a.jpg;happy;9.0;sad_117.1.wmv;sad;7.0;incongruent;120.0;160.0;181.28665202824095;h_s;;;;;0;44;44;44;;;;;;;572.3373945001513;None;574.0622684997506;574.3789403997362;575.512690700125;575.5373348998837;577.5121615999378;None;None;0;;577.5121615999378;None;;;;;;;;2;;;;;;;579.0621576998383;None;None;None;[];579.0621576998383;None;"['7', '7', '7']";"[0.22667500004172325, 0.5385266002267599, 1.0665247002616525]";579.0621576998383;None;;;S11576;2022_Jul_11_1434;VideoMask;2021.1.2;120.07771410550647;
3.0;m;033_o_m_s_a.jpg;sad;7.0;happy_126.3.wmv;happy;9.0;incongruent;130.0;150.0;198.85252030535366;s_h;;;;;0;45;45;45;;;;;;;582.0620709001087;None;583.9286350999027;584.2453513997607;585.3868895000778;585.403578300029;587.3787560998462;None;None;0;;587.3787560998462;None;;;;;;;;6;;;;;;;588.928500900045;None;None;None;[];588.928500900045;None;['9'];[0.3761936002410948];588.928500900045;None;;;S11576;2022_Jul_11_1434;VideoMask;2021.1.2;120.07771410550647;
3.0;m;033_o_m_h_a.jpg;happy;9.0;sad_136.1.wmv;sad;7.0;incongruent;120.0;160.0;176.97002883463455;h_s;;;;;0;46;46;46;;;;;;;591.92856879998;None;593.6115969000384;593.9283726001158;595.0534533997998;595.0699197999202;597.061500699725;None;7;0;1.3632009997963905;597.061500699725;None;;;;;;;;2;;;;;;;598.603194499854;None;None;None;[];598.603194499854;None;"['7', '7', '7', '7']";"[0.10153449978679419, 0.38952349964529276, 0.6454616999253631, 1.9656412000767887]";598.603194499854;None;;;S11576;2022_Jul_11_1434;VideoMask;2021.1.2;120.07771410550647;
9.0;f;019_m_f_h_a.jpg;happy;9.0;happy_10.1ns.avi;happy;9.0;congruent;120.0;150.0;157.2463435658512;h_h;;;;;0;47;47;47;;;;;;;601.6115819998085;None;603.1697114999406;603.4863359001465;604.6613125000149;604.6781045999378;612.069548400119;None;None;0;;612.069548400119;None;;;;;;;;6;;;;;;;613.6694605001248;None;None;None;[];613.6694605001248;None;['9'];[0.5871982001699507];613.6694605001248;None;;;S11576;2022_Jul_11_1434;VideoMask;2021.1.2;120.07771410550647;
2.0;f;012_o_f_h_a.jpg;happy;9.0;happy_2.2ns.avi;happy;9.0;congruent;120.0;150.0;206.34800317295262;h_h;;;;;0;48;48;48;;;;;;;616.669425399974;None;618.6440841001458;618.9608474997804;620.119168699719;620.1358571997844;632.2939247000031;None;None;0;;632.2939247000031;None;;;;;;;;6;;;;;;;633.8435959997587;None;None;None;[];633.8435959997587;None;['9'];[0.309064700268209];633.8435959997587;None;;;S11576;2022_Jul_11_1434;VideoMask;2021.1.2;120.07771410550647;
3.0;m;033_o_m_h_a.jpg;happy;9.0;happy_24.2ns.avi;happy;9.0;congruent;120.0;150.0;167.9423847659953;h_h;;;;;0;49;49;49;;;;;;;636.8438253998756;None;638.4517900999635;638.7686776998453;639.9519878998399;639.9685701001436;643.6269219997339;None;None;0;;643.6269219997339;None;;;;;;;;6;;;;;;;645.1766035999171;None;None;None;[];645.1766035999171;None;['9'];[0.38403329998254776];645.1766035999171;None;;;S11576;2022_Jul_11_1434;VideoMask;2021.1.2;120.07771410550647;
1.0;f;021_o_f_s_a.jpg;sad;7.0;happy_61.2ns.avi;happy;9.0;incongruent;130.0;150.0;210.94664004826666;s_h;;;;;0;50;50;50;;;;;;;648.1767433998175;None;650.1599595998414;650.4766453001648;651.6182639999315;651.6349065001123;656.1349378000014;None;None;0;;656.1349378000014;None;;;;;;;;6;;;;;;;657.6845631999895;None;None;None;[];657.6845631999895;None;"['9', '9']";"[0.2600993001833558, 0.8282039002515376]";657.6845631999895;None;;;S11576;2022_Jul_11_1434;VideoMask;2021.1.2;120.07771410550647;
4.0;m;004_o_m_s_a.jpg;sad;7.0;sad_2.4ns.avi;sad;7.0;congruent;130.0;160.0;153.02079367163634;s_s;;;;;0;51;51;51;;;;;;;660.6929540000856;None;662.1928463000804;662.5094781001098;663.6845590998419;663.7011895999312;671.6010356000625;None;7;0;0.46366879995912313;671.6010356000625;None;;;;;;;;4;;;;;;;673.1675543999299;None;None;None;[];673.1675543999299;None;['7'];[0.2012226996012032];673.1675543999299;None;;;S11576;2022_Jul_11_1434;VideoMask;2021.1.2;120.07771410550647;
8.0;m;008_y_m_h_a.jpg;happy;9.0;happy_1.2ns.avi;happy;9.0;congruent;120.0;150.0;210.98946429383824;h_h;;;;;0;52;52;52;;;;;;;676.1675379998051;None;678.2006709999405;678.517273500096;679.7006985000335;679.7173123001121;692.4587726001628;None;None;0;;692.4587726001628;None;;;;;;;;7;;;;;;;694.0166946998797;None;None;None;[];694.0166946998797;None;"['9', '9']";"[0.26401100028306246, 0.7839566003531218]";694.0166946998797;None;;;S11576;2022_Jul_11_1434;VideoMask;2021.1.2;120.07771410550647;
2.0;f;012_o_f_s_a.jpg;sad;7.0;happy_52.2ns.avi;happy;9.0;incongruent;130.0;150.0;172.57202848318138;s_h;;;;;0;53;53;53;;;;;;;697.0251428997144;None;698.6832518000156;698.9999472997151;700.1834581997246;700.2000241000205;703.6833866997622;None;7;0;0.7173000001348555;703.6833866997622;None;;;;;;;;4;;;;;;;705.2331734998152;None;None;None;[];705.2331734998152;None;['7'];[0.6956747001968324];705.2331734998152;None;;;S11576;2022_Jul_11_1434;VideoMask;2021.1.2;120.07771410550647;
9.0;f;019_m_f_s_a.jpg;sad;7.0;happy_61.1ns.avi;happy;9.0;incongruent;130.0;150.0;181.3003220572762;s_h;;;;;0;54;54;54;;;;;;;708.23298719991;None;710.0164159997366;710.3329602000304;711.5078246998601;711.5245455997065;718.8578699999489;None;9;0;0.7907059001736343;718.8578699999489;None;;;;;;;;6;;;;;;;720.416038100142;None;None;None;[];720.416038100142;None;['9'];[0.6806246000342071];720.416038100142;None;;;S11576;2022_Jul_11_1434;VideoMask;2021.1.2;120.07771410550647;
0.0;f;030_o_f_h_a.jpg;happy;9.0;sad_133.1.wmv;sad;7.0;incongruent;120.0;160.0;198.86251500867985;h_s;;;;;0;55;55;55;;;;;;;723.4159582001157;None;725.2824727999978;725.5991982999258;726.7325339000672;726.7491608997807;728.7409735997207;None;None;0;;728.7409735997207;None;;;;;;;;4;;;;;;;730.2990366001613;None;None;None;[];730.2990366001613;None;"['7', '7']";"[0.28570569958537817, 1.0780556998215616]";730.2990366001613;None;;;S11576;2022_Jul_11_1434;VideoMask;2021.1.2;120.07771410550647;
0.0;f;040_y_f_h_a.jpg;happy;9.0;sad_128.2.wmv;sad;7.0;incongruent;120.0;160.0;206.10005857915363;h_s;;;;;0;56;56;56;;;;;;;733.3073422000743;None;735.2320655998774;735.5488106999546;736.6820203997195;736.6988197001629;738.6820286000147;None;8;0;1.4785815002396703;738.6820286000147;None;;;;;;;;5;;;;;;;740.2319923997857;None;None;None;[];740.2319923997857;None;"['7', '9']";"[0.2886478998698294, 1.624737599864602]";740.2319923997857;None;;;S11576;2022_Jul_11_1434;VideoMask;2021.1.2;120.07771410550647;
1.0;f;021_o_f_s_a.jpg;sad;7.0;sad_9.5ns.avi;sad;7.0;congruent;130.0;160.0;206.16642757875042;s_s;;;;;0;57;57;57;;;;;;;743.2320185001008;None;745.1567957000807;745.4735699999146;746.7151599000208;746.731817400083;752.3401375999674;None;7;0;0.44448160007596016;752.3401375999674;None;;;;;;;;5;;;;;;;753.8899715999141;None;None;None;[];753.8899715999141;None;"['7', '9']";"[0.8948053000494838, 2.014504599850625]";753.8899715999141;None;;;S11576;2022_Jul_11_1434;VideoMask;2021.1.2;120.07771410550647;
1.0;f;021_o_f_h_a.jpg;happy;9.0;happy_12.1ns.avi;happy;9.0;congruent;120.0;150.0;132.59080005900228;h_h;;;;;0;58;58;58;;;;;;;756.8982698000036;None;758.2565407999791;758.5731008998118;759.7314603999257;759.7481252001598;767.3229227000847;None;9;0;0.46175630018115044;767.3229227000847;None;;;;;;;;6;;;;;;;768.8811753997579;None;None;None;[];768.8811753997579;None;"['9', '7']";"[0.5594711997546256, 0.9275453998707235]";768.8811753997579;None;;;S11576;2022_Jul_11_1434;VideoMask;2021.1.2;120.07771410550647;
3.0;m;013_y_m_s_a.jpg;sad;7.0;happy_56.2ns.avi;happy;9.0;incongruent;130.0;150.0;163.39234110935848;s_h;;;;;0;59;59;59;;;;;;;771.8895748001523;None;773.4725168999285;773.7892777998932;775.0308082001284;775.0476421997882;779.9476443999447;None;None;0;;779.9476443999447;None;;;;;;;;6;;;;;;;781.497274399735;None;None;None;[];781.497274399735;None;['9'];[1.2152610998600721];781.497274399735;None;;;S11576;2022_Jul_11_1434;VideoMask;2021.1.2;120.07771410550647;
;;;;;;;;;;;;;;;;;;;;;;;;;;;;;;;;;;;;;;;;;;;;;;;;;;;;;;;;;;;;;;;;;784.5057832999155;None;;;;;;
