primePerson;primeGender;prime;primeEmotion;corrAnsPrime;target;targetEmotion;corrAnsTar;Cond;ID_Primer;ID_Target;JitterTime;Condition;example.thisRepN;example.thisTrialN;example.thisN;example.thisIndex;study.thisRepN;study.thisTrialN;study.thisN;study.thisIndex;MR_trigger_time;MR_trigger_number;text_intro.started;text_intro.stopped;text_probe.started;text_probe.stopped;polygon_ISI.started;polygon_ISI.stopped;polygon.started;polygon.stopped;primerImage.started;primerImage.stopped;response.started;response.stopped;key_resp.keys;key_resp.corr;key_resp.rt;key_resp.started;key_resp.stopped;slider_Text.started;slider_Text.stopped;slider_ex.response;slider_ex.rt;slider_ex.history;slider_ex.started;slider_ex.stopped;Rating;slider_resp_response.keys;slider_resp_response.rt;slider_resp_response.started;slider_resp_response.stopped;text_start.started;text_start.stopped;text_slider.started;text_slider.stopped;slider_stud.response;slider_stud.rt;slider_stud.history;slider_stud.started;slider_stud.stopped;slider_resp_study.keys;slider_resp_study.rt;slider_resp_study.started;slider_resp_study.stopped;text_ende.started;text_ende.stopped;participant;date;expName;psychopyVersion;frameRate;
1111;m;1111_m_m_h_a.jpg;happy;9;example_30.4ns.avi;neutral;7;incongruent;120.0;170.0;189.5874364012288;;0;0;0;0;;;;;26.2778149000369;1;26.35556160006672;28.414232400013134;28.414232400013134;None;30.380618800059892;None;32.63066260004416;32.947034499957226;34.12215179996565;34.13881170004606;38.42178099998273;None;9;0;0.5426538999890909;38.42178099998273;None;40.12261069996748;None;None;None;[];40.12261069996748;None;6;['9'];[1.713667800067924];40.12261069996748;None;;;;;;;;;;;;;;;;S12024;2023_Feb_15_1727;VideoMask;2021.1.2;120.00264013406623;
1113;f;1113_y_f_s_a.jpg;sad;7;example_30.3ns.avi;neutral;7;incongruent;130.0;170.0;229.02432995836998;;0;1;1;1;;;;;;;;;;;43.130166099988855;None;45.26324650004972;45.58008930005599;46.75509850005619;46.771624300046824;48.71399560000282;None;8;0;0.8181850999826565;48.71399560000282;None;50.488088199985214;None;None;None;[];50.488088199985214;None;5;None;;50.488088199985214;None;;;;;;;;;;;;;;;;S12024;2023_Feb_15_1727;VideoMask;2021.1.2;120.00264013406623;
9.0;f;019_m_f_h_a.jpg;happy;9.0;sad_115.1.wmv;sad;7.0;incongruent;120.0;160.0;128.09063432376465;h_s;;;;;0;0;0;0;;;;;;;54.53813830006402;None;55.81282720004674;56.12961870001163;57.304604200064205;57.32138470001519;59.26295840006787;None;7;0;0.38918749999720603;59.26295840006787;None;;;;;;;;3;;;;;53.51321939995978;None;60.81291550002061;None;None;None;[];60.81291550002061;None;"['7', '7', '7']";"[0.9033330000238493, 1.503243500017561, 2.02339570003096]";60.81291550002061;None;;;S12024;2023_Feb_15_1727;VideoMask;2021.1.2;120.00264013406623;
3.0;m;033_o_m_s_a.jpg;sad;7.0;sad_94.2ns.avi;sad;7.0;congruent;130.0;160.0;182.29120173647655;s_s;;;;;0;1;1;1;;;;;;;63.81289389997255;None;65.53769320005085;65.85445179999806;67.03761620004661;67.05442159995437;69.67932500003371;None;None;0;;69.67932500003371;None;;;;;;;;5;;;;;;;71.30432420002762;None;None;None;[];71.30432420002762;None;"['7', '9']";"[0.05194530007429421, 1.5479662000434473]";71.30432420002762;None;;;S12024;2023_Feb_15_1727;VideoMask;2021.1.2;120.00264013406623;
8.0;m;008_y_m_h_a.jpg;happy;9.0;happy_26.1ns.avi;happy;9.0;congruent;120.0;150.0;155.9437854594882;h_h;;;;;0;2;2;2;;;;;;;74.312541399966;None;75.7955322000198;76.11243430001196;77.27079340000637;77.28745599999093;79.23725680005737;None;9;0;0.5030112001113594;79.23725680005737;None;;;;;;;;8;;;;;;;81.39557090005837;None;None;None;[];81.39557090005837;None;"['9', '9', '9', '9']";"[0.7125305000226945, 1.4646536000072956, 1.9605616999324411, 2.9205181999132037]";81.39557090005837;None;;;S12024;2023_Feb_15_1727;VideoMask;2021.1.2;120.00264013406623;
0.0;f;040_y_f_h_a.jpg;happy;9.0;sad_138.1.wmv;sad;7.0;incongruent;120.0;160.0;133.99071306426532;h_s;;;;;0;3;3;3;;;;;;;84.39551689999644;None;85.73698180005886;86.0537403000053;87.18703290005215;87.20355770003516;89.18702960002702;None;7;0;0.8732390999794006;89.18702960002702;None;;;;;;;;4;;;;;;;90.85344089998398;None;None;None;[];90.85344089998398;None;['7'];[0.67081539996434];90.85344089998398;None;;;S12024;2023_Feb_15_1727;VideoMask;2021.1.2;120.00264013406623;
8.0;f;028_y_f_s_a.jpg;sad;7.0;sad_64.2ns.avi;sad;7.0;congruent;130.0;160.0;229.88540597086478;s_s;;;;;0;4;4;4;;;;;;;93.85345960000996;None;96.02003360004164;96.33663120004348;97.5534592999611;97.57006769999862;108.46969649998937;None;7;0;0.34247570007573813;108.46969649998937;None;;;;;;;;3;;;;;;;110.01966250000987;None;None;None;[];110.01966250000987;None;"['7', '7']";"[0.4725630000466481, 1.776587300002575]";110.01966250000987;None;;;S12024;2023_Feb_15_1727;VideoMask;2021.1.2;120.00264013406623;
7.0;m;027_o_m_s_a.jpg;sad;7.0;sad_10.4ns.avi;sad;7.0;congruent;130.0;160.0;185.20129417468752;s_s;;;;;0;5;5;5;;;;;;;113.01965779997408;None;114.76101729995571;115.07779909996316;116.29444309999235;116.31090969999786;119.37764349998906;None;7;0;0.49856110010296106;119.37764349998906;None;;;;;;;;3;;;;;;;120.92757800000254;None;None;None;[];120.92757800000254;None;"['7', '7']";"[0.39675159996841103, 1.020567400031723]";120.92757800000254;None;;;S12024;2023_Feb_15_1727;VideoMask;2021.1.2;120.00264013406623;
2.0;f;012_o_f_s_a.jpg;sad;7.0;sad_7.5ns.avi;sad;7.0;congruent;130.0;160.0;220.27842655424388;s_s;;;;;0;6;6;6;;;;;;;123.92771349998657;None;125.96068420005031;126.27722399996128;127.46084399998654;127.47845910000615;130.20282580005005;None;7;0;0.5854190000100061;130.20282580005005;None;;;;;;;;3;;;;;;;131.78563349996693;None;None;None;[];131.78563349996693;None;"['7', '7', '7']";"[0.4346157000400126, 1.1627572000725195, 2.0268065000418574]";131.78563349996693;None;;;S12024;2023_Feb_15_1727;VideoMask;2021.1.2;120.00264013406623;
2.0;f;012_o_f_h_a.jpg;happy;9.0;happy_27.1ns.avi;happy;9.0;congruent;120.0;150.0;146.44967055810616;h_h;;;;;0;7;7;7;;;;;;;134.78620680002496;None;136.20202219998464;136.5187697999645;137.685163200018;137.7020962999668;140.14351950003766;None;9;0;0.4366236999630928;140.14351950003766;None;;;;;;;;8;;;;;;;141.69350140006281;None;None;None;[];141.69350140006281;None;"['9', '9', '9', '9']";"[0.4787648000055924, 1.1026857999386266, 1.790775700006634, 2.6147274000104517]";141.69350140006281;None;;;S12024;2023_Feb_15_1727;VideoMask;2021.1.2;120.00264013406623;
8.0;f;028_y_f_h_a.jpg;happy;9.0;sad_119.1.wmv;sad;7.0;incongruent;120.0;160.0;148.71526953572538;h_s;;;;;0;8;8;8;;;;;;;144.69353080005385;None;146.1518385000527;146.46837130002677;147.6022149999626;147.62682200002018;149.66838599997573;None;7;0;0.4639992999145761;149.66838599997573;None;;;;;;;;3;;;;;;;151.2183001000667;None;None;None;[];151.2183001000667;None;"['7', '7', '7']";"[0.4098028999287635, 0.873875799938105, 2.329549999907613]";151.2183001000667;None;;;S12024;2023_Feb_15_1727;VideoMask;2021.1.2;120.00264013406623;
6.0;m;016_y_m_s_a.jpg;sad;7.0;happy_60.4ns.avi;happy;9.0;incongruent;130.0;150.0;126.02367393611817;s_h;;;;;0;9;9;9;;;;;;;154.218233600026;None;155.48466680001002;155.80145839997567;157.04343129997142;157.0685136000393;162.73539519996848;None;9;0;0.40510869992431253;162.73539519996848;None;;;;;;;;9;;;;;;;164.47623480006587;None;None;None;[];164.47623480006587;None;"['9', '9', '9', '9']";"[0.4081800999119878, 0.8318613999290392, 1.231733899912797, 2.0240357000147924]";164.47623480006587;None;;;S12024;2023_Feb_15_1727;VideoMask;2021.1.2;120.00264013406623;
9.0;f;019_m_f_s_a.jpg;sad;7.0;sad_8.4ns.avi;sad;7.0;congruent;130.0;160.0;171.6633093155257;s_s;;;;;0;10;10;10;;;;;;;167.47621730004903;None;169.13422560004983;169.4509482999565;170.60976470005699;170.62633690005168;178.7174046;None;7;0;0.41480920009780675;178.7174046;None;;;;;;;;1;;;;;;;180.26735780003946;None;None;None;[];180.26735780003946;None;"['7', '7', '7', '7', '7']";"[0.2730378999840468, 0.5286798999877647, 0.7447885998990387, 0.9846342999953777, 1.3929190000053495]";180.26735780003946;None;;;S12024;2023_Feb_15_1727;VideoMask;2021.1.2;120.00264013406623;
4.0;m;004_o_m_h_a.jpg;happy;9.0;happy_1.1ns.avi;happy;9.0;congruent;120.0;150.0;203.50057144619865;h_h;;;;;0;11;11;11;;;;;;;183.27570360002574;None;185.23371770000085;185.55038060003426;186.73390690004453;186.75051849999;201.17526289995294;None;9;0;0.501054499996826;201.17526289995294;None;;;;;;;;7;;;;;;;202.73336640000343;None;None;None;[];202.73336640000343;None;"['9', '9']";"[0.4069131000433117, 0.9589726000558585]";202.73336640000343;None;;;S12024;2023_Feb_15_1727;VideoMask;2021.1.2;120.00264013406623;
7.0;m;027_o_m_h_a.jpg;happy;9.0;happy_20.1ns.avi;happy;9.0;congruent;120.0;150.0;152.91127178874285;h_h;;;;;0;12;12;12;;;;;;;205.74170819995925;None;207.24152739997953;207.55801090004388;208.69158650003374;208.70813699997962;211.7080364000285;None;9;0;0.42425769998226315;211.7080364000285;None;;;;;;;;7;;;;;;;213.25797340006102;None;None;None;[];213.25797340006102;None;"['9', '9']";"[0.658296599984169, 1.9300473999464884]";213.25797340006102;None;;;S12024;2023_Feb_15_1727;VideoMask;2021.1.2;120.00264013406623;
0.0;f;040_y_f_s_a.jpg;sad;7.0;sad_94.3ns.avi;sad;7.0;congruent;130.0;160.0;155.27414203894395;s_s;;;;;0;13;13;13;;;;;;;216.26635629998054;None;217.74940279999282;218.06611060001887;219.27425530005712;219.29980679997243;221.82456019998062;None;8;0;0.7558286000275984;221.82456019998062;None;;;;;;;;5;;;;;;;223.3743330000434;None;None;None;[];223.3743330000434;None;None;;223.3743330000434;None;;;S12024;2023_Feb_15_1727;VideoMask;2021.1.2;120.00264013406623;
0.0;f;030_o_f_s_a.jpg;sad;7.0;sad_68.1ns.avi;sad;7.0;congruent;130.0;160.0;158.9411396037211;s_s;;;;;0;14;14;14;;;;;;;226.39906530000735;None;227.940716000041;228.25744920002762;229.46566119999625;229.48245340003632;236.81567220005672;None;7;0;0.38050310011021793;236.81567220005672;None;;;;;;;;3;;;;;;;238.35721970000304;None;None;None;[];238.35721970000304;None;"['7', '7']";"[0.327360299997963, 1.8228209000080824]";238.35721970000304;None;;;S12024;2023_Feb_15_1727;VideoMask;2021.1.2;120.00264013406623;
0.0;f;030_o_f_h_a.jpg;happy;9.0;sad_127.1.wmv;sad;7.0;incongruent;120.0;160.0;180.59976631384873;h_s;;;;;0;15;15;15;;;;;;;241.36540160002187;None;243.07346189999953;243.3903134999564;244.52362059999723;244.5405555999605;246.53263979998883;None;7;0;0.9355978000676259;246.53263979998883;None;;;;;;;;2;;;;;;;248.090207500034;None;None;None;[];248.090207500034;None;"['7', '7', '7']";"[0.37824540003202856, 0.6580827999860048, 1.162009899970144]";248.090207500034;None;;;S12024;2023_Feb_15_1727;VideoMask;2021.1.2;120.00264013406623;
8.0;m;008_y_m_s_a.jpg;sad;7.0;happy_133.3.wmv;happy;9.0;incongruent;130.0;150.0;152.577966552593;s_h;;;;;0;16;16;16;;;;;;;251.09026720002294;None;252.57330689998344;252.88998790003825;254.01511439995375;254.0316208000295;256.0232719000196;None;9;0;0.44509080005809665;256.0232719000196;None;;;;;;;;7;;;;;;;257.5732458999846;None;None;None;[];257.5732458999846;None;"['9', '9', '9', '7']";"[0.4069035000866279, 0.9509882000274956, 1.6791082000127062, 2.7988092000596225]";257.5732458999846;None;;;S12024;2023_Feb_15_1727;VideoMask;2021.1.2;120.00264013406623;
3.0;m;033_o_m_h_a.jpg;happy;9.0;sad_128.1.wmv;sad;7.0;incongruent;120.0;160.0;171.0492454518585;h_s;;;;;0;17;17;17;;;;;;;260.581447100034;None;262.21452429995406;262.5313183000544;263.6645056999987;263.68137839995325;265.67307280004025;None;8;0;1.355126499896869;265.67307280004025;None;;;;;;;;4;;;;;;;267.22291560005397;None;None;None;[];267.22291560005397;None;['7'];[0.9972372999181971];267.22291560005397;None;;;S12024;2023_Feb_15_1727;VideoMask;2021.1.2;120.00264013406623;
1.0;f;021_o_f_h_a.jpg;happy;9.0;sad_116.1.wmv;sad;7.0;incongruent;120.0;160.0;184.06847610053055;h_s;;;;;0;18;18;18;;;;;;;270.23133360000793;None;271.9809691000264;272.2977167000063;273.43106430000626;273.4477045000531;275.43099110003095;None;7;0;0.39735270000528544;275.43099110003095;None;;;;;;;;4;;;;;;;276.98931600002106;None;None;None;[];276.98931600002106;None;['7'];[1.8471071999520063];276.98931600002106;None;;;S12024;2023_Feb_15_1727;VideoMask;2021.1.2;120.00264013406623;
4.0;m;004_o_m_s_a.jpg;sad;7.0;happy_28.1ns.avi;happy;9.0;incongruent;130.0;150.0;157.40741103039684;s_h;;;;;0;19;19;19;;;;;;;279.9892962999875;None;281.50567480002064;281.82245229999535;282.9971373999724;283.01394289999735;287.3472376000136;None;9;0;0.3449710999848321;287.3472376000136;None;;;;;;;;9;;;;;;;288.90553920005914;None;None;None;[];288.90553920005914;None;"['9', '9', '9', '9']";"[0.33078800002112985, 0.7386931999353692, 1.1707058999454603, 1.626589999999851]";288.90553920005914;None;;;S12024;2023_Feb_15_1727;VideoMask;2021.1.2;120.00264013406623;
8.0;f;028_y_f_s_a.jpg;sad;7.0;happy_122.3.wmv;happy;9.0;incongruent;130.0;150.0;171.8670540936116;s_h;;;;;0;20;20;20;;;;;;;291.91388210002333;None;293.55525840003975;293.871986299986;295.01376410003286;295.03045089996886;297.00526290002745;None;7;0;0.36717840004712343;297.00526290002745;None;;;;;;;;9;;;;;;;298.58014450001065;None;None;None;[];298.58014450001065;None;"['9', '9', '9', '9']";"[0.4400480999611318, 0.8557233000174165, 1.2319059000583366, 1.831758499960415]";298.58014450001065;None;;;S12024;2023_Feb_15_1727;VideoMask;2021.1.2;120.00264013406623;
8.0;m;008_y_m_s_a.jpg;sad;7.0;sad_6.5ns.avi;sad;7.0;congruent;130.0;160.0;170.39333839271438;s_s;;;;;0;21;21;21;;;;;;;301.58018200006336;None;303.2132610999979;303.5384426000528;304.696749499999;304.71403180004563;309.67155560001265;None;7;0;0.32466530008241534;309.67155560001265;None;;;;;;;;2;;;;;;;311.2214946000604;None;None;None;[];311.2214946000604;None;"['7', '7', '7']";"[0.23878289991989732, 0.6547723999246955, 1.1906068000243977]";311.2214946000604;None;;;S12024;2023_Feb_15_1727;VideoMask;2021.1.2;120.00264013406623;
8.0;f;028_y_f_h_a.jpg;happy;9.0;happy_23.1ns.avi;happy;9.0;congruent;120.0;150.0;225.70986890587952;h_h;;;;;0;22;22;22;;;;;;;314.22155270003714;None;316.30446080002;316.62121110002045;317.8127662000479;317.8296936999541;322.3294636000646;None;9;0;0.5147699000081047;322.3294636000646;None;;;;;;;;8;;;;;;;323.87943830003496;None;None;None;[];323.87943830003496;None;"['9', '9', '9']";"[0.35684899997431785, 0.804449399933219, 1.388972599990666]";323.87943830003496;None;;;S12024;2023_Feb_15_1727;VideoMask;2021.1.2;120.00264013406623;
8.0;m;008_y_m_h_a.jpg;happy;9.0;sad_111.1.wmv;sad;7.0;incongruent;120.0;160.0;152.63076835312847;h_s;;;;;0;23;23;23;;;;;;;326.88776750001125;None;328.36250619997736;328.6791464999551;329.8126081000082;329.8292611000361;331.81250740005635;None;7;0;1.24784450000152;331.81250740005635;None;;;;;;;;3;;;;;;;333.3541452999925;None;None;None;[];333.3541452999925;None;"['7', '7']";"[0.35405209998134524, 0.8899572000373155]";333.3541452999925;None;;;S12024;2023_Feb_15_1727;VideoMask;2021.1.2;120.00264013406623;
0.0;f;040_y_f_s_a.jpg;sad;7.0;sad_67.2ns.avi;sad;7.0;congruent;130.0;160.0;220.9892697323079;s_s;;;;;0;24;24;24;;;;;;;336.3541861999547;None;338.4123428000603;338.7289310999913;339.9123012999771;339.92892229999416;349.1037023999961;None;7;0;0.316402499913238;349.1037023999961;None;;;;;;;;4;;;;;;;350.6619112000335;None;None;None;[];350.6619112000335;None;['7'];[0.7984215000178665];350.6619112000335;None;;;S12024;2023_Feb_15_1727;VideoMask;2021.1.2;120.00264013406623;
8.0;m;008_y_m_s_a.jpg;sad;7.0;happy_29.1ns.avi;happy;9.0;incongruent;130.0;150.0;120.0316142834122;s_h;;;;;0;25;25;25;;;;;;;353.67030160001013;None;354.8782994999783;355.19499960006215;356.3701005000621;356.38672920002136;359.02018230000976;None;8;0;0.7602347999345511;359.02018230000976;None;;;;;;;;6;;;;;;;360.5781178000616;None;None;None;[];360.5781178000616;None;['9'];[0.5063500000396743];360.5781178000616;None;;;S12024;2023_Feb_15_1727;VideoMask;2021.1.2;120.00264013406623;
6.0;m;016_y_m_s_a.jpg;sad;7.0;sad_8.3ns.avi;sad;7.0;congruent;130.0;160.0;152.85371098242734;s_s;;;;;0;26;26;26;;;;;;;363.5781604000367;None;365.069789399975;365.3863601000048;366.56943380006123;366.58668139996007;374.277857100009;None;7;0;0.6462695000227541;374.277857100009;None;;;;;;;;4;;;;;;;375.8276992000174;None;None;None;[];375.8276992000174;None;['7'];[0.6326473000226542];375.8276992000174;None;;;S12024;2023_Feb_15_1727;VideoMask;2021.1.2;120.00264013406623;
6.0;m;016_y_m_h_a.jpg;happy;9.0;sad_114.1.wmv;sad;7.0;incongruent;120.0;160.0;136.20550699298644;h_s;;;;;0;27;27;27;;;;;;;378.8277375999605;None;380.16913990001194;380.48586819996126;381.61101780005265;381.6275707000168;383.6192191999871;None;7;0;0.5369773000711575;383.6192191999871;None;;;;;;;;3;;;;;;;385.16913569997996;None;None;None;[];385.16913569997996;None;"['7', '7']";"[0.29111730004660785, 0.7470059000188485]";385.16913569997996;None;;;S12024;2023_Feb_15_1727;VideoMask;2021.1.2;120.00264013406623;
7.0;m;027_o_m_s_a.jpg;sad;7.0;happy_117.3.wmv;happy;9.0;incongruent;130.0;150.0;215.61964028550614;s_h;;;;;0;28;28;28;;;;;;;388.16904910001904;None;390.1771340999985;390.4938138000434;391.6189860999584;391.6356206999626;393.62715900002513;None;9;0;1.3930396999930963;393.62715900002513;None;;;;;;;;6;;;;;;;395.17716840002686;None;None;None;[];395.17716840002686;None;['9'];[0.9869384999619797];395.17716840002686;None;;;S12024;2023_Feb_15_1727;VideoMask;2021.1.2;120.00264013406623;
6.0;m;016_y_m_h_a.jpg;happy;9.0;happy_9.2ns.avi;happy;9.0;congruent;120.0;150.0;130.52042428082717;h_h;;;;;0;29;29;29;;;;;;;398.1855815000599;None;399.48521880002227;399.8020391999744;400.9686552999774;400.9852572999662;406.8602658000309;None;9;0;0.39961880003102124;406.8602658000309;None;;;;;;;;9;;;;;;;408.4100592000177;None;None;None;[];408.4100592000177;None;"['9', '9', '9', '9', '9']";"[0.2501590000465512, 0.5860521000577137, 0.9300122000277042, 1.4424602000508457, 2.106085699982941]";408.4100592000177;None;;;S12024;2023_Feb_15_1727;VideoMask;2021.1.2;120.00264013406623;
0.0;f;040_y_f_s_a.jpg;sad;7.0;happy_127.3.wmv;happy;9.0;incongruent;130.0;150.0;131.7195455720239;s_h;;;;;0;30;30;30;;;;;;;411.41827450005803;None;412.71814010001253;413.03481820004527;414.1599425000604;414.17650090006646;416.24375270004384;None;9;0;0.43239279999397695;416.24375270004384;None;;;;;;;;8;;;;;;;417.80977619998157;None;None;None;[];417.80977619998157;None;"['9', '9', '9']";"[0.3146667000837624, 0.7545109000056982, 1.4265167000703514]";417.80977619998157;None;;;S12024;2023_Feb_15_1727;VideoMask;2021.1.2;120.00264013406623;
0.0;f;030_o_f_s_a.jpg;sad;7.0;happy_125.3.wmv;happy;9.0;incongruent;130.0;150.0;220.51454909128134;s_h;;;;;0;31;31;31;;;;;;;420.8098418000154;None;422.8594906000653;423.17616979999;424.30956720001996;424.32598500000313;426.3094829999609;None;9;0;0.4946694999234751;426.3094829999609;None;;;;;;;;8;;;;;;;427.85944290005136;None;None;None;[];427.85944290005136;None;"['9', '9', '9']";"[0.48862909991294146, 1.017015799996443, 2.128824600018561]";427.85944290005136;None;;;S12024;2023_Feb_15_1727;VideoMask;2021.1.2;120.00264013406623;
0.0;f;030_o_f_s_a.jpg;sad;7.0;sad_64.3ns.avi;sad;7.0;congruent;130.0;160.0;165.78667874766072;s_s;;;;;0;32;32;32;;;;;;;430.8675927000586;None;432.4593012999976;432.7758894000435;433.90093850006815;433.91766260005534;438.9092099999543;None;7;0;0.4070920000085607;438.9092099999543;None;;;;;;;;3;;;;;;;440.45899459999055;None;None;None;[];440.45899459999055;None;"['7', '7', '7']";"[0.33716190000995994, 0.7692743000807241, 1.328964599990286]";440.45899459999055;None;;;S12024;2023_Feb_15_1727;VideoMask;2021.1.2;120.00264013406623;
3.0;m;013_y_m_s_a.jpg;sad;7.0;sad_7.7ns.avi;sad;7.0;congruent;130.0;160.0;196.24182255763262;s_s;;;;;0;33;33;33;;;;;;;443.459083499969;None;445.3003228000598;445.6170787999872;446.8169767999789;446.83443729998544;452.7592749999603;None;7;0;0.34880519995931536;452.7592749999603;None;;;;;;;;3;;;;;;;454.4835810000077;None;None;None;[];454.4835810000077;None;"['7', '7']";"[0.41666940005961806, 2.3206756999716163]";454.4835810000077;None;;;S12024;2023_Feb_15_1727;VideoMask;2021.1.2;120.00264013406623;
3.0;m;013_y_m_h_a.jpg;happy;9.0;happy_9.1ns.avi;happy;9.0;congruent;120.0;150.0;165.1890303600433;h_h;;;;;0;34;34;34;;;;;;;457.49200810003094;None;459.09163869998883;459.4083317000186;460.60008989996277;460.6168077000184;463.76662620005663;None;8;0;1.1656812999863178;463.76662620005663;None;;;;;;;;5;;;;;;;465.3164477000246;None;None;None;[];465.3164477000246;None;None;;465.3164477000246;None;;;S12024;2023_Feb_15_1727;VideoMask;2021.1.2;120.00264013406623;
4.0;m;004_o_m_h_a.jpg;happy;9.0;sad_95.1ns.avi;sad;7.0;incongruent;120.0;160.0;152.68270002069931;h_s;;;;;0;35;35;35;;;;;;;468.3330351000186;None;469.83294810005464;470.14969950006343;471.37469299999066;471.3913901000051;480.07473120000213;None;7;0;0.5135942000197247;480.07473120000213;None;;;;;;;;1;;;;;;;481.632689399994;None;None;None;[];481.632689399994;None;"['7', '7', '7', '7', '7']";"[0.25151129998266697, 0.5313486000522971, 0.779270000057295, 1.0675176000222564, 1.5716561999870464]";481.632689399994;None;;;S12024;2023_Feb_15_1727;VideoMask;2021.1.2;120.00264013406623;
3.0;m;013_y_m_h_a.jpg;happy;9.0;sad_113.2.wmv;sad;7.0;incongruent;120.0;160.0;217.4973891947951;h_s;;;;;0;36;36;36;;;;;;;484.6409223000519;None;486.6656636999687;486.98240860004444;488.1074882999528;488.1241133000003;490.1158089999808;None;None;0;;490.1158089999808;None;;;;;;;;4;;;;;;;491.66551249998156;None;None;None;[];491.66551249998156;None;"['7', '7']";"[0.3867840999737382, 1.0666996999643743]";491.66551249998156;None;;;S12024;2023_Feb_15_1727;VideoMask;2021.1.2;120.00264013406623;
4.0;m;004_o_m_h_a.jpg;happy;9.0;happy_25.1ns.avi;happy;9.0;congruent;120.0;150.0;216.63044503818386;h_h;;;;;0;37;37;37;;;;;;;494.6656255000271;None;496.6736649000086;496.99044610001147;498.11556800000835;498.13220960006583;501.81603590003215;None;9;0;0.3560495999408886;501.81603590003215;None;;;;;;;;8;;;;;;;503.3986575000454;None;None;None;[];503.3986575000454;None;"['9', '9', '9']";"[0.31756210001185536, 0.7255144999362528, 1.3015487999655306]";503.3986575000454;None;;;S12024;2023_Feb_15_1727;VideoMask;2021.1.2;120.00264013406623;
4.0;m;004_o_m_s_a.jpg;sad;7.0;happy_131.2.wmv;happy;9.0;incongruent;130.0;150.0;181.38407540847405;s_h;;;;;0;38;38;38;;;;;;;506.39857550000306;None;508.11496360006277;508.43183560005855;509.5648680999875;509.58185780001804;511.5734392000595;None;9;0;0.3667050999356434;511.5734392000595;None;;;;;;;;8;;;;;;;513.123325600056;None;None;None;[];513.123325600056;None;"['9', '9', '9']";"[0.328979599988088, 0.7929307000013068, 1.20087760000024]";513.123325600056;None;;;S12024;2023_Feb_15_1727;VideoMask;2021.1.2;120.00264013406623;
0.0;f;040_y_f_h_a.jpg;happy;9.0;happy_24.3ns.avi;happy;9.0;congruent;120.0;150.0;213.25460698950434;h_h;;;;;0;39;39;39;;;;;;;516.131585199968;None;518.0980243000668;518.414776199963;519.5985574000515;519.6150121999672;521.4731237000087;None;9;0;0.467224600026384;521.4731237000087;None;;;;;;;;7;;;;;;;523.0813627999742;None;None;None;[];523.0813627999742;None;"['9', '9']";"[0.27492250001523644, 0.7228973000310361]";523.0813627999742;None;;;S12024;2023_Feb_15_1727;VideoMask;2021.1.2;120.00264013406623;
2.0;f;012_o_f_s_a.jpg;sad;7.0;happy_139.1.wmv;happy;9.0;incongruent;130.0;150.0;162.31500468041804;s_h;;;;;0;40;40;40;;;;;;;526.0813925999682;None;527.6394393000519;527.9561396000208;529.0895403999602;529.1062369999709;531.0894007000607;None;9;0;0.4269467999693006;531.0894007000607;None;;;;;;;;9;;;;;;;532.6393977999687;None;None;None;[];532.6393977999687;None;"['9', '9', '9', '9']";"[0.052842100034467876, 0.4847480000462383, 0.8127197000430897, 2.164977200096473]";532.6393977999687;None;;;S12024;2023_Feb_15_1727;VideoMask;2021.1.2;120.00264013406623;
0.0;f;030_o_f_h_a.jpg;happy;9.0;happy_24.1ns.avi;happy;9.0;congruent;120.0;150.0;168.36256624020774;h_h;;;;;0;41;41;41;;;;;;;535.6477377000265;None;537.2473633000627;537.5641635999782;538.7731944000116;538.8058888000669;542.0225328999804;None;9;0;0.4538143998943269;542.0225328999804;None;;;;;;;;8;;;;;;;543.5723596999887;None;None;None;[];543.5723596999887;None;"['9', '9', '9']";"[0.18392280000261962, 0.6318117000628263, 1.2880111000267789]";543.5723596999887;None;;;S12024;2023_Feb_15_1727;VideoMask;2021.1.2;120.00264013406623;
2.0;f;012_o_f_h_a.jpg;happy;9.0;sad_113.1.wmv;sad;7.0;incongruent;120.0;160.0;177.44551734737394;h_s;;;;;0;42;42;42;;;;;;;546.5722629000666;None;548.255390400067;548.5721919999924;549.7054411000572;549.7222662999993;551.714491300052;None;7;0;0.30575050006154925;551.714491300052;None;;;;;;;;3;;;;;;;553.2970608000178;None;None;None;[];553.2970608000178;None;"['7', '7']";"[0.4670736000407487, 0.9230226000072435]";553.2970608000178;None;;;S12024;2023_Feb_15_1727;VideoMask;2021.1.2;120.00264013406623;
3.0;m;033_o_m_s_a.jpg;sad;7.0;sad_64.5ns.avi;sad;7.0;congruent;130.0;160.0;130.55717223801247;s_s;;;;;0;43;43;43;;;;;;;556.3052616000641;None;557.5967740999768;557.9135178000433;559.0885623999638;559.1052185000153;565.6300526000559;None;7;0;0.4221634999848902;565.6300526000559;None;;;;;;;;2;;;;;;;567.1799551000586;None;None;None;[];567.1799551000586;None;"['7', '7', '7', '7', '7', '7']";"[0.24813480000011623, 0.5442469000117853, 0.8562820999650285, 1.344055199995637, 1.9523415999719873, 2.4163466999307275]";567.1799551000586;None;;;S12024;2023_Feb_15_1727;VideoMask;2021.1.2;120.00264013406623;
7.0;m;027_o_m_h_a.jpg;happy;9.0;sad_117.1.wmv;sad;7.0;incongruent;120.0;160.0;181.28665202824095;h_s;;;;;0;44;44;44;;;;;;;570.188358400017;None;571.9132249000249;572.2297082999721;573.3631143000675;573.3798008000012;575.3630528000649;None;7;0;0.4731099000200629;575.3630528000649;None;;;;;;;;3;;;;;;;576.912967500044;None;None;None;[];576.912967500044;None;"['7', '7']";"[0.24345730000641197, 0.6512133999494836]";576.912967500044;None;;;S12024;2023_Feb_15_1727;VideoMask;2021.1.2;120.00264013406623;
3.0;m;033_o_m_s_a.jpg;sad;7.0;happy_126.3.wmv;happy;9.0;incongruent;130.0;150.0;198.85252030535366;s_h;;;;;0;45;45;45;;;;;;;579.9298201999627;None;581.7876536999829;582.1044977999991;583.2374946000054;583.2544810000109;585.2376669000369;None;9;0;0.4945331000490114;585.2376669000369;None;;;;;;;;7;;;;;;;586.7876196999568;None;None;None;[];586.7876196999568;None;"['9', '9', '9']";"[0.36858799995388836, 1.3127756000030786, 2.0246244999580085]";586.7876196999568;None;;;S12024;2023_Feb_15_1727;VideoMask;2021.1.2;120.00264013406623;
3.0;m;033_o_m_h_a.jpg;happy;9.0;sad_136.1.wmv;sad;7.0;incongruent;120.0;160.0;176.97002883463455;h_s;;;;;0;46;46;46;;;;;;;589.7876905000303;None;591.4623332000338;591.779195799958;592.9125605999725;592.9291047999868;594.9123977000127;None;7;0;0.40383339999243617;594.9123977000127;None;;;;;;;;1;;;;;;;596.8206806000089;None;None;None;[];596.8206806000089;None;"['7', '7', '7', '7', '7']";"[0.32769940001890063, 0.6235577999614179, 0.8474820000119507, 1.0872968999901786, 1.4076627000467852]";596.8206806000089;None;;;S12024;2023_Feb_15_1727;VideoMask;2021.1.2;120.00264013406623;
9.0;f;019_m_f_h_a.jpg;happy;9.0;happy_10.1ns.avi;happy;9.0;congruent;120.0;150.0;157.2463435658512;h_h;;;;;0;47;47;47;;;;;;;599.8288609000156;None;601.3537388000404;601.6705292999977;602.8788127000444;602.8954454000341;610.2458869999973;None;9;0;0.4063125998945907;610.2458869999973;None;;;;;;;;6;;;;;;;611.8034878000617;None;None;None;[];611.8034878000617;None;['9'];[0.2886379000265151];611.8034878000617;None;;;S12024;2023_Feb_15_1727;VideoMask;2021.1.2;120.00264013406623;
2.0;f;012_o_f_h_a.jpg;happy;9.0;happy_2.2ns.avi;happy;9.0;congruent;120.0;150.0;206.34800317295262;h_h;;;;;0;48;48;48;;;;;;;614.8118595000124;None;616.7700559999794;617.0866116000107;618.2200546000386;618.2365470000077;630.4198650000617;None;9;0;0.49641779996454716;630.4198650000617;None;;;;;;;;6;;;;;;;631.9862185000675;None;None;None;[];631.9862185000675;None;['9'];[0.4338818999240175];631.9862185000675;None;;;S12024;2023_Feb_15_1727;VideoMask;2021.1.2;120.00264013406623;
3.0;m;033_o_m_h_a.jpg;happy;9.0;happy_24.2ns.avi;happy;9.0;congruent;120.0;150.0;167.9423847659953;h_h;;;;;0;49;49;49;;;;;;;634.9860949000577;None;636.5944647999713;636.9110475999769;638.0443317999598;638.0613222999964;641.7692485000007;None;9;0;0.4028829000890255;641.7692485000007;None;;;;;;;;7;;;;;;;643.3191733000567;None;None;None;[];643.3191733000567;None;"['9', '9']";"[0.33317629992961884, 0.8530427999794483]";643.3191733000567;None;;;S12024;2023_Feb_15_1727;VideoMask;2021.1.2;120.00264013406623;
1.0;f;021_o_f_s_a.jpg;sad;7.0;happy_61.2ns.avi;happy;9.0;incongruent;130.0;150.0;210.94664004826666;s_h;;;;;0;50;50;50;;;;;;;646.327379400027;None;648.2857151000062;648.6023643000517;649.8272434000392;649.8439601999708;654.2605751999654;None;9;0;0.3435747999465093;654.2605751999654;None;;;;;;;;9;;;;;;;655.8105158000253;None;None;None;[];655.8105158000253;None;"['9', '9', '9', '9', '9']";"[0.2979459000052884, 0.6414500999962911, 0.99352799996268, 1.3774822000414133, 2.2977278999751434]";655.8105158000253;None;;;S12024;2023_Feb_15_1727;VideoMask;2021.1.2;120.00264013406623;
4.0;m;004_o_m_s_a.jpg;sad;7.0;sad_2.4ns.avi;sad;7.0;congruent;130.0;160.0;153.02079367163634;s_s;;;;;0;51;51;51;;;;;;;658.8104076000163;None;660.3103190000402;660.6268486999907;661.8103269999847;661.8269183000084;669.7184237999609;None;7;0;0.39002729998901486;669.7184237999609;None;;;;;;;;2;;;;;;;671.2765183000593;None;None;None;[];671.2765183000593;None;"['7', '7', '7']";"[0.25571870000567287, 0.6079330999637023, 1.5038198999827728]";671.2765183000593;None;;;S12024;2023_Feb_15_1727;VideoMask;2021.1.2;120.00264013406623;
8.0;m;008_y_m_h_a.jpg;happy;9.0;happy_1.2ns.avi;happy;9.0;congruent;120.0;150.0;210.98946429383824;h_h;;;;;0;52;52;52;;;;;;;674.284826099989;None;676.2764574000612;676.5930491000181;677.751443300047;677.7680586000206;690.534357800032;None;9;0;0.4939017000142485;690.534357800032;None;;;;;;;;6;;;;;;;692.0842578000156;None;None;None;[];692.0842578000156;None;['9'];[0.4162355000153184];692.0842578000156;None;;;S12024;2023_Feb_15_1727;VideoMask;2021.1.2;120.00264013406623;
2.0;f;012_o_f_s_a.jpg;sad;7.0;happy_52.2ns.avi;happy;9.0;incongruent;130.0;150.0;172.57202848318138;s_h;;;;;0;53;53;53;;;;;;;695.0841608999763;None;696.7174154999666;697.0340141999768;698.2264014000539;698.2429686000105;701.7174490999896;None;9;0;0.4388636000221595;701.7174490999896;None;;;;;;;;7;;;;;;;703.2672800000291;None;None;None;[];703.2672800000291;None;"['9', '9']";"[0.3211072999984026, 1.0327786999987438]";703.2672800000291;None;;;S12024;2023_Feb_15_1727;VideoMask;2021.1.2;120.00264013406623;
9.0;f;019_m_f_s_a.jpg;sad;7.0;happy_61.1ns.avi;happy;9.0;incongruent;130.0;150.0;181.3003220572762;s_h;;;;;0;54;54;54;;;;;;;706.2671076999977;None;708.0002401999664;708.3170168000506;709.5587239000015;709.5753674999578;716.8418155000545;None;9;0;0.35448079998604953;716.8418155000545;None;;;;;;;;7;;;;;;;718.3917398999911;None;None;None;[];718.3917398999911;None;"['9', '9']";"[0.32457300007808954, 0.7965312000596896]";718.3917398999911;None;;;S12024;2023_Feb_15_1727;VideoMask;2021.1.2;120.00264013406623;
0.0;f;030_o_f_h_a.jpg;happy;9.0;sad_133.1.wmv;sad;7.0;incongruent;120.0;160.0;198.86251500867985;h_s;;;;;0;55;55;55;;;;;;;721.4000625000335;None;723.2664639999857;723.5831679999828;724.7165242000483;724.7331691000145;726.7164858999895;None;7;0;0.41570249991491437;726.7164858999895;None;;;;;;;;3;;;;;;;728.2664807999972;None;None;None;[];728.2664807999972;None;"['7', '7']";"[0.2657801000168547, 0.6496561999665573]";728.2664807999972;None;;;S12024;2023_Feb_15_1727;VideoMask;2021.1.2;120.00264013406623;
0.0;f;040_y_f_h_a.jpg;happy;9.0;sad_128.2.wmv;sad;7.0;incongruent;120.0;160.0;206.10005857915363;h_s;;;;;0;56;56;56;;;;;;;731.2747147000628;None;733.2078088000417;733.5244736999739;734.6576475000475;734.6745436000638;736.6577756999759;None;7;0;0.2984485999913886;736.6577756999759;None;;;;;;;;3;;;;;;;738.207775900024;None;None;None;[];738.207775900024;None;"['7', '7']";"[0.31624970003031194, 0.7005436000181362]";738.207775900024;None;;;S12024;2023_Feb_15_1727;VideoMask;2021.1.2;120.00264013406623;
1.0;f;021_o_f_s_a.jpg;sad;7.0;sad_9.5ns.avi;sad;7.0;congruent;130.0;160.0;206.16642757875042;s_s;;;;;0;57;57;57;;;;;;;741.2077622000361;None;743.1324784000171;743.449140700046;744.5906449999893;744.6075656999601;750.3076366999885;None;7;0;0.368550100014545;750.3076366999885;None;;;;;;;;2;;;;;;;751.8573544999817;None;None;None;[];751.8573544999817;None;"['7', '7', '7']";"[0.2989852000027895, 0.7468859000364318, 1.554991599987261]";751.8573544999817;None;;;S12024;2023_Feb_15_1727;VideoMask;2021.1.2;120.00264013406623;
1.0;f;021_o_f_h_a.jpg;happy;9.0;happy_12.1ns.avi;happy;9.0;congruent;120.0;150.0;132.59080005900228;h_h;;;;;0;58;58;58;;;;;;;754.8657388000283;None;756.1903920000186;756.5072915999917;757.6488897000672;757.6654620000627;765.2569845999824;None;9;0;0.3712785999523476;765.2569845999824;None;;;;;;;;6;;;;;;;766.8068374999566;None;None;None;[];766.8068374999566;None;['9'];[0.3573143999092281];766.8068374999566;None;;;S12024;2023_Feb_15_1727;VideoMask;2021.1.2;120.00264013406623;
3.0;m;013_y_m_s_a.jpg;sad;7.0;happy_56.2ns.avi;happy;9.0;incongruent;130.0;150.0;163.39234110935848;s_h;;;;;0;59;59;59;;;;;;;769.8152405000292;None;771.3816596000688;771.6983502999647;772.8315635999897;772.8481497999746;777.856471200008;None;8;0;0.5156043000752106;777.856471200008;None;;;;;;;;5;;;;;;;779.406494099996;None;None;None;[];779.406494099996;None;None;;779.406494099996;None;;;S12024;2023_Feb_15_1727;VideoMask;2021.1.2;120.00264013406623;
;;;;;;;;;;;;;;;;;;;;;;;;;;;;;;;;;;;;;;;;;;;;;;;;;;;;;;;;;;;;;;;;;782.4228520999895;None;;;;;;
