primePerson;primeGender;prime;primeEmotion;corrAnsPrime;target;targetEmotion;corrAnsTar;Cond;ID_Primer;ID_Target;JitterTime;Condition;example.thisRepN;example.thisTrialN;example.thisN;example.thisIndex;study.thisRepN;study.thisTrialN;study.thisN;study.thisIndex;MR_trigger_time;MR_trigger_number;text_intro.started;text_intro.stopped;text_probe.started;text_probe.stopped;polygon_ISI.started;polygon_ISI.stopped;polygon.started;polygon.stopped;primerImage.started;primerImage.stopped;response.started;response.stopped;key_resp.keys;key_resp.corr;key_resp.started;key_resp.stopped;slider_Text.started;slider_Text.stopped;slider_ex.response;slider_ex.rt;slider_ex.history;slider_ex.started;slider_ex.stopped;Rating;slider_resp_response.keys;slider_resp_response.rt;slider_resp_response.started;slider_resp_response.stopped;text_start.started;text_start.stopped;key_resp.rt;text_slider.started;text_slider.stopped;slider_stud.response;slider_stud.rt;slider_stud.history;slider_stud.started;slider_stud.stopped;slider_resp_study.keys;slider_resp_study.rt;slider_resp_study.started;slider_resp_study.stopped;text_ende.started;text_ende.stopped;participant;date;expName;psychopyVersion;frameRate;
1111;m;1111_m_m_h_a.jpg;happy;9;example_30.4ns.avi;neutral;7;incongruent;120.0;170.0;189.5874364012288;;0;0;0;0;;;;;20.978201500023715;1;21.05621870001778;23.314708899939433;23.314708899939433;None;25.081963500007987;None;27.314695399953052;27.631152000045404;28.76450869999826;28.78121619997546;33.10588469996583;None;None;0;33.10588469996583;None;34.73912579996977;None;None;None;[];34.73912579996977;None;5;"['9', '9']";"[2.1104590999893844, 2.918691399972886]";34.73912579996977;None;;;;;;;;;;;;;;;;;S12018;2023_Feb_13_1658;VideoMask;2021.1.2;118.93915781670324;
1113;f;1113_y_f_s_a.jpg;sad;7;example_30.3ns.avi;neutral;7;incongruent;130.0;170.0;229.02432995836998;;0;1;1;1;;;;;;;;;;;37.74752199999057;None;39.86409149994142;40.18071039998904;41.31410349998623;41.33061910001561;43.31399509997573;None;None;0;43.31399509997573;None;45.28909680002835;None;None;None;[];45.28909680002835;None;5;['9'];[1.3530911001143977];45.28909680002835;None;;;;;;;;;;;;;;;;;S12018;2023_Feb_13_1658;VideoMask;2021.1.2;118.93915781670324;
9.0;f;019_m_f_h_a.jpg;happy;9.0;sad_115.1.wmv;sad;7.0;incongruent;120.0;160.0;128.09063432376465;h_s;;;;;0;0;0;0;;;;;;;49.322234499966726;None;50.60539829998743;50.92217189993244;52.0557594000129;52.08037079998758;54.055442700046115;None;7;0;54.055442700046115;None;;;;;;;;5;;;;;48.297323500039056;None;0.6742624000180513;55.73024019994773;None;None;None;[];55.73024019994773;None;['7'];[1.7280360999284312];55.73024019994773;None;;;S12018;2023_Feb_13_1658;VideoMask;2021.1.2;118.93915781670324;
3.0;m;033_o_m_s_a.jpg;sad;7.0;sad_94.2ns.avi;sad;7.0;congruent;130.0;160.0;182.29120173647655;s_s;;;;;0;1;1;1;;;;;;;58.73833520000335;None;60.45501819998026;60.77172229997814;61.92180919996463;61.938225099933334;64.5966621999396;None;7;0;64.5966621999396;None;;;;;;;;4;;;;;;;0.5568696000846103;66.17992030002642;None;None;None;[];66.17992030002642;None;['7'];[2.8783845000434667];66.17992030002642;None;;;S12018;2023_Feb_13_1658;VideoMask;2021.1.2;118.93915781670324;
8.0;m;008_y_m_h_a.jpg;happy;9.0;happy_26.1ns.avi;happy;9.0;congruent;120.0;150.0;155.9437854594882;h_h;;;;;0;2;2;2;;;;;;;69.18823450000491;None;70.67965940001886;70.99628309998661;72.15489250002429;72.17144609999377;74.12144060002174;None;9;0;74.12144060002174;None;;;;;;;;5;;;;;;;0.6081282000523061;75.67138670000713;None;None;None;[];75.67138670000713;None;None;;75.67138670000713;None;;;S12018;2023_Feb_13_1658;VideoMask;2021.1.2;118.93915781670324;
0.0;f;040_y_f_h_a.jpg;happy;9.0;sad_138.1.wmv;sad;7.0;incongruent;120.0;160.0;133.99071306426532;h_s;;;;;0;3;3;3;;;;;;;78.69631020002998;None;80.0377416999545;80.36360629997216;81.52105119999032;81.53761899995152;83.49678749998566;None;7;0;83.49678749998566;None;;;;;;;;5;;;;;;;1.5931146000511944;85.78768499998841;None;None;None;[];85.78768499998841;None;None;;85.78768499998841;None;;;S12018;2023_Feb_13_1658;VideoMask;2021.1.2;118.93915781670324;
8.0;f;028_y_f_s_a.jpg;sad;7.0;sad_64.2ns.avi;sad;7.0;congruent;130.0;160.0;229.88540597086478;s_s;;;;;0;4;4;4;;;;;;;88.8041429000441;None;90.95408699999098;91.27073230000678;92.4374894000357;92.45409579994157;103.41216970002279;None;7;0;103.41216970002279;None;;;;;;;;3;;;;;;;0.5977328999433666;104.96206589997746;None;None;None;[];104.96206589997746;None;"['7', '7']";"[0.8639151999959722, 1.9120553000830114]";104.96206589997746;None;;;S12018;2023_Feb_13_1658;VideoMask;2021.1.2;118.93915781670324;
7.0;m;027_o_m_s_a.jpg;sad;7.0;sad_10.4ns.avi;sad;7.0;congruent;130.0;160.0;185.20129417468752;s_s;;;;;0;5;5;5;;;;;;;107.97040949994698;None;109.71181659994181;110.02852539997548;111.21187090000603;111.22852969996165;114.34515599999577;None;None;0;114.34515599999577;None;;;;;;;;5;;;;;;;;115.89498929993715;None;None;None;[];115.89498929993715;None;None;;115.89498929993715;None;;;S12018;2023_Feb_13_1658;VideoMask;2021.1.2;118.93915781670324;
2.0;f;012_o_f_s_a.jpg;sad;7.0;sad_7.5ns.avi;sad;7.0;congruent;130.0;160.0;220.27842655424388;s_s;;;;;0;6;6;6;;;;;;;118.92829419998452;None;120.95300069998484;121.2699522000039;122.41193980001844;122.43648919998668;125.19491870002821;None;7;0;125.19491870002821;None;;;;;;;;2;;;;;;;0.43117920006625354;126.75304820004385;None;None;None;[];126.75304820004385;None;"['7', '7', '7']";"[0.5290435999631882, 0.8730598000111058, 1.7368907999480143]";126.75304820004385;None;;;S12018;2023_Feb_13_1658;VideoMask;2021.1.2;118.93915781670324;
2.0;f;012_o_f_h_a.jpg;happy;9.0;happy_27.1ns.avi;happy;9.0;congruent;120.0;150.0;146.44967055810616;h_h;;;;;0;7;7;7;;;;;;;129.76132149994373;None;131.16111580003053;131.47775119997095;132.63693809998222;132.6611670999555;135.102766099968;None;9;0;135.102766099968;None;;;;;;;;6;;;;;;;0.4991354000521824;136.65268930001184;None;None;None;[];136.65268930001184;None;['9'];[0.7092276000184938];136.65268930001184;None;;;S12018;2023_Feb_13_1658;VideoMask;2021.1.2;118.93915781670324;
8.0;f;028_y_f_h_a.jpg;happy;9.0;sad_119.1.wmv;sad;7.0;incongruent;120.0;160.0;148.71526953572538;h_s;;;;;0;8;8;8;;;;;;;139.65262950002216;None;141.0940981999738;141.41080369998235;142.5446359999478;142.5692124000052;144.61080509994645;None;7;0;144.61080509994645;None;;;;;;;;4;;;;;;;0.7112798999296501;146.16076630004682;None;None;None;[];146.16076630004682;None;['7'];[1.281173000112176];146.16076630004682;None;;;S12018;2023_Feb_13_1658;VideoMask;2021.1.2;118.93915781670324;
6.0;m;016_y_m_s_a.jpg;sad;7.0;happy_60.4ns.avi;happy;9.0;incongruent;130.0;150.0;126.02367393611817;s_h;;;;;0;9;9;9;;;;;;;149.16065079998225;None;150.42723699996714;150.7438844999997;151.9106446999358;151.92714030004572;157.6686091000447;None;9;0;157.6686091000447;None;;;;;;;;7;;;;;;;0.5493102000327781;159.21855969994795;None;None;None;[];159.21855969994795;None;"['9', '9']";"[0.3752684999490157, 0.7435585999628529]";159.21855969994795;None;;;S12018;2023_Feb_13_1658;VideoMask;2021.1.2;118.93915781670324;
9.0;f;019_m_f_s_a.jpg;sad;7.0;sad_8.4ns.avi;sad;7.0;congruent;130.0;160.0;171.6633093155257;s_s;;;;;0;10;10;10;;;;;;;162.21868519997224;None;163.8768345999997;164.19339929998387;165.35160109994467;165.36829190002754;173.46839179995004;None;None;0;173.46839179995004;None;;;;;;;;5;;;;;;;;175.02649810002185;None;None;None;[];175.02649810002185;None;None;;175.02649810002185;None;;;S12018;2023_Feb_13_1658;VideoMask;2021.1.2;118.93915781670324;
4.0;m;004_o_m_h_a.jpg;happy;9.0;happy_1.1ns.avi;happy;9.0;congruent;120.0;150.0;203.50057144619865;h_h;;;;;0;11;11;11;;;;;;;178.04285279999021;None;180.01777249993756;180.34310439997353;181.48465170001145;181.5012722000247;195.95083410001826;None;8;0;195.95083410001826;None;;;;;;;;5;;;;;;;0.9150954999495298;197.50084300001618;None;None;None;[];197.50084300001618;None;None;;197.50084300001618;None;;;S12018;2023_Feb_13_1658;VideoMask;2021.1.2;118.93915781670324;
7.0;m;027_o_m_h_a.jpg;happy;9.0;happy_20.1ns.avi;happy;9.0;congruent;120.0;150.0;152.91127178874285;h_h;;;;;0;12;12;12;;;;;;;200.53408989997115;None;202.02543070004322;202.34222140000202;203.48393999994732;203.5005572999362;206.49216050002724;None;9;0;206.49216050002724;None;;;;;;;;6;;;;;;;0.6055493999738246;208.03375409997534;None;None;None;[];208.03375409997534;None;['9'];[1.2403800000902265];208.03375409997534;None;;;S12018;2023_Feb_13_1658;VideoMask;2021.1.2;118.93915781670324;
0.0;f;040_y_f_s_a.jpg;sad;7.0;sad_94.3ns.avi;sad;7.0;congruent;130.0;160.0;155.27414203894395;s_s;;;;;0;13;13;13;;;;;;;211.0336894999491;None;212.52513640001416;212.84186059993226;214.06658260000404;214.08351649995893;216.6003363999771;None;7;0;216.6003363999771;None;;;;;;;;5;;;;;;;0.9616526999743655;218.15002299996559;None;None;None;[];218.15002299996559;None;None;;218.15002299996559;None;;;S12018;2023_Feb_13_1658;VideoMask;2021.1.2;118.93915781670324;
0.0;f;030_o_f_s_a.jpg;sad;7.0;sad_68.1ns.avi;sad;7.0;congruent;130.0;160.0;158.9411396037211;s_s;;;;;0;14;14;14;;;;;;;221.17499750002753;None;222.71658140001819;223.0331725999713;224.20863450004254;224.23325479996856;231.59140419994947;None;None;0;231.59140419994947;None;;;;;;;;5;;;;;;;;233.14944479998667;None;None;None;[];233.14944479998667;None;None;;233.14944479998667;None;;;S12018;2023_Feb_13_1658;VideoMask;2021.1.2;118.93915781670324;
0.0;f;030_o_f_h_a.jpg;happy;9.0;sad_127.1.wmv;sad;7.0;incongruent;120.0;160.0;180.59976631384873;h_s;;;;;0;15;15;15;;;;;;;236.1828887000447;None;237.89946909993887;238.21604169998318;239.3495578999864;239.3661340000108;241.34930240001995;None;7;0;241.34930240001995;None;;;;;;;;3;;;;;;;1.0931088000070304;242.98263760004193;None;None;None;[];242.98263760004193;None;"['7', '7']";"[0.8913090999703854, 1.2913839999819174]";242.98263760004193;None;;;S12018;2023_Feb_13_1658;VideoMask;2021.1.2;118.93915781670324;
8.0;m;008_y_m_s_a.jpg;sad;7.0;happy_133.3.wmv;happy;9.0;incongruent;130.0;150.0;152.577966552593;s_h;;;;;0;16;16;16;;;;;;;245.99099620000925;None;247.47405349998735;247.79072749998886;248.92412089998834;248.94084589998238;250.92409520002548;None;9;0;250.92409520002548;None;;;;;;;;7;;;;;;;0.4376086000120267;252.47399269999005;None;None;None;[];252.47399269999005;None;"['9', '9', '9']";"[0.35203539999201894, 0.7517014000331983, 1.216223799972795]";252.47399269999005;None;;;S12018;2023_Feb_13_1658;VideoMask;2021.1.2;118.93915781670324;
3.0;m;033_o_m_h_a.jpg;happy;9.0;sad_128.1.wmv;sad;7.0;incongruent;120.0;160.0;171.0492454518585;h_s;;;;;0;17;17;17;;;;;;;255.48244769999292;None;257.12371049996;257.44039480003994;258.5904855999397;258.6069121999899;260.57372270000633;None;7;0;260.57372270000633;None;;;;;;;;4;;;;;;;0.6281811000080779;262.1236956999637;None;None;None;[];262.1236956999637;None;['7'];[0.5742364000761881];262.1236956999637;None;;;S12018;2023_Feb_13_1658;VideoMask;2021.1.2;118.93915781670324;
1.0;f;021_o_f_h_a.jpg;happy;9.0;sad_116.1.wmv;sad;7.0;incongruent;120.0;160.0;184.06847610053055;h_s;;;;;0;18;18;18;;;;;;;265.12356910004746;None;266.8734282000223;267.1901226999471;268.32384550001007;268.34022110002115;270.32360799994785;None;7;0;270.32360799994785;None;;;;;;;;4;;;;;;;0.7181676999898627;271.8733480999945;None;None;None;[];271.8733480999945;None;['7'];[0.7846425999887288];271.8733480999945;None;;;S12018;2023_Feb_13_1658;VideoMask;2021.1.2;118.93915781670324;
4.0;m;004_o_m_s_a.jpg;sad;7.0;happy_28.1ns.avi;happy;9.0;incongruent;130.0;150.0;157.40741103039684;s_h;;;;;0;19;19;19;;;;;;;274.8816020999802;None;276.3982685999945;276.7149183000438;277.8897367999889;277.9062939999858;282.2566600999562;None;9;0;282.2566600999562;None;;;;;;;;8;;;;;;;0.5452270000241697;283.8146641999483;None;None;None;[];283.8146641999483;None;"['9', '9', '9']";"[0.6830450999550521, 0.9951824999880046, 1.3150378999998793]";283.8146641999483;None;;;S12018;2023_Feb_13_1658;VideoMask;2021.1.2;118.93915781670324;
8.0;f;028_y_f_s_a.jpg;sad;7.0;happy_122.3.wmv;happy;9.0;incongruent;130.0;150.0;171.8670540936116;s_h;;;;;0;20;20;20;;;;;;;286.814578599995;None;288.45609989995137;288.7728114000056;289.9065612000413;289.93117610004265;291.90606149996165;None;9;0;291.90606149996165;None;;;;;;;;7;;;;;;;0.7919648999813944;293.45601540000644;None;None;None;[];293.45601540000644;None;"['9', '9']";"[0.46593700000084937, 0.8260049000382423]";293.45601540000644;None;;;S12018;2023_Feb_13_1658;VideoMask;2021.1.2;118.93915781670324;
8.0;m;008_y_m_s_a.jpg;sad;7.0;sad_6.5ns.avi;sad;7.0;congruent;130.0;160.0;170.39333839271438;s_s;;;;;0;21;21;21;;;;;;;296.4642898000311;None;298.0973827999551;298.4142356000375;299.5891542000463;299.60569679993205;304.5475396999391;None;7;0;304.5475396999391;None;;;;;;;;3;;;;;;;0.5501974999206141;306.0972926999675;None;None;None;[];306.0972926999675;None;"['7', '7']";"[0.8404949000105262, 1.504552600090392]";306.0972926999675;None;;;S12018;2023_Feb_13_1658;VideoMask;2021.1.2;118.93915781670324;
8.0;f;028_y_f_h_a.jpg;happy;9.0;happy_23.1ns.avi;happy;9.0;congruent;120.0;150.0;225.70986890587952;h_h;;;;;0;22;22;22;;;;;;;309.1056322000222;None;311.1804867000319;311.4970555000473;312.63028799998574;312.64707720000297;317.20524619997013;None;9;0;317.20524619997013;None;;;;;;;;8;;;;;;;0.7566547999158502;318.75520649994723;None;None;None;[];318.75520649994723;None;"['9', '9', '9']";"[0.6545152999460697, 1.0147763999411836, 1.3346051999833435]";318.75520649994723;None;;;S12018;2023_Feb_13_1658;VideoMask;2021.1.2;118.93915781670324;
8.0;m;008_y_m_h_a.jpg;happy;9.0;sad_111.1.wmv;sad;7.0;incongruent;120.0;160.0;152.63076835312847;h_s;;;;;0;23;23;23;;;;;;;321.76363219995983;None;323.2383213000139;323.56417479994707;324.69637549994513;324.7133719000267;326.6883071999764;None;7;0;326.6883071999764;None;;;;;;;;4;;;;;;;0.6337578999809921;328.23825109994505;None;None;None;[];328.23825109994505;None;['7'];[0.9157677999464795];328.23825109994505;None;;;S12018;2023_Feb_13_1658;VideoMask;2021.1.2;118.93915781670324;
0.0;f;040_y_f_s_a.jpg;sad;7.0;sad_67.2ns.avi;sad;7.0;congruent;130.0;160.0;220.9892697323079;s_s;;;;;0;24;24;24;;;;;;;331.2382019000361;None;333.29623119998723;333.61300479993224;334.7463589999825;334.76302159996703;343.97986680001486;None;7;0;343.97986680001486;None;;;;;;;;3;;;;;;;0.6379993000300601;345.6291269999929;None;None;None;[];345.6291269999929;None;"['7', '7']";"[0.4771586999995634, 0.75649100006558]";345.6291269999929;None;;;S12018;2023_Feb_13_1658;VideoMask;2021.1.2;118.93915781670324;
8.0;m;008_y_m_s_a.jpg;sad;7.0;happy_29.1ns.avi;happy;9.0;incongruent;130.0;150.0;120.0316142834122;s_h;;;;;0;25;25;25;;;;;;;348.6377397000324;None;349.8373347000452;350.15407009993214;351.32081710000057;351.33749930001795;353.9791821000399;None;9;0;353.9791821000399;None;;;;;;;;6;;;;;;;0.6627658999059349;355.5290442999685;None;None;None;[];355.5290442999685;None;['9'];[0.7128444000845775];355.5290442999685;None;;;S12018;2023_Feb_13_1658;VideoMask;2021.1.2;118.93915781670324;
6.0;m;016_y_m_s_a.jpg;sad;7.0;sad_8.3ns.avi;sad;7.0;congruent;130.0;160.0;152.85371098242734;s_s;;;;;0;26;26;26;;;;;;;358.53736770001706;None;360.02880209998693;360.345455499948;361.47871259995736;361.4955594999483;369.23685300000943;None;8;0;369.23685300000943;None;;;;;;;;5;;;;;;;0.7248759999638423;370.7868312000064;None;None;None;[];370.7868312000064;None;None;;370.7868312000064;None;;;S12018;2023_Feb_13_1658;VideoMask;2021.1.2;118.93915781670324;
6.0;m;016_y_m_h_a.jpg;happy;9.0;sad_114.1.wmv;sad;7.0;incongruent;120.0;160.0;136.20550699298644;h_s;;;;;0;27;27;27;;;;;;;373.8032045;None;375.15325590001885;375.46996589994524;376.59487040003296;376.6116664999863;378.6032618000172;None;None;0;378.6032618000172;None;;;;;;;;5;;;;;;;;380.15338369994424;None;None;None;[];380.15338369994424;None;None;;380.15338369994424;None;;;S12018;2023_Feb_13_1658;VideoMask;2021.1.2;118.93915781670324;
7.0;m;027_o_m_s_a.jpg;sad;7.0;happy_117.3.wmv;happy;9.0;incongruent;130.0;150.0;215.61964028550614;s_h;;;;;0;28;28;28;;;;;;;383.17810469993856;None;385.1694248999702;385.4863899999764;386.6363680999493;386.6530619999394;388.61964319995604;None;9;0;388.61964319995604;None;;;;;;;;6;;;;;;;0.5902971999021247;390.16959419997875;None;None;None;[];390.16959419997875;None;['9'];[1.5043188999406993];390.16959419997875;None;;;S12018;2023_Feb_13_1658;VideoMask;2021.1.2;118.93915781670324;
6.0;m;016_y_m_h_a.jpg;happy;9.0;happy_9.2ns.avi;happy;9.0;congruent;120.0;150.0;130.52042428082717;h_h;;;;;0;29;29;29;;;;;;;393.1776970999781;None;394.46921020001173;394.78615689999424;395.93615159997717;395.9527533999644;401.8441902999766;None;9;0;401.8441902999766;None;;;;;;;;7;;;;;;;0.9498183000832796;403.3941651999485;None;None;None;[];403.3941651999485;None;"['9', '9']";"[0.599723199964501, 0.9755780999548733]";403.3941651999485;None;;;S12018;2023_Feb_13_1658;VideoMask;2021.1.2;118.93915781670324;
0.0;f;040_y_f_s_a.jpg;sad;7.0;happy_127.3.wmv;happy;9.0;incongruent;130.0;150.0;131.7195455720239;s_h;;;;;0;30;30;30;;;;;;;406.3941778000444;None;407.69394170003943;408.01057919999585;409.1357114999555;409.1523299999535;411.22728009999264;None;9;0;411.22728009999264;None;;;;;;;;8;;;;;;;0.718667000066489;412.7772083999589;None;None;None;[];412.7772083999589;None;"['9', '9', '9']";"[0.5448192999465391, 0.8888011999661103, 1.1930423999438062]";412.7772083999589;None;;;S12018;2023_Feb_13_1658;VideoMask;2021.1.2;118.93915781670324;
0.0;f;030_o_f_s_a.jpg;sad;7.0;happy_125.3.wmv;happy;9.0;incongruent;130.0;150.0;220.51454909128134;s_h;;;;;0;31;31;31;;;;;;;415.77714699995704;None;417.8269723999547;418.1436939999694;419.27760210004635;419.3020451000193;421.27696429996286;None;9;0;421.27696429996286;None;;;;;;;;5;;;;;;;1.0449694999260828;422.8268853999907;None;None;None;[];422.8268853999907;None;None;;422.8268853999907;None;;;S12018;2023_Feb_13_1658;VideoMask;2021.1.2;118.93915781670324;
0.0;f;030_o_f_s_a.jpg;sad;7.0;sad_64.3ns.avi;sad;7.0;congruent;130.0;160.0;165.78667874766072;s_s;;;;;0;32;32;32;;;;;;;425.85166639997624;None;427.43488539999817;427.7516558000352;428.93505329999607;428.95168479997665;433.8850253999699;None;7;0;433.8850253999699;None;;;;;;;;2;;;;;;;0.9089657000731677;435.434807099984;None;None;None;[];435.434807099984;None;"['7', '7', '7']";"[0.6312772000674158, 0.9033586999867111, 1.4548992000054568]";435.434807099984;None;;;S12018;2023_Feb_13_1658;VideoMask;2021.1.2;118.93915781670324;
3.0;m;013_y_m_s_a.jpg;sad;7.0;sad_7.7ns.avi;sad;7.0;congruent;130.0;160.0;196.24182255763262;s_s;;;;;0;33;33;33;;;;;;;438.4430871999357;None;440.29289080004673;440.6098251999356;441.80941019998863;441.8263161999639;447.75112499995157;None;7;0;447.75112499995157;None;;;;;;;;4;;;;;;;1.2507288999622688;449.30105310003273;None;None;None;[];449.30105310003273;None;['7'];[2.6852753999410197];449.30105310003273;None;;;S12018;2023_Feb_13_1658;VideoMask;2021.1.2;118.93915781670324;
3.0;m;013_y_m_h_a.jpg;happy;9.0;happy_9.1ns.avi;happy;9.0;congruent;120.0;150.0;165.1890303600433;h_h;;;;;0;34;34;34;;;;;;;452.3010143999709;None;453.884122199961;454.20081289997324;455.3842615999747;455.4008966999827;458.5591155999573;None;9;0;458.5591155999573;None;;;;;;;;8;;;;;;;0.49053459998685867;460.108943499974;None;None;None;[];460.108943499974;None;"['9', '9', '9']";"[0.4930727999890223, 0.860768000013195, 1.1652003000490367]";460.108943499974;None;;;S12018;2023_Feb_13_1658;VideoMask;2021.1.2;118.93915781670324;
4.0;m;004_o_m_h_a.jpg;happy;9.0;sad_95.1ns.avi;sad;7.0;incongruent;120.0;160.0;152.68270002069931;h_s;;;;;0;35;35;35;;;;;;;463.1089273999678;None;464.60873580002226;464.92547999997623;466.08386629994493;466.10040889994707;474.8503221999854;None;7;0;474.8503221999854;None;;;;;;;;1;;;;;;;0.5437448999146;476.4086032999912;None;None;None;[];476.4086032999912;None;"['7', '7', '7', '7', '7']";"[0.3454526000423357, 0.6011238000355661, 0.8410534000722691, 1.1775169000029564, 1.5054884999990463]";476.4086032999912;None;;;S12018;2023_Feb_13_1658;VideoMask;2021.1.2;118.93915781670324;
3.0;m;013_y_m_h_a.jpg;happy;9.0;sad_113.2.wmv;sad;7.0;incongruent;120.0;160.0;217.4973891947951;h_s;;;;;0;36;36;36;;;;;;;479.4084475999698;None;481.43321199994534;481.74983330001123;482.8750202000374;482.8916171999881;484.89154949993826;None;7;0;484.89154949993826;None;;;;;;;;3;;;;;;;0.4143940999638289;486.82475749996956;None;None;None;[];486.82475749996956;None;"['7', '7']";"[0.7932822000002488, 1.144947100081481]";486.82475749996956;None;;;S12018;2023_Feb_13_1658;VideoMask;2021.1.2;118.93915781670324;
4.0;m;004_o_m_h_a.jpg;happy;9.0;happy_25.1ns.avi;happy;9.0;congruent;120.0;150.0;216.63044503818386;h_h;;;;;0;37;37;37;;;;;;;489.83317210001405;None;491.8412143000169;492.15788529999554;493.3412817999488;493.3579002999468;496.9829522999935;None;9;0;496.9829522999935;None;;;;;;;;6;;;;;;;0.3868961000116542;498.5328061999753;None;None;None;[];498.5328061999753;None;['9'];[0.5489422000246122];498.5328061999753;None;;;S12018;2023_Feb_13_1658;VideoMask;2021.1.2;118.93915781670324;
4.0;m;004_o_m_s_a.jpg;sad;7.0;happy_131.2.wmv;happy;9.0;incongruent;130.0;150.0;181.38407540847405;s_h;;;;;0;38;38;38;;;;;;;501.53270470001735;None;503.25753109995276;503.5741416999372;504.7072653999785;504.72427370003425;506.70751340000425;None;9;0;506.70751340000425;None;;;;;;;;6;;;;;;;0.6223935000598431;508.25743979995605;None;None;None;[];508.25743979995605;None;['9'];[2.0725429999874905];508.25743979995605;None;;;S12018;2023_Feb_13_1658;VideoMask;2021.1.2;118.93915781670324;
0.0;f;040_y_f_h_a.jpg;happy;9.0;happy_24.3ns.avi;happy;9.0;congruent;120.0;150.0;213.25460698950434;h_h;;;;;0;39;39;39;;;;;;;511.2574159000069;None;513.2321842999663;513.5488897999749;514.6737492999528;514.6904667000053;516.6070967999985;None;9;0;516.6070967999985;None;;;;;;;;5;;;;;;;0.6187060000374913;518.1488192999968;None;None;None;[];518.1488192999968;None;None;;518.1488192999968;None;;;S12018;2023_Feb_13_1658;VideoMask;2021.1.2;118.93915781670324;
2.0;f;012_o_f_s_a.jpg;sad;7.0;happy_139.1.wmv;happy;9.0;incongruent;130.0;150.0;162.31500468041804;s_h;;;;;0;40;40;40;;;;;;;521.18215160002;None;522.7569510999601;523.0735266000265;524.2153471999336;524.2319726999849;526.206845000037;None;9;0;526.206845000037;None;;;;;;;;8;;;;;;;0.6030090999556705;527.7568609999726;None;None;None;[];527.7568609999726;None;"['9', '9', '9']";"[0.5251363000134006, 0.8370889000361785, 1.1091998000629246]";527.7568609999726;None;;;S12018;2023_Feb_13_1658;VideoMask;2021.1.2;118.93915781670324;
0.0;f;030_o_f_h_a.jpg;happy;9.0;happy_24.1ns.avi;happy;9.0;congruent;120.0;150.0;168.36256624020774;h_h;;;;;0;41;41;41;;;;;;;530.7569655999541;None;532.3648409999441;532.6816781000234;533.8237561000278;533.8483579000458;537.1398914000019;None;9;0;537.1398914000019;None;;;;;;;;8;;;;;;;0.469863299978897;538.6898485999554;None;None;None;[];538.6898485999554;None;"['9', '9', '9']";"[0.5040589000564069, 0.7842596000991762, 1.2402036000275984]";538.6898485999554;None;;;S12018;2023_Feb_13_1658;VideoMask;2021.1.2;118.93915781670324;
2.0;f;012_o_f_h_a.jpg;happy;9.0;sad_113.1.wmv;sad;7.0;incongruent;120.0;160.0;177.44551734737394;h_s;;;;;0;42;42;42;;;;;;;541.6897056000307;None;543.3727737000445;543.6896230999846;544.831105099991;544.8563664000249;546.8229484000476;None;7;0;546.8229484000476;None;;;;;;;;4;;;;;;;0.4909911999711767;548.372861300013;None;None;None;[];548.372861300013;None;['7'];[1.037099799956195];548.372861300013;None;;;S12018;2023_Feb_13_1658;VideoMask;2021.1.2;118.93915781670324;
3.0;m;033_o_m_s_a.jpg;sad;7.0;sad_64.5ns.avi;sad;7.0;congruent;130.0;160.0;130.55717223801247;s_s;;;;;0;43;43;43;;;;;;;551.3728079999564;None;552.6726260000141;552.989320899942;554.1227100000251;554.1393952999497;560.7058249999536;None;7;0;560.7058249999536;None;;;;;;;;2;;;;;;;0.6002034998964518;562.2557362000225;None;None;None;[];562.2557362000225;None;"['7', '7', '7', '7']";"[0.3622161999810487, 0.6101081999950111, 0.834351500030607, 1.306091499980539]";562.2557362000225;None;;;S12018;2023_Feb_13_1658;VideoMask;2021.1.2;118.93915781670324;
7.0;m;027_o_m_h_a.jpg;happy;9.0;sad_117.1.wmv;sad;7.0;incongruent;120.0;160.0;181.28665202824095;h_s;;;;;0;44;44;44;;;;;;;565.2556389999809;None;566.9720723000355;567.2888200000161;568.4222949999385;568.4388140999945;570.4222425000044;None;7;0;570.4222425000044;None;;;;;;;;3;;;;;;;0.635554000036791;571.972094799974;None;None;None;[];571.972094799974;None;"['7', '7', '7']";"[0.9499029000289738, 1.3979839000385255, 2.677935100044124]";571.972094799974;None;;;S12018;2023_Feb_13_1658;VideoMask;2021.1.2;118.93915781670324;
3.0;m;033_o_m_s_a.jpg;sad;7.0;happy_126.3.wmv;happy;9.0;incongruent;130.0;150.0;198.85252030535366;s_h;;;;;0;45;45;45;;;;;;;574.9720298999455;None;576.8301172000356;577.1468598999782;578.2800395999802;578.2972574000014;580.2802094999934;None;9;0;580.2802094999934;None;;;;;;;;7;;;;;;;0.6576745000202209;581.846809300012;None;None;None;[];581.846809300012;None;"['9', '9', '9']";"[0.7230327000143006, 1.0430814999854192, 1.4511256000259891]";581.846809300012;None;;;S12018;2023_Feb_13_1658;VideoMask;2021.1.2;118.93915781670324;
3.0;m;033_o_m_h_a.jpg;happy;9.0;sad_136.1.wmv;sad;7.0;incongruent;120.0;160.0;176.97002883463455;h_s;;;;;0;46;46;46;;;;;;;584.8468598999316;None;586.5214879999403;586.8382670000428;587.9716557000065;587.9882517999504;589.971523599932;None;7;0;589.971523599932;None;;;;;;;;2;;;;;;;0.582446499960497;591.5214955999982;None;None;None;[];591.5214955999982;None;"['7', '7', '7']";"[0.30463210004381835, 0.5364573000697419, 0.7682721000164747]";591.5214955999982;None;;;S12018;2023_Feb_13_1658;VideoMask;2021.1.2;118.93915781670324;
9.0;f;019_m_f_h_a.jpg;happy;9.0;happy_10.1ns.avi;happy;9.0;congruent;120.0;150.0;157.2463435658512;h_h;;;;;0;47;47;47;;;;;;;594.5298910000129;None;596.0630386000266;596.3798141999869;597.5546706999885;597.571482899948;604.9711258000461;None;9;0;604.9711258000461;None;;;;;;;;9;;;;;;;0.4308756999671459;606.5210012999596;None;None;None;[];606.5210012999596;None;"['9', '9', '9', '9']";"[0.4650325000984594, 0.7930374999996275, 1.0166718000546098, 1.3451583000132814]";606.5210012999596;None;;;S12018;2023_Feb_13_1658;VideoMask;2021.1.2;118.93915781670324;
2.0;f;012_o_f_h_a.jpg;happy;9.0;happy_2.2ns.avi;happy;9.0;congruent;120.0;150.0;206.34800317295262;h_h;;;;;0;48;48;48;;;;;;;609.5209197000368;None;611.4791689999402;611.7957314000232;612.94589610002;612.9623478000285;625.137278500013;None;9;0;625.137278500013;None;;;;;;;;7;;;;;;;0.42445869999937713;626.6869983000215;None;None;None;[];626.6869983000215;None;"['9', '9']";"[0.4427396999672055, 1.0430793999694288]";626.6869983000215;None;;;S12018;2023_Feb_13_1658;VideoMask;2021.1.2;118.93915781670324;
3.0;m;033_o_m_h_a.jpg;happy;9.0;happy_24.2ns.avi;happy;9.0;congruent;120.0;150.0;167.9423847659953;h_h;;;;;0;49;49;49;;;;;;;629.6869487999938;None;631.27843820001;631.5951309000375;632.7868500000332;632.8041509999894;636.4534119999735;None;9;0;636.4534119999735;None;;;;;;;;6;;;;;;;0.7805621000006795;637.9949731000233;None;None;None;[];637.9949731000233;None;['9'];[0.5909092000219971];637.9949731000233;None;;;S12018;2023_Feb_13_1658;VideoMask;2021.1.2;118.93915781670324;
1.0;f;021_o_f_s_a.jpg;sad;7.0;happy_61.2ns.avi;happy;9.0;incongruent;130.0;150.0;210.94664004826666;s_h;;;;;0;50;50;50;;;;;;;641.0032618000405;None;642.9612857999746;643.278016999946;644.4862549999962;644.5030841999687;648.9364037000341;None;9;0;648.9364037000341;None;;;;;;;;7;;;;;;;0.6494957000249997;650.4862864000024;None;None;None;[];650.4862864000024;None;"['9', '9', '9', '9', '9']";"[0.24374179996084422, 0.5556789999827743, 0.8115802999818698, 1.2118221999844536, 1.6358961999649182]";650.4862864000024;None;;;S12018;2023_Feb_13_1658;VideoMask;2021.1.2;118.93915781670324;
4.0;m;004_o_m_s_a.jpg;sad;7.0;sad_2.4ns.avi;sad;7.0;congruent;130.0;160.0;153.02079367163634;s_s;;;;;0;51;51;51;;;;;;;653.4863439999754;None;654.9775502999546;655.2944179000333;656.4444168999325;656.4611003999598;664.3859061000403;None;7;0;664.3859061000403;None;;;;;;;;3;;;;;;;0.6319061000831425;665.9441516000079;None;None;None;[];665.9441516000079;None;"['7', '7']";"[0.6339262999827042, 0.9377528000622988]";665.9441516000079;None;;;S12018;2023_Feb_13_1658;VideoMask;2021.1.2;118.93915781670324;
8.0;m;008_y_m_h_a.jpg;happy;9.0;happy_1.2ns.avi;happy;9.0;congruent;120.0;150.0;210.98946429383824;h_h;;;;;0;52;52;52;;;;;;;668.9441053000046;None;670.9354626999702;671.252297100029;672.43558759999;672.4522083000047;685.1767784999683;None;9;0;685.1767784999683;None;;;;;;;;6;;;;;;;0.6252021000254899;686.7267483000178;None;None;None;[];686.7267483000178;None;['9'];[0.9871094999834895];686.7267483000178;None;;;S12018;2023_Feb_13_1658;VideoMask;2021.1.2;118.93915781670324;
2.0;f;012_o_f_s_a.jpg;sad;7.0;happy_52.2ns.avi;happy;9.0;incongruent;130.0;150.0;172.57202848318138;s_h;;;;;0;53;53;53;;;;;;;689.7267094999552;None;691.3513945000013;691.6681040000403;692.8349469000241;692.8516343999654;696.3514434000244;None;None;0;696.3514434000244;None;;;;;;;;6;;;;;;;;698.2930809999816;None;None;None;[];698.2930809999816;None;"['9', '9']";"[0.4530518000246957, 1.1246953000081703]";698.2930809999816;None;;;S12018;2023_Feb_13_1658;VideoMask;2021.1.2;118.93915781670324;
9.0;f;019_m_f_s_a.jpg;sad;7.0;happy_61.1ns.avi;happy;9.0;incongruent;130.0;150.0;181.3003220572762;s_h;;;;;0;54;54;54;;;;;;;701.292969299946;None;703.0345047999872;703.3511492999969;704.5260352999903;704.5427544999402;711.8760266000172;None;None;0;711.8760266000172;None;;;;;;;;8;;;;;;;;713.4340569999767;None;None;None;[];713.4340569999767;None;"['9', '9', '9', '9', '9', '9']";"[0.5119427000172436, 0.8315842000301927, 1.1198295999784023, 1.5037428999785334, 1.9440117999911308, 2.584140400053002]";713.4340569999767;None;;;S12018;2023_Feb_13_1658;VideoMask;2021.1.2;118.93915781670324;
0.0;f;030_o_f_h_a.jpg;happy;9.0;sad_133.1.wmv;sad;7.0;incongruent;120.0;160.0;198.86251500867985;h_s;;;;;0;55;55;55;;;;;;;716.4341916999547;None;718.2922730999999;718.608987799962;719.7340372999897;719.7508158000419;721.7423423000146;None;7;0;721.7423423000146;None;;;;;;;;2;;;;;;;0.45966549997683614;723.2922660999466;None;None;None;[];723.2922660999466;None;"['7', '7', '7']";"[0.5817913999781013, 0.8857818999094889, 1.1415772999171168]";723.2922660999466;None;;;S12018;2023_Feb_13_1658;VideoMask;2021.1.2;118.93915781670324;
0.0;f;040_y_f_h_a.jpg;happy;9.0;sad_128.2.wmv;sad;7.0;incongruent;120.0;160.0;206.10005857915363;h_s;;;;;0;56;56;56;;;;;;;726.292296999949;None;728.2168792999582;728.5335905000102;729.6841340999817;729.7004467999795;731.6670897000004;None;7;0;731.6670897000004;None;;;;;;;;2;;;;;;;0.43083490000572056;733.2169245999539;None;None;None;[];733.2169245999539;None;"['7', '7', '7']";"[0.3929738999577239, 0.657035099924542, 0.9049668998923153]";733.2169245999539;None;;;S12018;2023_Feb_13_1658;VideoMask;2021.1.2;118.93915781670324;
1.0;f;021_o_f_s_a.jpg;sad;7.0;sad_9.5ns.avi;sad;7.0;congruent;130.0;160.0;206.16642757875042;s_s;;;;;0;57;57;57;;;;;;;736.225149899954;None;738.150012500002;738.4667032000143;739.6417274000123;739.6584200999932;745.3331617999356;None;7;0;745.3331617999356;None;;;;;;;;3;;;;;;;0.7726149000227451;746.8914914999623;None;None;None;[];746.8914914999623;None;"['7', '7', '7']";"[0.6146957000019029, 0.9103184000123292, 1.3586455000331625]";746.8914914999623;None;;;S12018;2023_Feb_13_1658;VideoMask;2021.1.2;118.93915781670324;
1.0;f;021_o_f_h_a.jpg;happy;9.0;happy_12.1ns.avi;happy;9.0;congruent;120.0;150.0;132.59080005900228;h_h;;;;;0;58;58;58;;;;;;;749.8998207999393;None;751.2329278000398;751.5498205999611;752.7004017999861;752.7251011999324;760.2993274999317;None;9;0;760.2993274999317;None;;;;;;;;9;;;;;;;0.4625693999696523;761.8493266999722;None;None;None;[];761.8493266999722;None;"['9', '9', '9', '9']";"[0.32866720005404204, 0.6726795000722632, 1.048623300041072, 1.4965924000134692]";761.8493266999722;None;;;S12018;2023_Feb_13_1658;VideoMask;2021.1.2;118.93915781670324;
3.0;m;013_y_m_s_a.jpg;sad;7.0;happy_56.2ns.avi;happy;9.0;incongruent;130.0;150.0;163.39234110935848;s_h;;;;;0;59;59;59;;;;;;;764.8493814000394;None;766.4157787000295;766.7325751000317;767.9495502000209;767.9741419999627;772.8907020000042;None;9;0;772.8907020000042;None;;;;;;;;7;;;;;;;0.9830294999992475;774.4406197000062;None;None;None;[];774.4406197000062;None;"['9', '9']";"[1.2735149000072852, 2.2095477000111714]";774.4406197000062;None;;;S12018;2023_Feb_13_1658;VideoMask;2021.1.2;118.93915781670324;
;;;;;;;;;;;;;;;;;;;;;;;;;;;;;;;;;;;;;;;;;;;;;;;;;;;;;;;;;;;;;;;;;777.4404688000213;None;;;;;;
