primePerson;primeGender;prime;primeEmotion;corrAnsPrime;target;targetEmotion;corrAnsTar;Cond;ID_Primer;ID_Target;JitterTime;Condition;example.thisRepN;example.thisTrialN;example.thisN;example.thisIndex;study.thisRepN;study.thisTrialN;study.thisN;study.thisIndex;MR_trigger_time;MR_trigger_number;text_intro.started;text_intro.stopped;text_probe.started;text_probe.stopped;polygon_ISI.started;polygon_ISI.stopped;polygon.started;polygon.stopped;primerImage.started;primerImage.stopped;response.started;response.stopped;key_resp.keys;key_resp.corr;key_resp.rt;key_resp.started;key_resp.stopped;slider_Text.started;slider_Text.stopped;slider_ex.response;slider_ex.rt;slider_ex.history;slider_ex.started;slider_ex.stopped;Rating;slider_resp_response.keys;slider_resp_response.started;slider_resp_response.stopped;text_start.started;text_start.stopped;text_slider.started;text_slider.stopped;slider_stud.response;slider_stud.rt;slider_stud.history;slider_stud.started;slider_stud.stopped;slider_resp_study.keys;slider_resp_study.rt;slider_resp_study.started;slider_resp_study.stopped;text_ende.started;text_ende.stopped;participant;date;expName;psychopyVersion;frameRate;
1111;m;1111_m_m_h_a.jpg;happy;9;example_30.4ns.avi;neutral;7;incongruent;120.0;170.0;189.5874364012288;;0;0;0;0;;;;;24.468219500035048;1;24.54684800002724;26.54692570003681;26.54692570003681;None;28.563589100027457;None;30.771776100154966;31.09679189999588;32.280054999981076;32.296723700128496;36.57172090001404;None;9;0;0.9861335998866707;36.57172090001404;None;38.12992099998519;None;None;None;[];38.12992099998519;None;5;None;38.12992099998519;None;;;;;;;;;;;;;;;;S11960;2023_Jan_10_1755;VideoMask;2021.1.2;120.03922883920413;
1113;f;1113_y_f_s_a.jpg;sad;7;example_30.3ns.avi;neutral;7;incongruent;130.0;170.0;229.02432995836998;;0;1;1;1;;;;;;;;;;;41.154806199949235;None;43.271283300127834;43.58756950008683;44.79644379997626;44.8129863999784;46.72130550001748;None;8;0;0.9324741000309587;46.72130550001748;None;48.27123420010321;None;None;None;[];48.27123420010321;None;5;None;48.27123420010321;None;;;;;;;;;;;;;;;;S11960;2023_Jan_10_1755;VideoMask;2021.1.2;120.03922883920413;
9.0;f;019_m_f_h_a.jpg;happy;9.0;sad_115.1.wmv;sad;7.0;incongruent;120.0;160.0;128.09063432376465;h_s;;;;;0;0;0;0;;;;;;;52.30433279997669;None;53.579316900111735;53.89592980011366;55.02926710015163;55.04607250005938;57.02931779995561;None;7;0;0.4566256001126021;57.02931779995561;None;;;;;;;;4;;;;51.304374400060624;None;58.5791752000805;None;None;None;[];58.5791752000805;None;['7'];[2.794919200008735];58.5791752000805;None;;;S11960;2023_Jan_10_1755;VideoMask;2021.1.2;120.03922883920413;
3.0;m;033_o_m_s_a.jpg;sad;7.0;sad_94.2ns.avi;sad;7.0;congruent;130.0;160.0;182.29120173647655;s_s;;;;;0;1;1;1;;;;;;;61.587499800138175;None;63.30402750009671;63.62076790002175;64.75411870004609;64.77073300001211;67.45401620003395;None;7;0;0.8158218001481146;67.45401620003395;None;;;;;;;;4;;;;;;69.00394590012729;None;None;None;[];69.00394590012729;None;"['7', '7']";"[0.393885700032115, 0.8899820998776704]";69.00394590012729;None;;;S11960;2023_Jan_10_1755;VideoMask;2021.1.2;120.03922883920413;
8.0;m;008_y_m_h_a.jpg;happy;9.0;happy_26.1ns.avi;happy;9.0;congruent;120.0;150.0;155.9437854594882;h_h;;;;;0;2;2;2;;;;;;;72.0126158001367;None;73.50384719995782;73.82044399995357;74.96207530004904;74.97876410000026;76.94536620005965;None;9;0;0.6205364998895675;76.94536620005965;None;;;;;;;;6;;;;;;78.49520700005814;None;None;None;[];78.49520700005814;None;['9'];[0.39069669996388257];78.49520700005814;None;;;S11960;2023_Jan_10_1755;VideoMask;2021.1.2;120.03922883920413;
0.0;f;040_y_f_h_a.jpg;happy;9.0;sad_138.1.wmv;sad;7.0;incongruent;120.0;160.0;133.99071306426532;h_s;;;;;0;3;3;3;;;;;;;81.49561640014872;None;82.81167230010033;83.12839130009525;84.25366290006787;84.27010180009529;86.26173359993845;None;None;0;;86.26173359993845;None;;;;;;;;4;;;;;;87.81173560000025;None;None;None;[];87.81173560000025;None;['7'];[0.3621584000065923];87.81173560000025;None;;;S11960;2023_Jan_10_1755;VideoMask;2021.1.2;120.03922883920413;
8.0;f;028_y_f_s_a.jpg;sad;7.0;sad_64.2ns.avi;sad;7.0;congruent;130.0;160.0;229.88540597086478;s_s;;;;;0;4;4;4;;;;;;;90.81159269995987;None;92.96972699998878;93.28651769994758;94.46968860016204;94.48634180007502;105.41952620004304;None;None;0;;105.41952620004304;None;;;;;;;;4;;;;;;106.96926679997705;None;None;None;[];106.96926679997705;None;['7'];[0.5726322999689728];106.96926679997705;None;;;S11960;2023_Jan_10_1755;VideoMask;2021.1.2;120.03922883920413;
7.0;m;027_o_m_s_a.jpg;sad;7.0;sad_10.4ns.avi;sad;7.0;congruent;130.0;160.0;185.20129417468752;s_s;;;;;0;5;5;5;;;;;;;109.97811190015636;None;111.72750669997185;112.04386600013822;113.21212400007062;113.23590870015323;116.36080120014958;None;None;0;;116.36080120014958;None;;;;;;;;4;;;;;;117.9107449001167;None;None;None;[];117.9107449001167;None;['7'];[0.49515440012328327];117.9107449001167;None;;;S11960;2023_Jan_10_1755;VideoMask;2021.1.2;120.03922883920413;
2.0;f;012_o_f_s_a.jpg;sad;7.0;sad_7.5ns.avi;sad;7.0;congruent;130.0;160.0;220.27842655424388;s_s;;;;;0;6;6;6;;;;;;;120.91107699996792;None;122.94398490013555;123.26068500010297;124.44414609996602;124.46054580016062;127.18547570006922;None;None;0;;127.18547570006922;None;;;;;;;;5;;;;;;128.73540930007584;None;None;None;[];128.73540930007584;None;None;;128.73540930007584;None;;;S11960;2023_Jan_10_1755;VideoMask;2021.1.2;120.03922883920413;
2.0;f;012_o_f_h_a.jpg;happy;9.0;happy_27.1ns.avi;happy;9.0;congruent;120.0;150.0;146.44967055810616;h_h;;;;;0;7;7;7;;;;;;;131.7603206001222;None;133.16849269997329;133.48527189996094;134.6349540001247;134.65171210002154;137.11012280010618;None;None;0;;137.11012280010618;None;;;;;;;;6;;;;;;138.65995410014875;None;None;None;[];138.65995410014875;None;['9'];[0.6260417001321912];138.65995410014875;None;;;S11960;2023_Jan_10_1755;VideoMask;2021.1.2;120.03922883920413;
8.0;f;028_y_f_h_a.jpg;happy;9.0;sad_119.1.wmv;sad;7.0;incongruent;120.0;160.0;148.71526953572538;h_s;;;;;0;8;8;8;;;;;;;141.6604298001621;None;143.10982690006495;143.4266220999416;144.56829309999011;144.58482550014742;146.6265304000117;None;None;0;;146.6265304000117;None;;;;;;;;4;;;;;;148.17633040016517;None;None;None;[];148.17633040016517;None;['7'];[0.7258611000142992];148.17633040016517;None;;;S11960;2023_Jan_10_1755;VideoMask;2021.1.2;120.03922883920413;
6.0;m;016_y_m_s_a.jpg;sad;7.0;happy_60.4ns.avi;happy;9.0;incongruent;130.0;150.0;126.02367393611817;s_h;;;;;0;9;9;9;;;;;;;151.17670840001665;None;152.45122919999994;152.76749570015818;154.02631840016693;154.04293110012077;159.69280710001476;None;None;0;;159.69280710001476;None;;;;;;;;5;;;;;;161.2343111000955;None;None;None;[];161.2343111000955;None;None;;161.2343111000955;None;;;S11960;2023_Jan_10_1755;VideoMask;2021.1.2;120.03922883920413;
9.0;f;019_m_f_s_a.jpg;sad;7.0;sad_8.4ns.avi;sad;7.0;congruent;130.0;160.0;171.6633093155257;s_s;;;;;0;10;10;10;;;;;;;164.26754510006867;None;165.93416510010138;166.2508801999502;167.39265700010583;167.40925210015848;175.51730339997448;None;None;0;;175.51730339997448;None;;;;;;;;3;;;;;;177.06710990006104;None;None;None;[];177.06710990006104;None;"['7', '7']";"[0.3466801999602467, 0.7308610000181943]";177.06710990006104;None;;;S11960;2023_Jan_10_1755;VideoMask;2021.1.2;120.03922883920413;
4.0;m;004_o_m_h_a.jpg;happy;9.0;happy_1.1ns.avi;happy;9.0;congruent;120.0;150.0;203.50057144619865;h_h;;;;;0;11;11;11;;;;;;;180.06728280009702;None;182.0419445000589;182.35875890008174;183.52548489999026;183.54204870015383;197.99226680002175;None;None;0;;197.99226680002175;None;;;;;;;;6;;;;;;199.77492090011947;None;None;None;[];199.77492090011947;None;['9'];[0.9192231998313218];199.77492090011947;None;;;S11960;2023_Jan_10_1755;VideoMask;2021.1.2;120.03922883920413;
7.0;m;027_o_m_h_a.jpg;happy;9.0;happy_20.1ns.avi;happy;9.0;congruent;120.0;150.0;152.91127178874285;h_h;;;;;0;12;12;12;;;;;;;202.77501580002718;None;204.26639590016566;204.58297320012935;205.74135769996792;205.75799760012887;208.73294420004822;None;None;0;;208.73294420004822;None;;;;;;;;5;;;;;;210.28281500004232;None;None;None;[];210.28281500004232;None;None;;210.28281500004232;None;;;S11960;2023_Jan_10_1755;VideoMask;2021.1.2;120.03922883920413;
0.0;f;040_y_f_s_a.jpg;sad;7.0;sad_94.3ns.avi;sad;7.0;congruent;130.0;160.0;155.27414203894395;s_s;;;;;0;13;13;13;;;;;;;213.29942860011943;None;214.79094950016588;215.107694900129;216.24086740007624;216.2576935000252;218.86592909996398;None;None;0;;218.86592909996398;None;;;;;;;;4;;;;;;220.41575350007042;None;None;None;[];220.41575350007042;None;['7'];[0.6463287000078708];220.41575350007042;None;;;S11960;2023_Jan_10_1755;VideoMask;2021.1.2;120.03922883920413;
0.0;f;030_o_f_s_a.jpg;sad;7.0;sad_68.1ns.avi;sad;7.0;congruent;130.0;160.0;158.9411396037211;s_s;;;;;0;14;14;14;;;;;;;223.42455470003188;None;224.9740873000119;225.29071510001086;226.43236179999076;226.44904500013217;233.84882870013826;None;None;0;;233.84882870013826;None;;;;;;;;2;;;;;;235.3986154999584;None;None;None;[];235.3986154999584;None;"['7', '7', '7']";"[0.3996226000599563, 0.6953543999698013, 0.9753215999808162]";235.3986154999584;None;;;S11960;2023_Jan_10_1755;VideoMask;2021.1.2;120.03922883920413;
0.0;f;030_o_f_h_a.jpg;happy;9.0;sad_127.1.wmv;sad;7.0;incongruent;120.0;160.0;180.59976631384873;h_s;;;;;0;15;15;15;;;;;;;238.40736340009607;None;240.1235085001681;240.43997379997745;241.5730987000279;241.5986089000944;243.57362479995936;None;None;0;;243.57362479995936;None;;;;;;;;4;;;;;;245.1232795000542;None;None;None;[];245.1232795000542;None;['7'];[0.8270570000167936];245.1232795000542;None;;;S11960;2023_Jan_10_1755;VideoMask;2021.1.2;120.03922883920413;
8.0;m;008_y_m_s_a.jpg;sad;7.0;happy_133.3.wmv;happy;9.0;incongruent;130.0;150.0;152.577966552593;s_h;;;;;0;16;16;16;;;;;;;248.1238288001623;None;249.60651180008426;249.9231906000059;251.08999290014617;251.10650120000355;253.05656259995885;None;None;0;;253.05656259995885;None;;;;;;;;6;;;;;;254.6064134000335;None;None;None;[];254.6064134000335;None;['9'];[0.43174759997054935];254.6064134000335;None;;;S11960;2023_Jan_10_1755;VideoMask;2021.1.2;120.03922883920413;
3.0;m;033_o_m_h_a.jpg;happy;9.0;sad_128.1.wmv;sad;7.0;incongruent;120.0;160.0;171.0492454518585;h_s;;;;;0;17;17;17;;;;;;;257.61518070008606;None;259.25624160002917;259.5729551000986;260.7145809000358;260.73137619998306;262.70630900003016;None;None;0;;262.70630900003016;None;;;;;;;;2;;;;;;264.25616100011393;None;None;None;[];264.25616100011393;None;"['7', '7', '7']";"[0.44591659982688725, 0.7338570000138134, 1.0059422999620438]";264.25616100011393;None;;;S11960;2023_Jan_10_1755;VideoMask;2021.1.2;120.03922883920413;
1.0;f;021_o_f_h_a.jpg;happy;9.0;sad_116.1.wmv;sad;7.0;incongruent;120.0;160.0;184.06847610053055;h_s;;;;;0;18;18;18;;;;;;;267.2648263000883;None;269.01441460009664;269.3310039001517;270.464432900073;270.48100439994596;272.46421830006875;None;None;0;;272.46421830006875;None;;;;;;;;5;;;;;;274.014081500005;None;None;None;[];274.014081500005;None;None;;274.014081500005;None;;;S11960;2023_Jan_10_1755;VideoMask;2021.1.2;120.03922883920413;
4.0;m;004_o_m_s_a.jpg;sad;7.0;happy_28.1ns.avi;happy;9.0;incongruent;130.0;150.0;157.40741103039684;s_h;;;;;0;19;19;19;;;;;;;277.03912500012666;None;278.55564390006475;278.8723910001572;280.10561770014465;280.1222537001595;284.3972815000452;None;None;0;;284.3972815000452;None;;;;;;;;8;;;;;;285.9470401001163;None;None;None;[];285.9470401001163;None;"['9', '9', '9']";"[0.3471919000148773, 0.6750920000486076, 0.9710073000751436]";285.9470401001163;None;;;S11960;2023_Jan_10_1755;VideoMask;2021.1.2;120.03922883920413;
8.0;f;028_y_f_s_a.jpg;sad;7.0;happy_122.3.wmv;happy;9.0;incongruent;130.0;150.0;171.8670540936116;s_h;;;;;0;20;20;20;;;;;;;288.94709939998575;None;290.5886089000851;290.90536480001174;292.03982790000737;292.063641600078;294.03862669994123;None;None;0;;294.03862669994123;None;;;;;;;;8;;;;;;295.58857200015336;None;None;None;[];295.58857200015336;None;"['9', '9', '9']";"[0.6737286001443863, 1.049388200044632, 1.3455184001941234]";295.58857200015336;None;;;S11960;2023_Jan_10_1755;VideoMask;2021.1.2;120.03922883920413;
8.0;m;008_y_m_s_a.jpg;sad;7.0;sad_6.5ns.avi;sad;7.0;congruent;130.0;160.0;170.39333839271438;s_s;;;;;0;21;21;21;;;;;;;298.588734399993;None;300.2299854999874;300.5466828001663;301.7465318001341;301.76323759998195;306.6798662999645;None;None;0;;306.6798662999645;None;;;;;;;;4;;;;;;308.22987230005674;None;None;None;[];308.22987230005674;None;['7'];[0.3680992000736296];308.22987230005674;None;;;S11960;2023_Jan_10_1755;VideoMask;2021.1.2;120.03922883920413;
8.0;f;028_y_f_h_a.jpg;happy;9.0;happy_23.1ns.avi;happy;9.0;congruent;120.0;150.0;225.70986890587952;h_h;;;;;0;22;22;22;;;;;;;311.23847960005514;None;313.32122780010104;313.64621160016395;314.8046423001215;314.8212657000404;319.35446500009857;None;None;0;;319.35446500009857;None;;;;;;;;8;;;;;;320.9042557000648;None;None;None;[];320.9042557000648;None;"['9', '9', '9']";"[0.8378892000764608, 1.1577234000433236, 1.453803300159052]";320.9042557000648;None;;;S11960;2023_Jan_10_1755;VideoMask;2021.1.2;120.03922883920413;
8.0;m;008_y_m_h_a.jpg;happy;9.0;sad_111.1.wmv;sad;7.0;incongruent;120.0;160.0;152.63076835312847;h_s;;;;;0;23;23;23;;;;;;;323.8963820000645;None;325.3708548999857;325.695919000078;326.8458595999982;326.8625408001244;328.8208359000273;None;None;0;;328.8208359000273;None;;;;;;;;4;;;;;;330.3706933001522;None;None;None;[];330.3706933001522;None;['7'];[0.4516136001329869];330.3706933001522;None;;;S11960;2023_Jan_10_1755;VideoMask;2021.1.2;120.03922883920413;
0.0;f;040_y_f_s_a.jpg;sad;7.0;sad_67.2ns.avi;sad;7.0;congruent;130.0;160.0;220.9892697323079;s_s;;;;;0;24;24;24;;;;;;;333.3711556000635;None;335.42886310000904;335.74561040010303;336.9373099000659;336.9538611001335;346.1036746001337;None;None;0;;346.1036746001337;None;;;;;;;;2;;;;;;347.6536286000628;None;None;None;[];347.6536286000628;None;"['7', '7', '7']";"[0.46451970003545284, 0.728396600112319, 0.9523846001829952]";347.6536286000628;None;;;S11960;2023_Jan_10_1755;VideoMask;2021.1.2;120.03922883920413;
8.0;m;008_y_m_s_a.jpg;sad;7.0;happy_29.1ns.avi;happy;9.0;incongruent;130.0;150.0;120.0316142834122;s_h;;;;;0;25;25;25;;;;;;;350.66210520011373;None;351.86163479997776;352.1783623001538;353.3365649001207;353.35327069996856;356.0033444999717;None;None;0;;356.0033444999717;None;;;;;;;;7;;;;;;357.5533340999391;None;None;None;[];357.5533340999391;None;"['9', '9']";"[0.42083690012805164, 0.7808871001470834]";357.5533340999391;None;;;S11960;2023_Jan_10_1755;VideoMask;2021.1.2;120.03922883920413;
6.0;m;016_y_m_s_a.jpg;sad;7.0;sad_8.3ns.avi;sad;7.0;congruent;130.0;160.0;152.85371098242734;s_s;;;;;0;26;26;26;;;;;;;360.5533817000687;None;362.0446793001611;362.3613931001164;363.53631630004384;363.55309930001386;371.2528264001012;None;None;0;;371.2528264001012;None;;;;;;;;3;;;;;;372.8109953000676;None;None;None;[];372.8109953000676;None;"['7', '7', '7']";"[0.3552190000191331, 0.6191348000429571, 1.1872789999470115]";372.8109953000676;None;;;S11960;2023_Jan_10_1755;VideoMask;2021.1.2;120.03922883920413;
6.0;m;016_y_m_h_a.jpg;happy;9.0;sad_114.1.wmv;sad;7.0;incongruent;120.0;160.0;136.20550699298644;h_s;;;;;0;27;27;27;;;;;;;375.81138120009564;None;377.1609108999837;377.4775519000832;378.602708700113;378.6193155001383;380.6108816000633;None;None;0;;380.6108816000633;None;;;;;;;;2;;;;;;382.16070830007084;None;None;None;[];382.16070830007084;None;"['7', '7', '7', '7', '7']";"[0.47749520000070333, 0.7573602001648396, 1.0773736000992358, 1.4133307000156492, 1.7974785000551492]";382.16070830007084;None;;;S11960;2023_Jan_10_1755;VideoMask;2021.1.2;120.03922883920413;
7.0;m;027_o_m_s_a.jpg;sad;7.0;happy_117.3.wmv;happy;9.0;incongruent;130.0;150.0;215.61964028550614;s_h;;;;;0;28;28;28;;;;;;;385.1610588999465;None;387.16061490005814;387.47723890002817;388.6024083001539;388.6190760000609;390.61070300010033;None;None;0;;390.61070300010033;None;;;;;;;;6;;;;;;392.1604039000813;None;None;None;[];392.1604039000813;None;['9'];[0.4136414001695812];392.1604039000813;None;;;S11960;2023_Jan_10_1755;VideoMask;2021.1.2;120.03922883920413;
6.0;m;016_y_m_h_a.jpg;happy;9.0;happy_9.2ns.avi;happy;9.0;congruent;120.0;150.0;130.52042428082717;h_h;;;;;0;29;29;29;;;;;;;395.1691859001294;None;396.4603333999403;396.77693920000456;397.96980760013685;397.9935556000564;403.835237900028;None;None;0;;403.835237900028;None;;;;;;;;7;;;;;;405.3850154001266;None;None;None;[];405.3850154001266;None;"['9', '9']";"[0.34906550007872283, 0.7090692999772727]";405.3850154001266;None;;;S11960;2023_Jan_10_1755;VideoMask;2021.1.2;120.03922883920413;
0.0;f;040_y_f_s_a.jpg;sad;7.0;happy_127.3.wmv;happy;9.0;incongruent;130.0;150.0;131.7195455720239;s_h;;;;;0;30;30;30;;;;;;;408.39383459999226;None;409.7099595000036;410.02666940004565;411.15167529997416;411.16830090014264;413.2265979000367;None;None;0;;413.2265979000367;None;;;;;;;;6;;;;;;414.77660600002855;None;None;None;[];414.77660600002855;None;['9'];[1.2617770000360906];414.77660600002855;None;;;S11960;2023_Jan_10_1755;VideoMask;2021.1.2;120.03922883920413;
0.0;f;030_o_f_s_a.jpg;sad;7.0;happy_125.3.wmv;happy;9.0;incongruent;130.0;150.0;220.51454909128134;s_h;;;;;0;31;31;31;;;;;;;417.7849135999568;None;419.8346295999363;420.1513964999467;421.30137280002236;421.31798950000666;423.28467030008323;None;None;0;;423.28467030008323;None;;;;;;;;7;;;;;;424.834519200027;None;None;None;[];424.834519200027;None;"['9', '9']";"[0.34769449988380075, 0.731698399875313]";424.834519200027;None;;;S11960;2023_Jan_10_1755;VideoMask;2021.1.2;120.03922883920413;
0.0;f;030_o_f_s_a.jpg;sad;7.0;sad_64.3ns.avi;sad;7.0;congruent;130.0;160.0;165.78667874766072;s_s;;;;;0;32;32;32;;;;;;;427.8346303999424;None;429.4260821000207;429.7426271000877;430.8927299999632;430.90932590002194;435.89304630015977;None;None;0;;435.89304630015977;None;;;;;;;;5;;;;;;437.4506990001537;None;None;None;[];437.4506990001537;None;None;;437.4506990001537;None;;;S11960;2023_Jan_10_1755;VideoMask;2021.1.2;120.03922883920413;
3.0;m;013_y_m_s_a.jpg;sad;7.0;sad_7.7ns.avi;sad;7.0;congruent;130.0;160.0;196.24182255763262;s_s;;;;;0;33;33;33;;;;;;;440.4756810001563;None;442.3172335999552;442.63394349999726;443.8170517999679;443.83392530004494;449.76713089994155;None;None;0;;449.76713089994155;None;;;;;;;;4;;;;;;451.31693680002354;None;None;None;[];451.31693680002354;None;['7'];[0.40940149989910424];451.31693680002354;None;;;S11960;2023_Jan_10_1755;VideoMask;2021.1.2;120.03922883920413;
3.0;m;013_y_m_h_a.jpg;happy;9.0;happy_9.1ns.avi;happy;9.0;congruent;120.0;150.0;165.1890303600433;h_h;;;;;0;34;34;34;;;;;;;454.30883809993975;None;455.89191020000726;456.2084552999586;457.4585500000976;457.47511170012876;460.5667737000622;None;None;0;;460.5667737000622;None;;;;;;;;6;;;;;;462.1166038000956;None;None;None;[];462.1166038000956;None;['9'];[0.4814848001115024];462.1166038000956;None;;;S11960;2023_Jan_10_1755;VideoMask;2021.1.2;120.03922883920413;
4.0;m;004_o_m_h_a.jpg;happy;9.0;sad_95.1ns.avi;sad;7.0;incongruent;120.0;160.0;152.68270002069931;h_s;;;;;0;35;35;35;;;;;;;465.1252358001657;None;466.6248133999761;466.94153990014456;468.1415322001558;468.15807160013355;476.8662714001257;None;None;0;;476.8662714001257;None;;;;;;;;2;;;;;;478.416247199988;None;None;None;[];478.416247199988;None;"['7', '7', '7']";"[0.5578949998598546, 0.8540141999255866, 1.1261108999606222]";478.416247199988;None;;;S11960;2023_Jan_10_1755;VideoMask;2021.1.2;120.03922883920413;
3.0;m;013_y_m_h_a.jpg;happy;9.0;sad_113.2.wmv;sad;7.0;incongruent;120.0;160.0;217.4973891947951;h_s;;;;;0;36;36;36;;;;;;;481.42457749997266;None;483.4492655999493;483.76606809999794;484.89942490006797;484.9244373999536;486.90772440005094;None;None;0;;486.90772440005094;None;;;;;;;;4;;;;;;488.45764899998903;None;None;None;[];488.45764899998903;None;['7'];[0.9406685999128968];488.45764899998903;None;;;S11960;2023_Jan_10_1755;VideoMask;2021.1.2;120.03922883920413;
4.0;m;004_o_m_h_a.jpg;happy;9.0;happy_25.1ns.avi;happy;9.0;congruent;120.0;150.0;216.63044503818386;h_h;;;;;0;37;37;37;;;;;;;491.4663982000202;None;493.48230200004764;493.7990335000213;494.99071010015905;495.00740520004183;498.6239346000366;None;None;0;;498.6239346000366;None;;;;;;;;7;;;;;;500.1737089001108;None;None;None;[];500.1737089001108;None;"['9', '9']";"[0.2964633998926729, 0.6564758999738842]";500.1737089001108;None;;;S11960;2023_Jan_10_1755;VideoMask;2021.1.2;120.03922883920413;
4.0;m;004_o_m_s_a.jpg;sad;7.0;happy_131.2.wmv;happy;9.0;incongruent;130.0;150.0;181.38407540847405;s_h;;;;;0;38;38;38;;;;;;;503.18254610011354;None;504.8986029000953;505.2153018999379;506.34969600010663;506.3736670999788;508.35697860014625;None;None;0;;508.35697860014625;None;;;;;;;;6;;;;;;510.0318881999701;None;None;None;[];510.0318881999701;None;['9'];[0.3586253998801112];510.0318881999701;None;;;S11960;2023_Jan_10_1755;VideoMask;2021.1.2;120.03922883920413;
0.0;f;040_y_f_h_a.jpg;happy;9.0;happy_24.3ns.avi;happy;9.0;congruent;120.0;150.0;213.25460698950434;h_h;;;;;0;39;39;39;;;;;;;513.040657200152;None;515.0066784000956;515.3233704001177;516.5399945999961;516.5565392000135;518.3816476999782;None;None;0;;518.3816476999782;None;;;;;;;;7;;;;;;519.9315331000835;None;None;None;[];519.9315331000835;None;"['9', '9']";"[0.6586877000518143, 1.1149077999871224]";519.9315331000835;None;;;S11960;2023_Jan_10_1755;VideoMask;2021.1.2;120.03922883920413;
2.0;f;012_o_f_s_a.jpg;sad;7.0;happy_139.1.wmv;happy;9.0;incongruent;130.0;150.0;162.31500468041804;s_h;;;;;0;40;40;40;;;;;;;522.9401108000893;None;524.4976483001374;524.8146778000519;525.9481101001147;525.9647636001464;527.9480568000581;None;None;0;;527.9480568000581;None;;;;;;;;6;;;;;;529.4979457000736;None;None;None;[];529.4979457000736;None;['9'];[0.37247339985333383];529.4979457000736;None;;;S11960;2023_Jan_10_1755;VideoMask;2021.1.2;120.03922883920413;
0.0;f;030_o_f_h_a.jpg;happy;9.0;happy_24.1ns.avi;happy;9.0;congruent;120.0;150.0;168.36256624020774;h_h;;;;;0;41;41;41;;;;;;;532.4981041001156;None;534.1060427001212;534.4223347001243;535.5895118000917;535.6061464000959;538.889336500084;None;None;0;;538.889336500084;None;;;;;;;;4;;;;;;540.4393243000377;None;None;None;[];540.4393243000377;None;"['7', '7']";"[0.5270133002195507, 0.991149100009352]";540.4393243000377;None;;;S11960;2023_Jan_10_1755;VideoMask;2021.1.2;120.03922883920413;
2.0;f;012_o_f_h_a.jpg;happy;9.0;sad_113.1.wmv;sad;7.0;incongruent;120.0;160.0;177.44551734737394;h_s;;;;;0;42;42;42;;;;;;;543.4479553999845;None;545.1390399001539;545.4557326999493;546.5972323000897;546.6140976999886;548.5890581000131;None;None;0;;548.5890581000131;None;;;;;;;;4;;;;;;550.138990300009;None;None;None;[];550.138990300009;None;['7'];[0.4671694999560714];550.138990300009;None;;;S11960;2023_Jan_10_1755;VideoMask;2021.1.2;120.03922883920413;
3.0;m;033_o_m_s_a.jpg;sad;7.0;sad_64.5ns.avi;sad;7.0;congruent;130.0;160.0;130.55717223801247;s_s;;;;;0;43;43;43;;;;;;;553.1476678000763;None;554.4470810000785;554.7638225001283;555.938853800064;555.955376900034;562.4972288000863;None;None;0;;562.4972288000863;None;;;;;;;;3;;;;;;564.0553187001497;None;None;None;[];564.0553187001497;None;"['7', '7']";"[0.3592423000372946, 0.7029596001375467]";564.0553187001497;None;;;S11960;2023_Jan_10_1755;VideoMask;2021.1.2;120.03922883920413;
7.0;m;027_o_m_h_a.jpg;happy;9.0;sad_117.1.wmv;sad;7.0;incongruent;120.0;160.0;181.28665202824095;h_s;;;;;0;44;44;44;;;;;;;567.0555507999379;None;568.7799647001084;569.096822099993;570.2381347999908;570.2549418001436;572.2299329999369;None;None;0;;572.2299329999369;None;;;;;;;;5;;;;;;573.7798077999614;None;None;None;[];573.7798077999614;None;None;;573.7798077999614;None;;;S11960;2023_Jan_10_1755;VideoMask;2021.1.2;120.03922883920413;
3.0;m;033_o_m_s_a.jpg;sad;7.0;happy_126.3.wmv;happy;9.0;incongruent;130.0;150.0;198.85252030535366;s_h;;;;;0;45;45;45;;;;;;;576.8048411000054;None;578.6630561000202;578.9797183000483;580.1130003000144;580.1296050001401;582.1130361000542;None;None;0;;582.1130361000542;None;;;;;;;;6;;;;;;583.6544731000904;None;None;None;[];583.6544731000904;None;"['9', '9', '9']";"[0.5118454999756068, 0.9357680000830442, 1.4319232001435012]";583.6544731000904;None;;;S11960;2023_Jan_10_1755;VideoMask;2021.1.2;120.03922883920413;
3.0;m;033_o_m_h_a.jpg;happy;9.0;sad_136.1.wmv;sad;7.0;incongruent;120.0;160.0;176.97002883463455;h_s;;;;;0;46;46;46;;;;;;;586.6546780001372;None;588.337345100008;588.6546126999892;589.7794872999657;589.7960967000108;591.7877039001323;None;None;0;;591.7877039001323;None;;;;;;;;4;;;;;;593.3376399001572;None;None;None;[];593.3376399001572;None;['7'];[0.5007178001105785];593.3376399001572;None;;;S11960;2023_Jan_10_1755;VideoMask;2021.1.2;120.03922883920413;
9.0;f;019_m_f_h_a.jpg;happy;9.0;happy_10.1ns.avi;happy;9.0;congruent;120.0;150.0;157.2463435658512;h_h;;;;;0;47;47;47;;;;;;;596.3462712999899;None;597.8707103000488;598.1870904001407;599.3458296000026;599.3624688000418;606.7705804000143;None;None;0;;606.7705804000143;None;;;;;;;;6;;;;;;608.312027500011;None;None;None;[];608.312027500011;None;['9'];[0.31862889998592436];608.312027500011;None;;;S11960;2023_Jan_10_1755;VideoMask;2021.1.2;120.03922883920413;
2.0;f;012_o_f_h_a.jpg;happy;9.0;happy_2.2ns.avi;happy;9.0;congruent;120.0;150.0;206.34800317295262;h_h;;;;;0;48;48;48;;;;;;;611.3291758000851;None;613.2868906001095;613.6032050000504;614.7536130000371;614.7702881000005;626.9448961999733;None;None;0;;626.9448961999733;None;;;;;;;;6;;;;;;628.4949105000123;None;None;None;[];628.4949105000123;None;['9'];[0.38344520004466176];628.4949105000123;None;;;S11960;2023_Jan_10_1755;VideoMask;2021.1.2;120.03922883920413;
3.0;m;033_o_m_h_a.jpg;happy;9.0;happy_24.2ns.avi;happy;9.0;congruent;120.0;150.0;167.9423847659953;h_h;;;;;0;49;49;49;;;;;;;631.5035693000536;None;633.1029221999925;633.4198527000844;634.585829900112;634.6113388999365;638.277995100012;None;None;0;;638.277995100012;None;;;;;;;;6;;;;;;639.8279421001207;None;None;None;[];639.8279421001207;None;['9'];[0.3385550999082625];639.8279421001207;None;;;S11960;2023_Jan_10_1755;VideoMask;2021.1.2;120.03922883920413;
1.0;f;021_o_f_s_a.jpg;sad;7.0;happy_61.2ns.avi;happy;9.0;incongruent;130.0;150.0;210.94664004826666;s_h;;;;;0;50;50;50;;;;;;;642.8361086000223;None;644.8027600999922;645.119275300065;646.2942403999623;646.3110470999964;650.7775382001419;None;None;0;;650.7775382001419;None;;;;;;;;5;;;;;;652.3274636999704;None;None;None;[];652.3274636999704;None;None;;652.3274636999704;None;;;S11960;2023_Jan_10_1755;VideoMask;2021.1.2;120.03922883920413;
4.0;m;004_o_m_s_a.jpg;sad;7.0;sad_2.4ns.avi;sad;7.0;congruent;130.0;160.0;153.02079367163634;s_s;;;;;0;51;51;51;;;;;;;655.3607183001004;None;656.8522183001041;657.1688912000973;658.3022901001386;658.318923600018;666.268827999942;None;None;0;;666.268827999942;None;;;;;;;;4;;;;;;667.81857400015;None;None;None;[];667.81857400015;None;['7'];[0.715875499881804];667.81857400015;None;;;S11960;2023_Jan_10_1755;VideoMask;2021.1.2;120.03922883920413;
8.0;m;008_y_m_h_a.jpg;happy;9.0;happy_1.2ns.avi;happy;9.0;congruent;120.0;150.0;210.98946429383824;h_h;;;;;0;52;52;52;;;;;;;670.8187533000018;None;672.8179779001512;673.1350504001603;674.2768538999371;674.2934886000585;687.0680672000162;None;None;0;;687.0680672000162;None;;;;;;;;6;;;;;;688.6180449000094;None;None;None;[];688.6180449000094;None;['9'];[0.30849009985104203];688.6180449000094;None;;;S11960;2023_Jan_10_1755;VideoMask;2021.1.2;120.03922883920413;
2.0;f;012_o_f_s_a.jpg;sad;7.0;happy_52.2ns.avi;happy;9.0;incongruent;130.0;150.0;172.57202848318138;s_h;;;;;0;53;53;53;;;;;;;691.61838790006;None;693.2594252999406;693.5760719000828;694.7510633999482;694.7678282000124;698.2594372001477;None;None;0;;698.2594372001477;None;;;;;;;;6;;;;;;699.8092599001247;None;None;None;[];699.8092599001247;None;['9'];[0.34931450011208653];699.8092599001247;None;;;S11960;2023_Jan_10_1755;VideoMask;2021.1.2;120.03922883920413;
9.0;f;019_m_f_s_a.jpg;sad;7.0;happy_61.1ns.avi;happy;9.0;incongruent;130.0;150.0;181.3003220572762;s_h;;;;;0;54;54;54;;;;;;;702.8092800001614;None;704.5507145000156;704.8675508999731;706.0091665000655;706.0274591001216;713.3922974001616;None;None;0;;713.3922974001616;None;;;;;;;;5;;;;;;714.9421222000383;None;None;None;[];714.9421222000383;None;None;;714.9421222000383;None;;;S11960;2023_Jan_10_1755;VideoMask;2021.1.2;120.03922883920413;
0.0;f;030_o_f_h_a.jpg;happy;9.0;sad_133.1.wmv;sad;7.0;incongruent;120.0;160.0;198.86251500867985;h_s;;;;;0;55;55;55;;;;;;;717.9671010000166;None;719.8335744000506;720.150225300109;721.2754198000766;721.292090700008;723.2835323000327;None;None;0;;723.2835323000327;None;;;;;;;;3;;;;;;724.8334272000939;None;None;None;[];724.8334272000939;None;"['7', '7', '7']";"[0.45317370002157986, 0.8613678000401706, 2.0615290999412537]";724.8334272000939;None;;;S11960;2023_Jan_10_1755;VideoMask;2021.1.2;120.03922883920413;
0.0;f;040_y_f_h_a.jpg;happy;9.0;sad_128.2.wmv;sad;7.0;incongruent;120.0;160.0;206.10005857915363;h_s;;;;;0;56;56;56;;;;;;;727.8417946000118;None;729.7666430999525;730.0832629001234;731.2165429000743;731.2332266999874;733.2166244999971;None;None;0;;733.2166244999971;None;;;;;;;;4;;;;;;734.7665252001025;None;None;None;[];734.7665252001025;None;['7'];[0.6720477000344545];734.7665252001025;None;;;S11960;2023_Jan_10_1755;VideoMask;2021.1.2;120.03922883920413;
1.0;f;021_o_f_s_a.jpg;sad;7.0;sad_9.5ns.avi;sad;7.0;congruent;130.0;160.0;206.16642757875042;s_s;;;;;0;57;57;57;;;;;;;737.7750041999388;None;739.699648699956;740.0163994999602;741.1578357999679;741.1748210999649;746.874584000092;None;None;0;;746.874584000092;None;;;;;;;;4;;;;;;748.4245965001173;None;None;None;[];748.4245965001173;None;['7'];[0.7338775999378413];748.4245965001173;None;;;S11960;2023_Jan_10_1755;VideoMask;2021.1.2;120.03922883920413;
1.0;f;021_o_f_h_a.jpg;happy;9.0;happy_12.1ns.avi;happy;9.0;congruent;120.0;150.0;132.59080005900228;h_h;;;;;0;58;58;58;;;;;;;751.4330176000949;None;752.7576896999963;753.0744056999683;754.224362900015;754.2410037000664;761.8240980999544;None;None;0;;761.8240980999544;None;;;;;;;;6;;;;;;763.3822048001457;None;None;None;[];763.3822048001457;None;['9'];[0.36054550018161535];763.3822048001457;None;;;S11960;2023_Jan_10_1755;VideoMask;2021.1.2;120.03922883920413;
3.0;m;013_y_m_s_a.jpg;sad;7.0;happy_56.2ns.avi;happy;9.0;incongruent;130.0;150.0;163.39234110935848;s_h;;;;;0;59;59;59;;;;;;;766.3910149999429;None;767.9654616999906;768.2820957000367;769.4236598999705;769.4403588001151;774.4403862000909;None;None;0;;774.4403862000909;None;;;;;;;;5;;;;;;775.9986177000683;None;None;None;[];775.9986177000683;None;None;;775.9986177000683;None;;;S11960;2023_Jan_10_1755;VideoMask;2021.1.2;120.03922883920413;
;;;;;;;;;;;;;;;;;;;;;;;;;;;;;;;;;;;;;;;;;;;;;;;;;;;;;;;;;;;;;;;;779.0319167999551;None;;;;;;
