primePerson;primeGender;prime;primeEmotion;corrAnsPrime;target;targetEmotion;corrAnsTar;Cond;ID_Primer;ID_Target;JitterTime;Condition;example.thisRepN;example.thisTrialN;example.thisN;example.thisIndex;study.thisRepN;study.thisTrialN;study.thisN;study.thisIndex;MR_trigger_time;MR_trigger_number;text_intro.started;text_intro.stopped;text_probe.started;text_probe.stopped;polygon_ISI.started;polygon_ISI.stopped;polygon.started;polygon.stopped;primerImage.started;primerImage.stopped;response.started;response.stopped;key_resp.keys;key_resp.corr;key_resp.rt;key_resp.started;key_resp.stopped;slider_Text.started;slider_Text.stopped;slider_ex.response;slider_ex.rt;slider_ex.history;slider_ex.started;slider_ex.stopped;Rating;slider_resp_response.keys;slider_resp_response.rt;slider_resp_response.started;slider_resp_response.stopped;text_start.started;text_start.stopped;text_slider.started;text_slider.stopped;slider_stud.response;slider_stud.rt;slider_stud.history;slider_stud.started;slider_stud.stopped;slider_resp_study.keys;slider_resp_study.rt;slider_resp_study.started;slider_resp_study.stopped;text_ende.started;text_ende.stopped;participant;date;expName;psychopyVersion;frameRate;
1111;m;1111_m_m_h_a.jpg;happy;9;example_30.4ns.avi;neutral;7;incongruent;120.0;170.0;189.5874364012288;;0;0;0;0;;;;;26.995766300009564;1;27.081694900000002;29.081833700009156;29.081833700009156;None;31.09908890002407;None;33.34028150001541;33.65646980004385;34.82318110001506;34.83996080001816;39.14814820000902;None;7;1;0.7564957999857143;39.14814820000902;None;41.15686430002097;None;None;None;[];41.15686430002097;None;5;"['7', '9', '9', '9']";"[1.1558231000090018, 1.8276634000358172, 2.219874600006733, 2.6437327000312507]";41.15686430002097;None;;;;;;;;;;;;;;;;S11456;2022_May_16_1814;VideoMask;2021.1.2;118.59357502417632;
1113;f;1113_y_f_s_a.jpg;sad;7;example_30.3ns.avi;neutral;7;incongruent;130.0;170.0;229.02432995836998;;0;1;1;1;;;;;;;;;;;44.1564173999941;None;46.27277059998596;46.589521099987905;47.76454400003422;47.78121340001235;49.731198200024664;None;7;1;0.677413500030525;49.731198200024664;None;51.28106030001072;None;None;None;[];51.28106030001072;None;7;"['9', '9', '9', '7']";"[0.3596802999963984, 0.8555763999465853, 1.2238767999806441, 1.8474406999885105]";51.28106030001072;None;;;;;;;;;;;;;;;;S11456;2022_May_16_1814;VideoMask;2021.1.2;118.59357502417632;
9.0;f;019_m_f_h_a.jpg;happy;9.0;sad_115.1.wmv;sad;7.0;incongruent;120.0;160.0;128.09063432376465;h_s;;;;;0;0;0;0;;;;;;;55.31435910001164;None;56.58913169999141;56.90589120000368;58.047395700006746;58.06422330002533;60.03918760002125;None;9;0;0.8814811000484042;60.03918760002125;None;;;;;;;;3;;;;;54.28946180001367;None;61.59744869999122;None;None;None;[];61.59744869999122;None;"['9', '7', '7', '7', '7', '9']";"[0.8512297999695875, 1.2510510999709368, 1.483013299992308, 1.6992850999813527, 2.0833375999936834, 2.915250699967146]";61.59744869999122;None;;;S11456;2022_May_16_1814;VideoMask;2021.1.2;118.59357502417632;
3.0;m;033_o_m_s_a.jpg;sad;7.0;sad_94.2ns.avi;sad;7.0;congruent;130.0;160.0;182.29120173647655;s_s;;;;;0;1;1;1;;;;;;;64.59731049998663;None;66.31383020000067;66.63054640003247;67.76391020003939;67.78054509998765;70.45559600001434;None;7;0;0.48931289999745786;70.45559600001434;None;;;;;;;;3;;;;;;;72.01383439998608;None;None;None;[];72.01383439998608;None;"['7', '7', '7', '7']";"[0.3469981999951415, 0.626771799987182, 0.9308629999868572, 1.4267720999778248]";72.01383439998608;None;;;S11456;2022_May_16_1814;VideoMask;2021.1.2;118.59357502417632;
8.0;m;008_y_m_h_a.jpg;happy;9.0;happy_26.1ns.avi;happy;9.0;congruent;120.0;150.0;155.9437854594882;h_h;;;;;0;2;2;2;;;;;;;75.0138760000118;None;76.4967905000085;76.81359169998905;77.93869620002806;77.95534290000796;79.93858130002627;None;9;0;0.41435129998717457;79.93858130002627;None;;;;;;;;8;;;;;;;81.4885211000219;None;None;None;[];81.4885211000219;None;"['9', '9', '9']";"[0.4482516000280157, 0.7761421000468545, 1.000024900014978]";81.4885211000219;None;;;S11456;2022_May_16_1814;VideoMask;2021.1.2;118.59357502417632;
0.0;f;040_y_f_h_a.jpg;happy;9.0;sad_138.1.wmv;sad;7.0;incongruent;120.0;160.0;133.99071306426532;h_s;;;;;0;3;3;3;;;;;;;84.4885216000257;None;85.80480580002768;86.12158590002218;87.24675260001095;87.26332950004144;89.25493530003587;None;7;0;0.42583590000867844;89.25493530003587;None;;;;;;;;2;;;;;;;90.80488509999122;None;None;None;[];90.80488509999122;None;"['7', '7', '7', '7']";"[0.25168039998970926, 0.45968740002717823, 0.6356381999794394, 0.9238079999922775]";90.80488509999122;None;;;S11456;2022_May_16_1814;VideoMask;2021.1.2;118.59357502417632;
8.0;f;028_y_f_s_a.jpg;sad;7.0;sad_64.2ns.avi;sad;7.0;congruent;130.0;160.0;229.88540597086478;s_s;;;;;0;4;4;4;;;;;;;93.80480450001778;None;95.9547528999974;96.27132020000136;97.42961590003688;97.44634339999175;108.40448210004251;None;7;0;0.30838659999426454;108.40448210004251;None;;;;;;;;1;;;;;;;109.95430129999295;None;None;None;[];109.95430129999295;None;"['7', '7', '7', '7', '7']";"[0.43831880000652745, 1.142579499981366, 1.3022747000213712, 1.4302116999751888, 1.6863709000172094]";109.95430129999295;None;;;S11456;2022_May_16_1814;VideoMask;2021.1.2;118.59357502417632;
7.0;m;027_o_m_s_a.jpg;sad;7.0;sad_10.4ns.avi;sad;7.0;congruent;130.0;160.0;185.20129417468752;s_s;;;;;0;5;5;5;;;;;;;112.95420869998634;None;114.70399830001406;115.02075389999663;116.20447870000498;116.2289107000106;119.3208614999894;None;7;0;0.3920129999751225;119.3208614999894;None;;;;;;;;3;;;;;;;120.87061260000337;None;None;None;[];120.87061260000337;None;"['7', '7']";"[0.5460369999636896, 0.8741764000151306]";120.87061260000337;None;;;S11456;2022_May_16_1814;VideoMask;2021.1.2;118.59357502417632;
2.0;f;012_o_f_s_a.jpg;sad;7.0;sad_7.5ns.avi;sad;7.0;congruent;130.0;160.0;220.27842655424388;s_s;;;;;0;6;6;6;;;;;;;123.87887260003481;None;125.91207060002489;126.22875970002497;127.4041828000336;127.42878020001808;130.15392340003746;None;7;0;0.5266815000213683;130.15392340003746;None;;;;;;;;2;;;;;;;131.7286357000121;None;None;None;[];131.7286357000121;None;"['7', '7', '7']";"[0.29614250001031905, 0.5038998000090942, 0.6719523000065237]";131.7286357000121;None;;;S11456;2022_May_16_1814;VideoMask;2021.1.2;118.59357502417632;
2.0;f;012_o_f_h_a.jpg;happy;9.0;happy_27.1ns.avi;happy;9.0;congruent;120.0;150.0;146.44967055810616;h_h;;;;;0;7;7;7;;;;;;;134.73698029998923;None;136.15340310003376;136.47009489999618;137.63687700004084;137.65345650003292;140.09508470003493;None;9;0;0.7056557000032626;140.09508470003493;None;;;;;;;;9;;;;;;;141.64500640000915;None;None;None;[];141.64500640000915;None;"['9', '9', '9', '9']";"[0.28384009998990223, 0.5395614999579266, 0.7956940999720246, 1.0036199999740347]";141.64500640000915;None;;;S11456;2022_May_16_1814;VideoMask;2021.1.2;118.59357502417632;
8.0;f;028_y_f_h_a.jpg;happy;9.0;sad_119.1.wmv;sad;7.0;incongruent;120.0;160.0;148.71526953572538;h_s;;;;;0;8;8;8;;;;;;;144.66181349998806;None;146.1113716000109;146.42812490003416;147.5615378000075;147.57814060000237;149.62822370004142;None;7;0;1.0364464999875054;149.62822370004142;None;;;;;;;;3;;;;;;;151.17805620003492;None;None;None;[];151.17805620003492;None;"['7', '7']";"[0.254647699999623, 0.6386784000205807]";151.17805620003492;None;;;S11456;2022_May_16_1814;VideoMask;2021.1.2;118.59357502417632;
6.0;m;016_y_m_s_a.jpg;sad;7.0;happy_60.4ns.avi;happy;9.0;incongruent;130.0;150.0;126.02367393611817;s_h;;;;;0;9;9;9;;;;;;;154.18639769998845;None;155.4528052000096;155.769565900031;156.91120169998612;156.92787740001222;162.69438260002062;None;9;0;0.314277800032869;162.69438260002062;None;;;;;;;;9;;;;;;;164.244339100027;None;None;None;[];164.244339100027;None;"['9', '9', '9', '9', '9', '9']";"[0.35629840003093705, 0.6684785000397824, 0.9163014000514522, 1.1163251000107266, 1.5082109000068158, 1.6761964000179432]";164.244339100027;None;;;S11456;2022_May_16_1814;VideoMask;2021.1.2;118.59357502417632;
9.0;f;019_m_f_s_a.jpg;sad;7.0;sad_8.4ns.avi;sad;7.0;congruent;130.0;160.0;171.6633093155257;s_s;;;;;0;10;10;10;;;;;;;167.25260840001283;None;168.92735240003094;169.2440946000279;170.4107965999865;170.42747970001074;178.51052120001987;None;7;0;0.6341556999832392;178.51052120001987;None;;;;;;;;1;;;;;;;180.06041139998706;None;None;None;[];180.06041139998706;None;"['7', '7', '7', '7', '7']";"[0.4042907999828458, 0.748370099987369, 0.9722174999769777, 1.1722513000131585, 1.3323830000008456]";180.06041139998706;None;;;S11456;2022_May_16_1814;VideoMask;2021.1.2;118.59357502417632;
4.0;m;004_o_m_h_a.jpg;happy;9.0;happy_1.1ns.avi;happy;9.0;congruent;120.0;150.0;203.50057144619865;h_h;;;;;0;11;11;11;;;;;;;183.06036220001988;None;185.0351556999958;185.35191970004234;186.551979699987;186.56856029998744;200.9764841000433;None;None;0;;200.9764841000433;None;;;;;;;;7;;;;;;;202.72650280001108;None;None;None;[];202.72650280001108;None;"['9', '9', '9']";"[0.3301948999869637, 0.7783804999780841, 1.1462286000023596]";202.72650280001108;None;;;S11456;2022_May_16_1814;VideoMask;2021.1.2;118.59357502417632;
7.0;m;027_o_m_h_a.jpg;happy;9.0;happy_20.1ns.avi;happy;9.0;congruent;120.0;150.0;152.91127178874285;h_h;;;;;0;12;12;12;;;;;;;205.72647640004288;None;207.20950659998925;207.52625100000296;208.659647100023;208.67628660000628;211.6762749000336;None;9;0;0.5724637000239454;211.6762749000336;None;;;;;;;;8;;;;;;;213.2261509000091;None;None;None;[];213.2261509000091;None;"['9', '9', '9']";"[0.28657339996425435, 0.6305300999665633, 1.0305768999969587]";213.2261509000091;None;;;S11456;2022_May_16_1814;VideoMask;2021.1.2;118.59357502417632;
0.0;f;040_y_f_s_a.jpg;sad;7.0;sad_94.3ns.avi;sad;7.0;congruent;130.0;160.0;155.27414203894395;s_s;;;;;0;13;13;13;;;;;;;216.226150100003;None;217.71754530002363;218.03418920002878;219.26753740001004;219.28436900000088;221.79260360001354;None;7;0;0.28023719997145236;221.79260360001354;None;;;;;;;;3;;;;;;;223.3425114999991;None;None;None;[];223.3425114999991;None;"['7', '7', '7']";"[0.4023005999624729, 0.7220096999662928, 1.0503253999631852]";223.3425114999991;None;;;S11456;2022_May_16_1814;VideoMask;2021.1.2;118.59357502417632;
0.0;f;030_o_f_s_a.jpg;sad;7.0;sad_68.1ns.avi;sad;7.0;congruent;130.0;160.0;158.9411396037211;s_s;;;;;0;14;14;14;;;;;;;226.35073800000828;None;227.9007064999896;228.21723469998688;229.4173174999887;229.4339966000407;236.77551260002656;None;7;0;0.47320559999207035;236.77551260002656;None;;;;;;;;2;;;;;;;238.3253654;None;None;None;[];238.3253654;None;"['7', '7', '7']";"[0.3073549999971874, 0.7234962999937125, 0.9953183999750763]";238.3253654;None;;;S11456;2022_May_16_1814;VideoMask;2021.1.2;118.59357502417632;
0.0;f;030_o_f_h_a.jpg;happy;9.0;sad_127.1.wmv;sad;7.0;incongruent;120.0;160.0;180.59976631384873;h_s;;;;;0;15;15;15;;;;;;;241.32532800000627;None;243.04176590003772;243.3585410999949;244.49174319999292;244.50880100001814;246.49170620000223;None;8;0;1.0850474999751896;246.49170620000223;None;;;;;;;;5;;;;;;;248.04165870003635;None;None;None;[];248.04165870003635;None;None;;248.04165870003635;None;;;S11456;2022_May_16_1814;VideoMask;2021.1.2;118.59357502417632;
8.0;m;008_y_m_s_a.jpg;sad;7.0;happy_133.3.wmv;happy;9.0;incongruent;130.0;150.0;152.577966552593;s_h;;;;;0;16;16;16;;;;;;;251.07501349999802;None;252.55812639999203;252.87486109999008;253.99999260000186;254.0164066000143;256.0081502000103;None;9;0;1.0245005000033416;256.0081502000103;None;;;;;;;;7;;;;;;;257.5580592000042;None;None;None;[];257.5580592000042;None;"['9', '9', '9']";"[0.2427093999576755, 0.490782400011085, 1.202696799999103]";257.5580592000042;None;;;S11456;2022_May_16_1814;VideoMask;2021.1.2;118.59357502417632;
3.0;m;033_o_m_h_a.jpg;happy;9.0;sad_128.1.wmv;sad;7.0;incongruent;120.0;160.0;171.0492454518585;h_s;;;;;0;17;17;17;;;;;;;260.56649689999176;None;262.2078474999871;262.52449969999725;263.666537000041;263.69128560001263;265.65785810002126;None;7;0;0.3748446000390686;265.65785810002126;None;;;;;;;;4;;;;;;;267.5745629000012;None;None;None;[];267.5745629000012;None;"['7', '7']";"[0.30631329998141155, 0.6021601999527775]";267.5745629000012;None;;;S11456;2022_May_16_1814;VideoMask;2021.1.2;118.59357502417632;
1.0;f;021_o_f_h_a.jpg;happy;9.0;sad_116.1.wmv;sad;7.0;incongruent;120.0;160.0;184.06847610053055;h_s;;;;;0;18;18;18;;;;;;;270.58280700002797;None;272.3408586999867;272.6575807000045;273.7908606000128;273.8076061999891;275.8075905999867;None;7;0;0.3852478999760933;275.8075905999867;None;;;;;;;;2;;;;;;;277.35750660003396;None;None;None;[];277.35750660003396;None;"['7', '7', '7', '7', '7']";"[0.23532279999926686, 0.4431373000261374, 0.6431508000241593, 0.8591827999916859, 1.139157099998556]";277.35750660003396;None;;;S11456;2022_May_16_1814;VideoMask;2021.1.2;118.59357502417632;
4.0;m;004_o_m_s_a.jpg;sad;7.0;happy_28.1ns.avi;happy;9.0;incongruent;130.0;150.0;157.40741103039684;s_h;;;;;0;19;19;19;;;;;;;280.35747789999004;None;281.8739140999969;282.1906125000096;283.3744282000116;283.39897500001825;287.71548760001315;None;9;0;0.3172490000142716;287.71548760001315;None;;;;;;;;9;;;;;;;289.2654749000212;None;None;None;[];289.2654749000212;None;"['9', '9', '9', '9', '9']";"[0.2711956000421196, 0.4711746000102721, 0.7672773000085726, 0.9351820000447333, 1.1031191000365652]";289.2654749000212;None;;;S11456;2022_May_16_1814;VideoMask;2021.1.2;118.59357502417632;
8.0;f;028_y_f_s_a.jpg;sad;7.0;happy_122.3.wmv;happy;9.0;incongruent;130.0;150.0;171.8670540936116;s_h;;;;;0;20;20;20;;;;;;;292.27368290000595;None;293.91520470002433;294.2319150000112;295.3736631000065;295.39028019999387;297.37396260001697;None;9;0;0.5867916999850422;297.37396260001697;None;;;;;;;;7;;;;;;;299.0317776000011;None;None;None;[];299.0317776000011;None;"['9', '9', '9']";"[0.17691959999501705, 0.4969725999981165, 0.7694538999930955]";299.0317776000011;None;;;S11456;2022_May_16_1814;VideoMask;2021.1.2;118.59357502417632;
8.0;m;008_y_m_s_a.jpg;sad;7.0;sad_6.5ns.avi;sad;7.0;congruent;130.0;160.0;170.39333839271438;s_s;;;;;0;21;21;21;;;;;;;302.04007759998785;None;303.67324790003477;303.9900157999946;305.14827830001013;305.16485820000526;310.1399450000026;None;7;0;0.3249631999642588;310.1399450000026;None;;;;;;;;3;;;;;;;311.68977360002464;None;None;None;[];311.68977360002464;None;"['7', '7', '7']";"[0.29501709999749437, 0.6150522000389174, 1.2470072000287473]";311.68977360002464;None;;;S11456;2022_May_16_1814;VideoMask;2021.1.2;118.59357502417632;
8.0;f;028_y_f_h_a.jpg;happy;9.0;happy_23.1ns.avi;happy;9.0;congruent;120.0;150.0;225.70986890587952;h_h;;;;;0;22;22;22;;;;;;;314.6981885000132;None;316.7895028000348;317.1062297000317;318.28130420000525;318.29791210003896;322.81458080001175;None;9;0;0.40224849997321144;322.81458080001175;None;;;;;;;;9;;;;;;;324.40604810003424;None;None;None;[];324.40604810003424;None;"['9', '9', '9', '9', '9', '9']";"[12.670953500026371, 0.1946411999524571, 0.3866255999892019, 0.5547001999802887, 0.74653770000441, 0.9385937000042759]";324.40604810003424;None;;;S11456;2022_May_16_1814;VideoMask;2021.1.2;118.59357502417632;
8.0;m;008_y_m_h_a.jpg;happy;9.0;sad_111.1.wmv;sad;7.0;incongruent;120.0;160.0;152.63076835312847;h_s;;;;;0;23;23;23;;;;;;;327.38108200003626;None;328.85578169999644;329.1724677000311;330.3058721999987;330.3225539000123;332.3141590000014;None;7;0;0.606505100033246;332.3141590000014;None;;;;;;;;3;;;;;;;333.8641086000134;None;None;None;[];333.8641086000134;None;"['7', '7', '7', '7', '7']";"[0.3286843999521807, 0.6967068999656476, 0.9847058999584988, 1.3766933999722824, 2.128830699948594]";333.8641086000134;None;;;S11456;2022_May_16_1814;VideoMask;2021.1.2;118.59357502417632;
0.0;f;040_y_f_s_a.jpg;sad;7.0;sad_67.2ns.avi;sad;7.0;congruent;130.0;160.0;220.9892697323079;s_s;;;;;0;24;24;24;;;;;;;336.8640771000064;None;338.9221591000096;339.2388660000288;340.4556106000091;340.4722056000028;349.61380400002236;None;8;0;0.3709863999974914;349.61380400002236;None;;;;;;;;5;;;;;;;351.33854090003297;None;None;None;[];351.33854090003297;None;None;;351.33854090003297;None;;;S11456;2022_May_16_1814;VideoMask;2021.1.2;118.59357502417632;
8.0;m;008_y_m_s_a.jpg;sad;7.0;happy_29.1ns.avi;happy;9.0;incongruent;130.0;150.0;120.0316142834122;s_h;;;;;0;25;25;25;;;;;;;354.36346740002045;None;355.5716385000269;355.8883533999906;357.0467003000085;357.0634088999941;359.71344780002255;None;9;0;0.519457699963823;359.71344780002255;None;;;;;;;;7;;;;;;;361.2716440000222;None;None;None;[];361.2716440000222;None;"['9', '9']";"[0.3052241000114009, 0.6170629000407644]";361.2716440000222;None;;;S11456;2022_May_16_1814;VideoMask;2021.1.2;118.59357502417632;
6.0;m;016_y_m_s_a.jpg;sad;7.0;sad_8.3ns.avi;sad;7.0;congruent;130.0;160.0;152.85371098242734;s_s;;;;;0;26;26;26;;;;;;;364.2798591000028;None;365.7712736999965;366.08804629999213;367.31346670002677;367.33806830004323;374.9795086000231;None;7;0;0.3173522000433877;374.9795086000231;None;;;;;;;;3;;;;;;;376.52946570003405;None;None;None;[];376.52946570003405;None;"['7', '7']";"[0.29531620000489056, 0.6072523000184447]";376.52946570003405;None;;;S11456;2022_May_16_1814;VideoMask;2021.1.2;118.59357502417632;
6.0;m;016_y_m_h_a.jpg;happy;9.0;sad_114.1.wmv;sad;7.0;incongruent;120.0;160.0;136.20550699298644;h_s;;;;;0;27;27;27;;;;;;;379.53768310003215;None;380.87916380004026;381.19592120003654;382.3378551999922;382.35465960000874;384.3294213000336;None;7;0;0.5273649000446312;384.3294213000336;None;;;;;;;;1;;;;;;;385.87920389999636;None;None;None;[];385.87920389999636;None;"['7', '7', '7', '7', '7']";"[0.2818461999995634, 0.5374935999861918, 0.75342239998281, 1.1135265000048093, 1.417770300002303]";385.87920389999636;None;;;S11456;2022_May_16_1814;VideoMask;2021.1.2;118.59357502417632;
7.0;m;027_o_m_s_a.jpg;sad;7.0;happy_117.3.wmv;happy;9.0;incongruent;130.0;150.0;215.61964028550614;s_h;;;;;0;28;28;28;;;;;;;388.8874905999983;None;390.8872320000082;391.20394969999325;392.32898180000484;392.34559169999557;394.3372774000163;None;9;0;0.3995953999692574;394.3372774000163;None;;;;;;;;7;;;;;;;395.8871710000094;None;None;None;[];395.8871710000094;None;"['9', '9']";"[0.28971569996792823, 0.6174843999906443]";395.8871710000094;None;;;S11456;2022_May_16_1814;VideoMask;2021.1.2;118.59357502417632;
6.0;m;016_y_m_h_a.jpg;happy;9.0;happy_9.2ns.avi;happy;9.0;congruent;120.0;150.0;130.52042428082717;h_h;;;;;0;29;29;29;;;;;;;398.88720110000577;None;400.1786123000202;400.4954205999966;401.6453926000395;401.66200650000246;407.57028620003257;None;9;0;0.3745912000304088;407.57028620003257;None;;;;;;;;8;;;;;;;409.12824819999514;None;None;None;[];409.12824819999514;None;"['9', '9', '9']";"[0.32072219997644424, 0.6166672999970615, 0.9286215999745764]";409.12824819999514;None;;;S11456;2022_May_16_1814;VideoMask;2021.1.2;118.59357502417632;
0.0;f;040_y_f_s_a.jpg;sad;7.0;happy_127.3.wmv;happy;9.0;incongruent;130.0;150.0;131.7195455720239;s_h;;;;;0;30;30;30;;;;;;;412.1367925000377;None;413.4365109000355;413.75325420004083;414.87833850004245;414.8949018000276;416.9699660000042;None;9;0;0.3587953000096604;416.9699660000042;None;;;;;;;;8;;;;;;;418.5281730000279;None;None;None;[];418.5281730000279;None;"['9', '9', '9']";"[0.1927504000486806, 0.480530800006818, 0.720552500046324]";418.5281730000279;None;;;S11456;2022_May_16_1814;VideoMask;2021.1.2;118.59357502417632;
0.0;f;030_o_f_s_a.jpg;sad;7.0;happy_125.3.wmv;happy;9.0;incongruent;130.0;150.0;220.51454909128134;s_h;;;;;0;31;31;31;;;;;;;421.53658840002026;None;423.5862475000322;423.9028684000368;425.04466539999703;425.06189190002624;427.0362440000172;None;9;0;0.4046191000379622;427.0362440000172;None;;;;;;;;9;;;;;;;428.58619380003074;None;None;None;[];428.58619380003074;None;"['9', '9', '9', '9', '9']";"[0.2866779000032693, 0.5586379000451416, 0.7985197000089101, 1.0706218000268564, 1.4069056000444107]";428.58619380003074;None;;;S11456;2022_May_16_1814;VideoMask;2021.1.2;118.59357502417632;
0.0;f;030_o_f_s_a.jpg;sad;7.0;sad_64.3ns.avi;sad;7.0;congruent;130.0;160.0;165.78667874766072;s_s;;;;;0;32;32;32;;;;;;;431.58608869998716;None;433.17773500003386;433.49430140003096;434.62768880004296;434.6443767999881;439.6277287999983;None;7;0;0.3252106999862008;439.6277287999983;None;;;;;;;;1;;;;;;;441.1774016999989;None;None;None;[];441.1774016999989;None;"['7', '7', '7', '7', '7', '7', '7']";"[0.31166349997511134, 0.5355052999802865, 0.7433487999951467, 1.1995387999922968, 1.5514302999945357, 1.783382800000254, 2.0152824000106193]";441.1774016999989;None;;;S11456;2022_May_16_1814;VideoMask;2021.1.2;118.59357502417632;
3.0;m;013_y_m_s_a.jpg;sad;7.0;sad_7.7ns.avi;sad;7.0;congruent;130.0;160.0;196.24182255763262;s_s;;;;;0;33;33;33;;;;;;;444.1773745000246;None;446.0271885000402;446.3438247999875;447.4771189999883;447.4937714000116;453.4771578999935;None;7;0;1.1236923999967985;453.4771578999935;None;;;;;;;;3;;;;;;;455.02699919999577;None;None;None;[];455.02699919999577;None;"['7', '7']";"[0.3177993000135757, 0.8220185000100173]";455.02699919999577;None;;;S11456;2022_May_16_1814;VideoMask;2021.1.2;118.59357502417632;
3.0;m;013_y_m_h_a.jpg;happy;9.0;happy_9.1ns.avi;happy;9.0;congruent;120.0;150.0;165.1890303600433;h_h;;;;;0;34;34;34;;;;;;;458.03534030000446;None;459.6184576000087;459.93522949999897;461.08524500002386;461.10176749998936;464.2934119999991;None;9;0;0.37942010001279414;464.2934119999991;None;;;;;;;;7;;;;;;;465.84329809999326;None;None;None;[];465.84329809999326;None;"['9', '9']";"[0.3017679000040516, 0.6216124999918975]";465.84329809999326;None;;;S11456;2022_May_16_1814;VideoMask;2021.1.2;118.59357502417632;
4.0;m;004_o_m_h_a.jpg;happy;9.0;sad_95.1ns.avi;sad;7.0;incongruent;120.0;160.0;152.68270002069931;h_s;;;;;0;35;35;35;;;;;;;468.8432634000201;None;470.343102200015;470.659830300021;471.88468680001097;471.90134929999476;480.5844073999906;None;7;0;0.36854709999170154;480.5844073999906;None;;;;;;;;4;;;;;;;482.12622000003466;None;None;None;[];482.12622000003466;None;['7'];[0.28264270001091063];482.12622000003466;None;;;S11456;2022_May_16_1814;VideoMask;2021.1.2;118.59357502417632;
3.0;m;013_y_m_h_a.jpg;happy;9.0;sad_113.2.wmv;sad;7.0;incongruent;120.0;160.0;217.4973891947951;h_s;;;;;0;36;36;36;;;;;;;485.13455770001747;None;487.15924390003784;487.47604750003666;488.60105190001195;488.61753510002745;490.60919200000353;None;7;0;0.41558520001126453;490.60919200000353;None;;;;;;;;3;;;;;;;492.1509171000216;None;None;None;[];492.1509171000216;None;"['7', '7']";"[0.29791330004809424, 0.5378990000463091]";492.1509171000216;None;;;S11456;2022_May_16_1814;VideoMask;2021.1.2;118.59357502417632;
4.0;m;004_o_m_h_a.jpg;happy;9.0;happy_25.1ns.avi;happy;9.0;congruent;120.0;150.0;216.63044503818386;h_h;;;;;0;37;37;37;;;;;;;495.1598690000246;None;497.1672894000076;497.48401780001586;498.6340595000074;498.65070230001584;502.30927900003735;None;9;0;0.3878936999826692;502.30927900003735;None;;;;;;;;8;;;;;;;504.0588915999979;None;None;None;[];504.0588915999979;None;"['9', '9', '9', '9']";"[0.1579325000056997, 0.47821679996559396, 0.733813899976667, 1.0539096999564208]";504.0588915999979;None;;;S11456;2022_May_16_1814;VideoMask;2021.1.2;118.59357502417632;
4.0;m;004_o_m_s_a.jpg;sad;7.0;happy_131.2.wmv;happy;9.0;incongruent;130.0;150.0;181.38407540847405;s_h;;;;;0;38;38;38;;;;;;;507.0589105000254;None;508.79193680000026;509.10866540001007;510.241804099991;510.2586552000139;512.2503530000104;None;9;0;0.3905980000272393;512.2503530000104;None;;;;;;;;9;;;;;;;513.7918348000385;None;None;None;[];513.7918348000385;None;"['9', '9', '9', '9']";"[0.2409948999993503, 0.49693219998152927, 0.7450962000293657, 1.040920500003267]";513.7918348000385;None;;;S11456;2022_May_16_1814;VideoMask;2021.1.2;118.59357502417632;
0.0;f;040_y_f_h_a.jpg;happy;9.0;happy_24.3ns.avi;happy;9.0;congruent;120.0;150.0;213.25460698950434;h_h;;;;;0;39;39;39;;;;;;;516.7919264000375;None;518.758264700009;519.0749603000004;520.2584165000007;520.2750430000015;522.1333432000247;None;9;0;0.3796355999656953;522.1333432000247;None;;;;;;;;9;;;;;;;523.6915860000299;None;None;None;[];523.6915860000299;None;"['9', '9', '9', '9', '9', '9']";"[0.29321340000024065, 0.5891698999912478, 0.8373194000450894, 1.0851784000406042, 1.3412061000126414, 1.5891747000277974]";523.6915860000299;None;;;S11456;2022_May_16_1814;VideoMask;2021.1.2;118.59357502417632;
2.0;f;012_o_f_s_a.jpg;sad;7.0;happy_139.1.wmv;happy;9.0;incongruent;130.0;150.0;162.31500468041804;s_h;;;;;0;40;40;40;;;;;;;526.6916808999958;None;528.2497143000364;528.5663880000357;529.7001121999929;529.7245483000297;531.6998083000071;None;9;0;0.38909810001496226;531.6998083000071;None;;;;;;;;9;;;;;;;533.2746069999994;None;None;None;[];533.2746069999994;None;"['9', '9', '9', '9']";"[0.23826299997745082, 0.44614729995373636, 0.6381038999534212, 1.3342566000064835]";533.2746069999994;None;;;S11456;2022_May_16_1814;VideoMask;2021.1.2;118.59357502417632;
0.0;f;030_o_f_h_a.jpg;happy;9.0;happy_24.1ns.avi;happy;9.0;congruent;120.0;150.0;168.36256624020774;h_h;;;;;0;41;41;41;;;;;;;536.2746864000219;None;537.8827048999956;538.1993746000226;539.3415129000205;539.3661494000116;542.6577689000405;None;9;0;0.3992594000301324;542.6577689000405;None;;;;;;;;8;;;;;;;544.2076194999972;None;None;None;[];544.2076194999972;None;"['9', '9', '9']";"[0.2013174999738112, 0.45736529998248443, 0.7133979999925941]";544.2076194999972;None;;;S11456;2022_May_16_1814;VideoMask;2021.1.2;118.59357502417632;
2.0;f;012_o_f_h_a.jpg;happy;9.0;sad_113.1.wmv;sad;7.0;incongruent;120.0;160.0;177.44551734737394;h_s;;;;;0;42;42;42;;;;;;;547.2076827000128;None;548.8906970000244;549.2074233000167;550.340505500033;550.3572305000271;552.3408648000332;None;7;0;0.32397840003250167;552.3408648000332;None;;;;;;;;3;;;;;;;553.890647799999;None;None;None;[];553.890647799999;None;"['7', '7']";"[0.2782303999993019, 0.8144801000016741]";553.890647799999;None;;;S11456;2022_May_16_1814;VideoMask;2021.1.2;118.59357502417632;
3.0;m;033_o_m_s_a.jpg;sad;7.0;sad_64.5ns.avi;sad;7.0;congruent;130.0;160.0;130.55717223801247;s_s;;;;;0;43;43;43;;;;;;;556.8905678000301;None;558.190411299991;558.5071483000065;559.6655249000178;559.6821497000055;566.2236603000201;None;7;0;0.4012139000114985;566.2236603000201;None;;;;;;;;1;;;;;;;567.7735927000176;None;None;None;[];567.7735927000176;None;"['7', '7', '7', '7', '7', '7', '7']";"[0.20337870001094416, 0.41924520005704835, 0.595181800017599, 0.7631287000258453, 0.9311611000448465, 1.0911636000382714, 1.2351918000495061]";567.7735927000176;None;;;S11456;2022_May_16_1814;VideoMask;2021.1.2;118.59357502417632;
7.0;m;027_o_m_h_a.jpg;happy;9.0;sad_117.1.wmv;sad;7.0;incongruent;120.0;160.0;181.28665202824095;h_s;;;;;0;44;44;44;;;;;;;570.7736240000231;None;572.4983217000263;572.8150249000173;573.9490439000074;573.9734023000346;575.9483093000017;None;None;0;;575.9483093000017;None;;;;;;;;5;;;;;;;577.4980907000136;None;None;None;[];577.4980907000136;None;None;;577.4980907000136;None;;;S11456;2022_May_16_1814;VideoMask;2021.1.2;118.59357502417632;
3.0;m;033_o_m_s_a.jpg;sad;7.0;happy_126.3.wmv;happy;9.0;incongruent;130.0;150.0;198.85252030535366;s_h;;;;;0;45;45;45;;;;;;;580.5315631999983;None;582.3980407000054;582.7147288999986;583.87289410003;583.8896098000114;585.8564086999977;None;9;0;1.0004044000525028;585.8564086999977;None;;;;;;;;7;;;;;;;587.4062947999919;None;None;None;[];587.4062947999919;None;"['9', '9']";"[0.362566199968569, 0.6345108000095934]";587.4062947999919;None;;;S11456;2022_May_16_1814;VideoMask;2021.1.2;118.59357502417632;
3.0;m;033_o_m_h_a.jpg;happy;9.0;sad_136.1.wmv;sad;7.0;incongruent;120.0;160.0;176.97002883463455;h_s;;;;;0;46;46;46;;;;;;;590.4062030999921;None;592.0892763999873;592.4061205000035;593.5311804999947;593.5478507000371;595.5393910999992;None;7;0;0.797506799979601;595.5393910999992;None;;;;;;;;3;;;;;;;597.0893456999911;None;None;None;[];597.0893456999911;None;"['7', '7']";"[0.23143149999668822, 0.5355410000192933]";597.0893456999911;None;;;S11456;2022_May_16_1814;VideoMask;2021.1.2;118.59357502417632;
9.0;f;019_m_f_h_a.jpg;happy;9.0;happy_10.1ns.avi;happy;9.0;congruent;120.0;150.0;157.2463435658512;h_h;;;;;0;47;47;47;;;;;;;600.0977260000072;None;601.630736000021;601.9474710000213;603.0891979000298;603.1058834000141;610.530599699996;None;9;0;0.36632779997307807;610.530599699996;None;;;;;;;;6;;;;;;;612.0805738000199;None;None;None;[];612.0805738000199;None;['9'];[0.24871430004714057];612.0805738000199;None;;;S11456;2022_May_16_1814;VideoMask;2021.1.2;118.59357502417632;
2.0;f;012_o_f_h_a.jpg;happy;9.0;happy_2.2ns.avi;happy;9.0;congruent;120.0;150.0;206.34800317295262;h_h;;;;;0;48;48;48;;;;;;;615.0804500000086;None;617.0471633000416;617.3636573000113;618.538785300043;618.55534359999;630.6968707999913;None;9;0;0.3758782999939285;630.6968707999913;None;;;;;;;;7;;;;;;;632.2549473000108;None;None;None;[];632.2549473000108;None;"['9', '9']";"[0.30594220000784844, 0.5782131999731064]";632.2549473000108;None;;;S11456;2022_May_16_1814;VideoMask;2021.1.2;118.59357502417632;
3.0;m;033_o_m_h_a.jpg;happy;9.0;happy_24.2ns.avi;happy;9.0;congruent;120.0;150.0;167.9423847659953;h_h;;;;;0;49;49;49;;;;;;;635.2548746000393;None;636.8461810000008;637.1631338000298;638.3294669000315;638.3462779000401;642.0213574999943;None;9;0;0.38757799996528774;642.0213574999943;None;;;;;;;;8;;;;;;;643.5711645000265;None;None;None;[];643.5711645000265;None;"['9', '9', '9']";"[0.19777930004056543, 0.43765020003775135, 0.7176958000054583]";643.5711645000265;None;;;S11456;2022_May_16_1814;VideoMask;2021.1.2;118.59357502417632;
1.0;f;021_o_f_s_a.jpg;sad;7.0;happy_61.2ns.avi;happy;9.0;incongruent;130.0;150.0;210.94664004826666;s_h;;;;;0;50;50;50;;;;;;;646.5801463000244;None;648.5292258000118;648.8460049999994;650.0126885999925;650.0293725000229;654.5043815000099;None;9;0;0.280458599969279;654.5043815000099;None;;;;;;;;7;;;;;;;656.0542224000092;None;None;None;[];656.0542224000092;None;"['9', '9', '9']";"[0.2346667999518104, 0.4825245999963954, 0.754774599976372]";656.0542224000092;None;;;S11456;2022_May_16_1814;VideoMask;2021.1.2;118.59357502417632;
4.0;m;004_o_m_s_a.jpg;sad;7.0;sad_2.4ns.avi;sad;7.0;congruent;130.0;160.0;153.02079367163634;s_s;;;;;0;51;51;51;;;;;;;659.0541050999891;None;660.5623036000179;660.8789139;662.0296928000171;662.0538216000423;669.9706570000271;None;7;0;0.3344376999884844;669.9706570000271;None;;;;;;;;2;;;;;;;671.5537604000419;None;None;None;[];671.5537604000419;None;"['7', '7', '7']";"[0.30309659999329597, 0.5030290000140667, 0.7591276000021026]";671.5537604000419;None;;;S11456;2022_May_16_1814;VideoMask;2021.1.2;118.59357502417632;
8.0;m;008_y_m_h_a.jpg;happy;9.0;happy_1.2ns.avi;happy;9.0;congruent;120.0;150.0;210.98946429383824;h_h;;;;;0;52;52;52;;;;;;;674.5620917000342;None;676.5618012000341;676.8784603000386;678.0285822000005;678.0452293000417;690.803023800021;None;9;0;0.34976269997423515;690.803023800021;None;;;;;;;;7;;;;;;;692.353103600035;None;None;None;[];692.353103600035;None;"['9', '9', '9', '7']";"[0.29606439999770373, 0.5677073000115342, 0.823819299985189, 1.6318884000065736]";692.353103600035;None;;;S11456;2022_May_16_1814;VideoMask;2021.1.2;118.59357502417632;
2.0;f;012_o_f_s_a.jpg;sad;7.0;happy_52.2ns.avi;happy;9.0;incongruent;130.0;150.0;172.57202848318138;s_h;;;;;0;53;53;53;;;;;;;695.3531074000057;None;696.9944839000236;697.3111551000038;698.4527618000284;698.4695517999935;702.0029573999927;None;9;0;0.485985699982848;702.0029573999927;None;;;;;;;;8;;;;;;;703.552719600033;None;None;None;[];703.552719600033;None;"['9', '9', '9']";"[0.21647380001377314, 0.45609250001143664, 0.6881769000319764]";703.552719600033;None;;;S11456;2022_May_16_1814;VideoMask;2021.1.2;118.59357502417632;
9.0;f;019_m_f_s_a.jpg;sad;7.0;happy_61.1ns.avi;happy;9.0;incongruent;130.0;150.0;181.3003220572762;s_h;;;;;0;54;54;54;;;;;;;706.5611308999942;None;708.3024643000099;708.6191799000371;709.8112695000018;709.8359160000109;717.1444098000065;None;9;0;0.20857459999388084;717.1444098000065;None;;;;;;;;7;;;;;;;718.7022406000178;None;None;None;[];718.7022406000178;None;"['9', '9']";"[0.2746478999615647, 0.5626422999775968]";718.7022406000178;None;;;S11456;2022_May_16_1814;VideoMask;2021.1.2;118.59357502417632;
0.0;f;030_o_f_h_a.jpg;happy;9.0;sad_133.1.wmv;sad;7.0;incongruent;120.0;160.0;198.86251500867985;h_s;;;;;0;55;55;55;;;;;;;721.7106675000396;None;723.5770030000131;723.893711599987;725.0270015000133;725.0437381000374;727.0270755999954;None;7;0;0.24584019999019802;727.0270755999954;None;;;;;;;;3;;;;;;;728.5769509000238;None;None;None;[];728.5769509000238;None;"['7', '7']";"[0.20795680000446737, 0.47995210002409294]";728.5769509000238;None;;;S11456;2022_May_16_1814;VideoMask;2021.1.2;118.59357502417632;
0.0;f;040_y_f_h_a.jpg;happy;9.0;sad_128.2.wmv;sad;7.0;incongruent;120.0;160.0;206.10005857915363;h_s;;;;;0;56;56;56;;;;;;;731.5770142000401;None;733.501684900024;733.8184135000338;734.9516437000129;734.9684691000148;736.9516846000333;None;7;0;0.40129070001421496;736.9516846000333;None;;;;;;;;4;;;;;;;738.5016605000128;None;None;None;[];738.5016605000128;None;['7'];[0.2673593000508845];738.5016605000128;None;;;S11456;2022_May_16_1814;VideoMask;2021.1.2;118.59357502417632;
1.0;f;021_o_f_s_a.jpg;sad;7.0;sad_9.5ns.avi;sad;7.0;congruent;130.0;160.0;206.16642757875042;s_s;;;;;0;57;57;57;;;;;;;741.5100669999956;None;743.4347153000417;743.751432900026;744.884837199992;744.901441199996;750.6096854000352;None;7;0;0.34311060002073646;750.6096854000352;None;;;;;;;;3;;;;;;;752.1595763000078;None;None;None;[];752.1595763000078;None;"['7', '7']";"[0.2893898999900557, 0.5294595999876037]";752.1595763000078;None;;;S11456;2022_May_16_1814;VideoMask;2021.1.2;118.59357502417632;
1.0;f;021_o_f_h_a.jpg;happy;9.0;happy_12.1ns.avi;happy;9.0;congruent;120.0;150.0;132.59080005900228;h_h;;;;;0;58;58;58;;;;;;;755.1679041000316;None;756.5008782999939;756.8177648000419;758.0100542000146;758.0344430000405;765.5676968999906;None;9;0;0.3372685000067577;765.5676968999906;None;;;;;;;;9;;;;;;;767.1424177000299;None;None;None;[];767.1424177000299;None;"['9', '9', '9', '9', '9', '9']";"[0.2024657999863848, 0.3944671000353992, 0.5783787000109442, 0.770415100036189, 0.9624651999911293, 1.1704167000134476]";767.1424177000299;None;;;S11456;2022_May_16_1814;VideoMask;2021.1.2;118.59357502417632;
3.0;m;013_y_m_s_a.jpg;sad;7.0;happy_56.2ns.avi;happy;9.0;incongruent;130.0;150.0;163.39234110935848;s_h;;;;;0;59;59;59;;;;;;;770.1508619000087;None;771.7171844000113;772.0338997000363;773.2254502000287;773.2509950000094;778.2088118999964;None;9;0;0.6242376000154763;778.2088118999964;None;;;;;;;;6;;;;;;;779.7837341999984;None;None;None;[];779.7837341999984;None;"['9', '7']";"[0.4332960000028834, 1.377215399988927]";779.7837341999984;None;;;S11456;2022_May_16_1814;VideoMask;2021.1.2;118.59357502417632;
;;;;;;;;;;;;;;;;;;;;;;;;;;;;;;;;;;;;;;;;;;;;;;;;;;;;;;;;;;;;;;;;;782.7921144000138;None;;;;;;
