primePerson;primeGender;prime;primeEmotion;corrAnsPrime;target;targetEmotion;corrAnsTar;Cond;ID_Primer;ID_Target;JitterTime;Condition;example.thisRepN;example.thisTrialN;example.thisN;example.thisIndex;study.thisRepN;study.thisTrialN;study.thisN;study.thisIndex;MR_trigger_time;MR_trigger_number;text_intro.started;text_intro.stopped;text_probe.started;text_probe.stopped;polygon_ISI.started;polygon_ISI.stopped;polygon.started;polygon.stopped;primerImage.started;primerImage.stopped;response.started;response.stopped;key_resp.keys;key_resp.corr;key_resp.rt;key_resp.started;key_resp.stopped;slider_Text.started;slider_Text.stopped;slider_ex.response;slider_ex.rt;slider_ex.history;slider_ex.started;slider_ex.stopped;Rating;slider_resp_response.keys;slider_resp_response.rt;slider_resp_response.started;slider_resp_response.stopped;text_start.started;text_start.stopped;text_slider.started;text_slider.stopped;slider_stud.response;slider_stud.rt;slider_stud.history;slider_stud.started;slider_stud.stopped;slider_resp_study.keys;slider_resp_study.rt;slider_resp_study.started;slider_resp_study.stopped;text_ende.started;text_ende.stopped;participant;date;expName;psychopyVersion;frameRate;
1111;m;1111_m_m_h_a.jpg;happy;9;example_30.4ns.avi;neutral;7;incongruent;120.0;170.0;189.5874364012288;;0;0;0;0;;;;;33.28721390012652;1;33.36476769996807;35.364970500115305;35.364970500115305;None;37.3815223001875;None;39.58977819979191;39.906348399817944;41.07302280003205;41.08973979996517;45.3814000999555;None;9;0;0.8271575998514891;45.3814000999555;None;46.93955359980464;None;None;None;[];46.93955359980464;None;7;"['9', '9']";"[1.3408670998178422, 1.8768736999481916]";46.93955359980464;None;;;;;;;;;;;;;;;;S11351;2022_Apr_04_1855;VideoMask;2021.1.2;119.87001336319409;
1113;f;1113_y_f_s_a.jpg;sad;7;example_30.3ns.avi;neutral;7;incongruent;130.0;170.0;229.02432995836998;;0;1;1;1;;;;;;;;;;;49.93118150020018;None;52.0393968001008;52.35596660012379;53.51433609984815;53.53098310017958;55.48925379989669;None;9;0;1.0311920996755362;55.48925379989669;None;57.0391997997649;None;None;None;[];57.0391997997649;None;7;"['9', '9']";"[0.7617138996720314, 1.0893663996830583]";57.0391997997649;None;;;;;;;;;;;;;;;;S11351;2022_Apr_04_1855;VideoMask;2021.1.2;119.87001336319409;
9.0;f;019_m_f_h_a.jpg;happy;9.0;sad_115.1.wmv;sad;7.0;incongruent;120.0;160.0;128.09063432376465;h_s;;;;;0;0;0;0;;;;;;;61.07244470017031;None;62.34727660007775;62.66395810013637;63.79723000014201;63.822343999985605;65.79726669983938;None;7;0;1.2431439999490976;65.79726669983938;None;;;;;;;;3;;;;;60.03917590016499;None;67.3556753997691;None;None;None;[];67.3556753997691;None;"['7', '7', '7']";"[0.6287147998809814, 1.2607836001552641, 1.788786199875176]";67.3556753997691;None;;;S11351;2022_Apr_04_1855;VideoMask;2021.1.2;119.87001336319409;
3.0;m;033_o_m_s_a.jpg;sad;7.0;sad_94.2ns.avi;sad;7.0;congruent;130.0;160.0;182.29120173647655;s_s;;;;;0;1;1;1;;;;;;;70.34711159998551;None;72.05526430020109;72.37192270020023;73.58874440006912;73.60544459987432;76.19699029996991;None;7;0;0.5394274001009762;76.19699029996991;None;;;;;;;;2;;;;;;;78.13022779999301;None;None;None;[];78.13022779999301;None;"['7', '7', '7']";"[0.39020560029894114, 0.7341692000627518, 1.1343396003358066]";78.13022779999301;None;;;S11351;2022_Apr_04_1855;VideoMask;2021.1.2;119.87001336319409;
8.0;m;008_y_m_h_a.jpg;happy;9.0;happy_26.1ns.avi;happy;9.0;congruent;120.0;150.0;155.9437854594882;h_h;;;;;0;2;2;2;;;;;;;81.13011900009587;None;82.629919399973;82.94669870007783;84.09664280014113;84.11337079992518;86.07176200021058;None;9;0;0.6006396999582648;86.07176200021058;None;;;;;;;;9;;;;;;;87.62157499976456;None;None;None;[];87.62157499976456;None;"['9', '9', '9', '9', '9', '9']";"[0.02682779962196946, 0.4827030999585986, 0.874866099562496, 1.210720599628985, 1.6507178996689618, 2.074704899918288]";87.62157499976456;None;;;S11351;2022_Apr_04_1855;VideoMask;2021.1.2;119.87001336319409;
0.0;f;040_y_f_h_a.jpg;happy;9.0;sad_138.1.wmv;sad;7.0;incongruent;120.0;160.0;133.99071306426532;h_s;;;;;0;3;3;3;;;;;;;90.62157899979502;None;91.93799680005759;92.25469610001892;93.3797940001823;93.39635819988325;95.38802789989859;None;7;0;0.5964711997658014;95.38802789989859;None;;;;;;;;1;;;;;;;96.93794379988685;None;None;None;[];96.93794379988685;None;"['7', '7', '7', '7']";"[0.398299400229007, 0.7424297002144158, 1.0705291000194848, 1.3903689002618194]";96.93794379988685;None;;;S11351;2022_Apr_04_1855;VideoMask;2021.1.2;119.87001336319409;
8.0;f;028_y_f_s_a.jpg;sad;7.0;sad_64.2ns.avi;sad;7.0;congruent;130.0;160.0;229.88540597086478;s_s;;;;;0;4;4;4;;;;;;;99.93789940001443;None;102.0876139998436;102.4044253998436;103.60484369983897;103.62945690006018;114.53733230009675;None;7;0;0.45513040013611317;114.53733230009675;None;;;;;;;;2;;;;;;;116.079117000103;None;None;None;[];116.079117000103;None;"['7', '7', '7']";"[0.5135307000018656, 0.8971208999864757, 1.289163799956441]";116.079117000103;None;;;S11351;2022_Apr_04_1855;VideoMask;2021.1.2;119.87001336319409;
7.0;m;027_o_m_s_a.jpg;sad;7.0;sad_10.4ns.avi;sad;7.0;congruent;130.0;160.0;185.20129417468752;s_s;;;;;0;5;5;5;;;;;;;119.08736990019679;None;120.8370956000872;121.15378270018846;122.29540740000084;122.3121914002113;125.4538598000072;None;7;0;0.5865429998375475;125.4538598000072;None;;;;;;;;1;;;;;;;127.00362899992615;None;None;None;[];127.00362899992615;None;"['7', '7', '7', '7', '7']";"[0.4688307996839285, 0.8367230999283493, 1.1565676997415721, 1.5247726999223232, 1.9005775996483862]";127.00362899992615;None;;;S11351;2022_Apr_04_1855;VideoMask;2021.1.2;119.87001336319409;
2.0;f;012_o_f_s_a.jpg;sad;7.0;sad_7.5ns.avi;sad;7.0;congruent;130.0;160.0;220.27842655424388;s_s;;;;;0;6;6;6;;;;;;;130.01203599991277;None;132.03666000021622;132.35346789984033;133.5199675001204;133.5366549999453;136.27849530009553;None;7;0;0.5538622997701168;136.27849530009553;None;;;;;;;;1;;;;;;;137.8283362002112;None;None;None;[];137.8283362002112;None;"['7', '7', '7', '7', '7']";"[0.38793390011414886, 0.724225000012666, 1.0763341998681426, 1.4359510000795126, 2.028162600006908]";137.8283362002112;None;;;S11351;2022_Apr_04_1855;VideoMask;2021.1.2;119.87001336319409;
2.0;f;012_o_f_h_a.jpg;happy;9.0;happy_27.1ns.avi;happy;9.0;congruent;120.0;150.0;146.44967055810616;h_h;;;;;0;7;7;7;;;;;;;140.82830520020798;None;142.25305739976466;142.56978669995442;143.7780315000564;143.79457530006766;146.1946948999539;None;9;0;0.5175808998756111;146.1946948999539;None;;;;;;;;9;;;;;;;147.74462360003963;None;None;None;[];147.74462360003963;None;"['9', '9', '9', '9', '9']";"[0.4317260002717376, 0.7836142000742257, 1.1117027001455426, 1.479951800312847, 1.9199124001897871]";147.74462360003963;None;;;S11351;2022_Apr_04_1855;VideoMask;2021.1.2;119.87001336319409;
8.0;f;028_y_f_h_a.jpg;happy;9.0;sad_119.1.wmv;sad;7.0;incongruent;120.0;160.0;148.71526953572538;h_s;;;;;0;8;8;8;;;;;;;150.7447040998377;None;152.18637919984758;152.5028388001956;153.63750150008127;153.661428200081;155.70291530014947;None;7;0;0.31362879974767566;155.70291530014947;None;;;;;;;;1;;;;;;;157.25272809993476;None;None;None;[];157.25272809993476;None;"['7', '7', '7', '7', '7']";"[0.37949700001627207, 0.7235787003301084, 1.0356371002271771, 1.571641799993813, 2.003910600207746]";157.25272809993476;None;;;S11351;2022_Apr_04_1855;VideoMask;2021.1.2;119.87001336319409;
6.0;m;016_y_m_s_a.jpg;sad;7.0;happy_60.4ns.avi;happy;9.0;incongruent;130.0;150.0;126.02367393611817;s_h;;;;;0;9;9;9;;;;;;;160.2610014001839;None;161.51910179993138;161.8358915997669;163.01920560002327;163.03576959995553;168.76069330004975;None;9;0;0.43965679965913296;168.76069330004975;None;;;;;;;;7;;;;;;;170.37732410011813;None;None;None;[];170.37732410011813;None;"['9', '9']";"[0.3830867996439338, 0.8230699999257922]";170.37732410011813;None;;;S11351;2022_Apr_04_1855;VideoMask;2021.1.2;119.87001336319409;
9.0;f;019_m_f_s_a.jpg;sad;7.0;sad_8.4ns.avi;sad;7.0;congruent;130.0;160.0;171.6633093155257;s_s;;;;;0;10;10;10;;;;;;;173.37719799997285;None;175.051948599983;175.36885449988768;176.52701300010085;176.54373909998685;184.63530630012974;None;7;0;0.6688804998993874;184.63530630012974;None;;;;;;;;3;;;;;;;186.18512949999422;None;None;None;[];186.18512949999422;None;"['7', '7']";"[0.34324009995907545, 0.7513497001491487]";186.18512949999422;None;;;S11351;2022_Apr_04_1855;VideoMask;2021.1.2;119.87001336319409;
4.0;m;004_o_m_h_a.jpg;happy;9.0;happy_1.1ns.avi;happy;9.0;congruent;120.0;150.0;203.50057144619865;h_h;;;;;0;11;11;11;;;;;;;189.18506610020995;None;191.14302999991924;191.45982499979436;192.6099725998938;192.62664399994537;207.07619229983538;None;9;0;0.6201880997978151;207.07619229983538;None;;;;;;;;6;;;;;;;208.62608759989962;None;None;None;[];208.62608759989962;None;['9'];[1.1583821000531316];208.62608759989962;None;;;S11351;2022_Apr_04_1855;VideoMask;2021.1.2;119.87001336319409;
7.0;m;027_o_m_h_a.jpg;happy;9.0;happy_20.1ns.avi;happy;9.0;congruent;120.0;150.0;152.91127178874285;h_h;;;;;0;12;12;12;;;;;;;211.6261706999503;None;213.10082009993494;213.41762699978426;214.53418170008808;214.55149259977043;217.56752969976515;None;9;0;0.9368339995853603;217.56752969976515;None;;;;;;;;7;;;;;;;219.11745100002736;None;None;None;[];219.11745100002736;None;"['9', '9']";"[0.338727000169456, 1.2349674003198743]";219.11745100002736;None;;;S11351;2022_Apr_04_1855;VideoMask;2021.1.2;119.87001336319409;
0.0;f;040_y_f_s_a.jpg;sad;7.0;sad_94.3ns.avi;sad;7.0;congruent;130.0;160.0;155.27414203894395;s_s;;;;;0;13;13;13;;;;;;;222.12578700017184;None;223.6172357001342;223.93388300016522;225.14216889999807;225.1589124999009;227.69218590017408;None;7;0;0.556205399800092;227.69218590017408;None;;;;;;;;3;;;;;;;229.2420978997834;None;None;None;[];229.2420978997834;None;"['7', '7']";"[0.4543135999701917, 0.9182664998807013]";229.2420978997834;None;;;S11351;2022_Apr_04_1855;VideoMask;2021.1.2;119.87001336319409;
0.0;f;030_o_f_s_a.jpg;sad;7.0;sad_68.1ns.avi;sad;7.0;congruent;130.0;160.0;158.9411396037211;s_s;;;;;0;14;14;14;;;;;;;232.2504122997634;None;233.7918524001725;234.10856210021302;235.27519960002974;235.29199879989028;242.66692769993097;None;7;0;0.6772925001569092;242.66692769993097;None;;;;;;;;1;;;;;;;244.22498159995303;None;None;None;[];244.22498159995303;None;"['7', '7', '7', '7']";"[0.30334350001066923, 0.6953814001753926, 1.0152412001043558, 1.3513755998574197]";244.22498159995303;None;;;S11351;2022_Apr_04_1855;VideoMask;2021.1.2;119.87001336319409;
0.0;f;030_o_f_h_a.jpg;happy;9.0;sad_127.1.wmv;sad;7.0;incongruent;120.0;160.0;180.59976631384873;h_s;;;;;0;15;15;15;;;;;;;247.23320080013946;None;248.94130840012804;249.25807039998472;250.38299009995535;250.3996036001481;252.40809579985216;None;7;0;0.4481803998351097;252.40809579985216;None;;;;;;;;1;;;;;;;253.9579620999284;None;None;None;[];253.9579620999284;None;"['7', '7', '7', '7', '7', '7']";"[0.37838330026715994, 0.778564800042659, 1.0904911002144217, 1.4262139000929892, 1.7703627003356814, 2.1304514002986252]";253.9579620999284;None;;;S11351;2022_Apr_04_1855;VideoMask;2021.1.2;119.87001336319409;
8.0;m;008_y_m_s_a.jpg;sad;7.0;happy_133.3.wmv;happy;9.0;incongruent;130.0;150.0;152.577966552593;s_h;;;;;0;16;16;16;;;;;;;256.9579066000879;None;258.44109570002183;258.75774609996006;259.8827531998977;259.89947139983997;261.8910861997865;None;9;0;0.46922249998897314;261.8910861997865;None;;;;;;;;6;;;;;;;263.44104359997436;None;None;None;[];263.44104359997436;None;['9'];[0.679456299636513];263.44104359997436;None;;;S11351;2022_Apr_04_1855;VideoMask;2021.1.2;119.87001336319409;
3.0;m;033_o_m_h_a.jpg;happy;9.0;sad_128.1.wmv;sad;7.0;incongruent;120.0;160.0;171.0492454518585;h_s;;;;;0;17;17;17;;;;;;;266.4410430002026;None;268.0740529000759;268.39081070013344;269.5239625000395;269.5406432999298;271.5242443000898;None;7;0;1.0200899997726083;271.5242443000898;None;;;;;;;;4;;;;;;;273.07409500004724;None;None;None;[];273.07409500004724;None;"['7', '7']";"[0.29415629990398884, 1.0064052999950945]";273.07409500004724;None;;;S11351;2022_Apr_04_1855;VideoMask;2021.1.2;119.87001336319409;
1.0;f;021_o_f_h_a.jpg;happy;9.0;sad_116.1.wmv;sad;7.0;incongruent;120.0;160.0;184.06847610053055;h_s;;;;;0;18;18;18;;;;;;;276.0740996999666;None;277.82381549989805;278.14051789976656;279.2738132998347;279.29058729996905;281.273792500142;None;7;0;0.5185551000759006;281.273792500142;None;;;;;;;;2;;;;;;;282.9570992998779;None;None;None;[];282.9570992998779;None;"['7', '7', '7']";"[0.2991769998334348, 0.6512870001606643, 0.9951758999377489]";282.9570992998779;None;;;S11351;2022_Apr_04_1855;VideoMask;2021.1.2;119.87001336319409;
4.0;m;004_o_m_s_a.jpg;sad;7.0;happy_28.1ns.avi;happy;9.0;incongruent;130.0;150.0;157.40741103039684;s_h;;;;;0;19;19;19;;;;;;;285.9569810000248;None;287.473502300214;287.79020489985123;288.9900678000413;289.00679269991815;293.3151223999448;None;9;0;0.43717070017009974;293.3151223999448;None;;;;;;;;9;;;;;;;294.8650699001737;None;None;None;[];294.8650699001737;None;"['9', '9', '9', '9']";"[0.2951961001381278, 0.7034471002407372, 1.0553208999335766, 1.4712769002653658]";294.8650699001737;None;;;S11351;2022_Apr_04_1855;VideoMask;2021.1.2;119.87001336319409;
8.0;f;028_y_f_s_a.jpg;sad;7.0;happy_122.3.wmv;happy;9.0;incongruent;130.0;150.0;171.8670540936116;s_h;;;;;0;20;20;20;;;;;;;297.8649411997758;None;299.5064742001705;299.82321400009096;300.9565103999339;300.9731924999505;302.9564438997768;None;9;0;0.4918837998993695;302.9564438997768;None;;;;;;;;9;;;;;;;304.5063168001361;None;None;None;[];304.5063168001361;None;"['9', '9', '9', '9', '9']";"[0.31796539993956685, 0.6779541000723839, 1.0297893998213112, 1.4378891000524163, 1.9418783001601696]";304.5063168001361;None;;;S11351;2022_Apr_04_1855;VideoMask;2021.1.2;119.87001336319409;
8.0;m;008_y_m_s_a.jpg;sad;7.0;sad_6.5ns.avi;sad;7.0;congruent;130.0;160.0;170.39333839271438;s_s;;;;;0;21;21;21;;;;;;;307.51466749981046;None;309.1478256001137;309.46456809993833;310.664399900008;310.68106319988146;315.5977035998367;None;7;0;0.506624000146985;315.5977035998367;None;;;;;;;;2;;;;;;;317.1476495000534;None;None;None;[];317.1476495000534;None;"['7', '7', '7', '7']";"[0.276568999979645, 0.644605299923569, 1.0287466999143362, 1.4686326999217272]";317.1476495000534;None;;;S11351;2022_Apr_04_1855;VideoMask;2021.1.2;119.87001336319409;
8.0;f;028_y_f_h_a.jpg;happy;9.0;happy_23.1ns.avi;happy;9.0;congruent;120.0;150.0;225.70986890587952;h_h;;;;;0;22;22;22;;;;;;;320.14754870021716;None;322.2390119000338;322.55578969977796;323.7389312000014;323.7558979000896;328.2639819998294;None;9;0;0.40052649984136224;328.2639819998294;None;;;;;;;;9;;;;;;;330.0472850999795;None;None;None;[];330.0472850999795;None;"['9', '9', '9', '9']";"[0.11303350003436208, 0.5212173997424543, 0.8970165997743607, 1.3929216000251472]";330.0472850999795;None;;;S11351;2022_Apr_04_1855;VideoMask;2021.1.2;119.87001336319409;
8.0;m;008_y_m_h_a.jpg;happy;9.0;sad_111.1.wmv;sad;7.0;incongruent;120.0;160.0;152.63076835312847;h_s;;;;;0;23;23;23;;;;;;;333.047288000118;None;334.5220147999935;334.8387243999168;335.9724833997898;335.99712949991226;337.9720351998694;None;7;0;0.48422929970547557;337.9720351998694;None;;;;;;;;2;;;;;;;339.5219568000175;None;None;None;[];339.5219568000175;None;"['7', '7', '7', '7', '7', '7']";"[0.302390200085938, 0.6703067999333143, 1.038337899837643, 1.3581723999232054, 1.7024793000891805, 2.4383312999270856]";339.5219568000175;None;;;S11351;2022_Apr_04_1855;VideoMask;2021.1.2;119.87001336319409;
0.0;f;040_y_f_s_a.jpg;sad;7.0;sad_67.2ns.avi;sad;7.0;congruent;130.0;160.0;220.9892697323079;s_s;;;;;0;24;24;24;;;;;;;342.5303218998015;None;344.5883450000547;344.9050667001866;346.0716997999698;346.08842970011756;355.2632859000005;None;None;0;;355.2632859000005;None;;;;;;;;3;;;;;;;356.8129575997591;None;None;None;[];356.8129575997591;None;"['7', '7', '7', '9']";"[0.29124809987843037, 0.6673964001238346, 1.0433177002705634, 1.8754154001362622]";356.8129575997591;None;;;S11351;2022_Apr_04_1855;VideoMask;2021.1.2;119.87001336319409;
8.0;m;008_y_m_s_a.jpg;sad;7.0;happy_29.1ns.avi;happy;9.0;incongruent;130.0;150.0;120.0316142834122;s_h;;;;;0;25;25;25;;;;;;;359.82133080018684;None;361.0295210001059;361.34605489997193;362.47963890014216;362.49618790019304;365.1712632998824;None;9;0;0.5810108999721706;365.1712632998824;None;;;;;;;;8;;;;;;;366.7211366998963;None;None;None;[];366.7211366998963;None;"['9', '9', '9']";"[0.3512184997089207, 0.6791253997944295, 1.0951315998099744]";366.7211366998963;None;;;S11351;2022_Apr_04_1855;VideoMask;2021.1.2;119.87001336319409;
6.0;m;016_y_m_s_a.jpg;sad;7.0;sad_8.3ns.avi;sad;7.0;congruent;130.0;160.0;152.85371098242734;s_s;;;;;0;26;26;26;;;;;;;369.72115240013227;None;371.2124688997865;371.5292230998166;372.7040701000951;372.7209283001721;380.4208141998388;None;7;0;0.5394306001253426;380.4208141998388;None;;;;;;;;2;;;;;;;381.97064269986004;None;None;None;[];381.97064269986004;None;"['7', '7', '7']";"[0.26162429992109537, 0.6055549001321197, 0.9257263001054525]";381.97064269986004;None;;;S11351;2022_Apr_04_1855;VideoMask;2021.1.2;119.87001336319409;
6.0;m;016_y_m_h_a.jpg;happy;9.0;sad_114.1.wmv;sad;7.0;incongruent;120.0;160.0;136.20550699298644;h_s;;;;;0;27;27;27;;;;;;;384.9706505998038;None;386.31204590015113;386.62864169990644;387.7620484000072;387.7788232001476;389.7621085997671;None;7;0;0.5101410001516342;389.7621085997671;None;;;;;;;;1;;;;;;;391.4536586999893;None;None;None;[];391.4536586999893;None;"['7', '7', '7', '7']";"[0.3147773998789489, 0.6504669999703765, 0.9544776999391615, 1.2585063995793462]";391.4536586999893;None;;;S11351;2022_Apr_04_1855;VideoMask;2021.1.2;119.87001336319409;
7.0;m;027_o_m_s_a.jpg;sad;7.0;happy_117.3.wmv;happy;9.0;incongruent;130.0;150.0;215.61964028550614;s_h;;;;;0;28;28;28;;;;;;;394.4536839001812;None;396.4617486000061;396.77848399989307;397.9035267001018;397.9201639997773;399.9116751002148;None;None;0;;399.9116751002148;None;;;;;;;;6;;;;;;;401.46156500000507;None;None;None;[];401.46156500000507;None;['9'];[0.002530100289732218];401.46156500000507;None;;;S11351;2022_Apr_04_1855;VideoMask;2021.1.2;119.87001336319409;
6.0;m;016_y_m_h_a.jpg;happy;9.0;happy_9.2ns.avi;happy;9.0;congruent;120.0;150.0;130.52042428082717;h_h;;;;;0;29;29;29;;;;;;;404.46179729979485;None;405.75307480013;406.0696845999919;407.2532644001767;407.2698651999235;413.12801120011136;None;9;0;0.47223229985684156;413.12801120011136;None;;;;;;;;8;;;;;;;414.67793940007687;None;None;None;[];414.67793940007687;None;"['9', '9', '9', '9', '9']";"[0.40252700028941035, 0.72228840040043, 1.114485100377351, 1.6103271003812551, 2.218405000399798]";414.67793940007687;None;;;S11351;2022_Apr_04_1855;VideoMask;2021.1.2;119.87001336319409;
0.0;f;040_y_f_s_a.jpg;sad;7.0;happy_127.3.wmv;happy;9.0;incongruent;130.0;150.0;131.7195455720239;s_h;;;;;0;30;30;30;;;;;;;417.6778323999606;None;418.9776948001236;419.29445839999244;420.42788380011916;420.444454499986;422.49435679987073;None;9;0;0.5619243998080492;422.49435679987073;None;;;;;;;;8;;;;;;;424.0442972998135;None;None;None;[];424.0442972998135;None;"['9', '9', '9', '9']";"[0.2761984998360276, 0.7239494998939335, 1.6360297999344766, 2.4840573999099433]";424.0442972998135;None;;;S11351;2022_Apr_04_1855;VideoMask;2021.1.2;119.87001336319409;
0.0;f;030_o_f_s_a.jpg;sad;7.0;happy_125.3.wmv;happy;9.0;incongruent;130.0;150.0;220.51454909128134;s_h;;;;;0;31;31;31;;;;;;;427.0443258001469;None;429.0939560998231;429.41079680016264;430.54469850007445;430.5691514997743;432.54408980021253;None;9;0;0.4802218000404537;432.54408980021253;None;;;;;;;;9;;;;;;;434.08560860017315;None;None;None;[];434.08560860017315;None;"['9', '9', '9', '9', '9', '9']";"[0.3225623001344502, 0.690461500082165, 1.0345602999441326, 1.4265572000294924, 1.8984658000990748, 2.650689300149679]";434.08560860017315;None;;;S11351;2022_Apr_04_1855;VideoMask;2021.1.2;119.87001336319409;
0.0;f;030_o_f_s_a.jpg;sad;7.0;sad_64.3ns.avi;sad;7.0;congruent;130.0;160.0;165.78667874766072;s_s;;;;;0;32;32;32;;;;;;;437.0855072000995;None;438.68534879991785;439.00220909994096;440.14381270017475;440.16049969987944;445.13631829991937;None;7;0;0.47995480010285974;445.13631829991937;None;;;;;;;;2;;;;;;;446.71027120016515;None;None;None;[];446.71027120016515;None;"['7', '7', '7', '7', '7', '7', '7']";"[0.4099365998990834, 0.7778328000567853, 1.121863799635321, 1.577989500015974, 2.0100515000522137, 2.4660261999815702, 2.9779575997963548]";446.71027120016515;None;;;S11351;2022_Apr_04_1855;VideoMask;2021.1.2;119.87001336319409;
3.0;m;013_y_m_s_a.jpg;sad;7.0;sad_7.7ns.avi;sad;7.0;congruent;130.0;160.0;196.24182255763262;s_s;;;;;0;33;33;33;;;;;;;449.7352292002179;None;451.5766110001132;451.89338500006124;453.0432183002122;453.0600716001354;459.0264878999442;None;7;0;0.42965879989787936;459.0264878999442;None;;;;;;;;1;;;;;;;460.56813979987055;None;None;None;[];460.56813979987055;None;"['7', '7', '7', '7', '7', '7']";"[0.3200075998902321, 0.7759447996504605, 1.16808329988271, 1.52001169975847, 2.016065899748355, 2.8642082000151277]";460.56813979987055;None;;;S11351;2022_Apr_04_1855;VideoMask;2021.1.2;119.87001336319409;
3.0;m;013_y_m_h_a.jpg;happy;9.0;happy_9.1ns.avi;happy;9.0;congruent;120.0;150.0;165.1890303600433;h_h;;;;;0;34;34;34;;;;;;;463.56809009984136;None;465.15122100012377;465.4679156001657;466.63441880000755;466.65114559978247;469.82625250006095;None;9;0;0.46194159984588623;469.82625250006095;None;;;;;;;;8;;;;;;;471.37608879990876;None;None;None;[];471.37608879990876;None;"['9', '9', '9', '9', '9']";"[0.3519208999350667, 0.7760863997973502, 1.1760628996416926, 1.5280967000871897, 2.120123299770057]";471.37608879990876;None;;;S11351;2022_Apr_04_1855;VideoMask;2021.1.2;119.87001336319409;
4.0;m;004_o_m_h_a.jpg;happy;9.0;sad_95.1ns.avi;sad;7.0;incongruent;120.0;160.0;152.68270002069931;h_s;;;;;0;35;35;35;;;;;;;474.3760708998889;None;475.8760000998154;476.1925579998642;477.35933869984;477.3759499997832;486.1175714000128;None;7;0;0.48270170018076897;486.1175714000128;None;;;;;;;;1;;;;;;;487.6756577999331;None;None;None;[];487.6756577999331;None;"['7', '7', '7', '7', '7']";"[0.3485034997574985, 0.6845233999192715, 1.028533199802041, 1.388453199993819, 2.1327211996540427]";487.6756577999331;None;;;S11351;2022_Apr_04_1855;VideoMask;2021.1.2;119.87001336319409;
3.0;m;013_y_m_h_a.jpg;happy;9.0;sad_113.2.wmv;sad;7.0;incongruent;120.0;160.0;217.4973891947951;h_s;;;;;0;36;36;36;;;;;;;490.67578659998253;None;492.7003696002066;493.0171324000694;494.14211700018495;494.1587479999289;496.150434399955;None;7;0;0.5457481001503766;496.150434399955;None;;;;;;;;1;;;;;;;497.7003573998809;None;None;None;[];497.7003573998809;None;"['7', '7', '7', '7', '7']";"[0.3639248996041715, 0.7399353999644518, 1.0597766996361315, 1.4759380999021232, 2.724046199582517]";497.7003573998809;None;;;S11351;2022_Apr_04_1855;VideoMask;2021.1.2;119.87001336319409;
4.0;m;004_o_m_h_a.jpg;happy;9.0;happy_25.1ns.avi;happy;9.0;congruent;120.0;150.0;216.63044503818386;h_h;;;;;0;37;37;37;;;;;;;500.70023019984365;None;502.708323400002;503.0251310998574;504.1585121997632;504.17514229984954;507.850084700156;None;9;0;0.4701852002181113;507.850084700156;None;;;;;;;;8;;;;;;;509.4083090000786;None;None;None;[];509.4083090000786;None;"['9', '9', '9', '9', '9']";"[0.31991570023819804, 0.7118680998682976, 1.3198903002776206, 1.9837962999008596, 2.624216299969703]";509.4083090000786;None;;;S11351;2022_Apr_04_1855;VideoMask;2021.1.2;119.87001336319409;
4.0;m;004_o_m_s_a.jpg;sad;7.0;happy_131.2.wmv;happy;9.0;incongruent;130.0;150.0;181.38407540847405;s_h;;;;;0;38;38;38;;;;;;;512.4082328998484;None;514.1247076997533;514.4413832998835;515.5746206999756;515.5912692002021;517.574679300189;None;9;0;0.5535464999265969;517.574679300189;None;;;;;;;;7;;;;;;;519.1246242001653;None;None;None;[];519.1246242001653;None;"['9', '9', '9', '9', '9']";"[0.4436803003773093, 0.8355134003795683, 1.3957795002497733, 1.9954828000627458, 2.459668700117618]";519.1246242001653;None;;;S11351;2022_Apr_04_1855;VideoMask;2021.1.2;119.87001336319409;
0.0;f;040_y_f_h_a.jpg;happy;9.0;happy_24.3ns.avi;happy;9.0;congruent;120.0;150.0;213.25460698950434;h_h;;;;;0;39;39;39;;;;;;;522.1246321997605;None;524.091043099761;524.4077511997893;525.6077700997703;525.6247187000699;527.4659989001229;None;9;0;0.5342366001568735;527.4659989001229;None;;;;;;;;9;;;;;;;529.0160197000951;None;None;None;[];529.0160197000951;None;"['9', '9', '9', '9', '9']";"[0.304114299826324, 0.7681899997405708, 1.2161293998360634, 1.7202671999111772, 2.4320911997929215]";529.0160197000951;None;;;S11351;2022_Apr_04_1855;VideoMask;2021.1.2;119.87001336319409;
2.0;f;012_o_f_s_a.jpg;sad;7.0;happy_139.1.wmv;happy;9.0;incongruent;130.0;150.0;162.31500468041804;s_h;;;;;0;40;40;40;;;;;;;532.0159550001845;None;533.5740605001338;533.8908974002115;535.0242026001215;535.0408644001;537.024114199914;None;9;0;0.4963496997952461;537.024114199914;None;;;;;;;;8;;;;;;;538.5740180998109;None;None;None;[];538.5740180998109;None;"['9', '9', '9', '9']";"[0.21810529986396432, 0.7540588001720607, 1.3782645999453962, 2.466339400038123]";538.5740180998109;None;;;S11351;2022_Apr_04_1855;VideoMask;2021.1.2;119.87001336319409;
0.0;f;030_o_f_h_a.jpg;happy;9.0;happy_24.1ns.avi;happy;9.0;congruent;120.0;150.0;168.36256624020774;h_h;;;;;0;41;41;41;;;;;;;541.5741174998693;None;543.1822655000724;543.4988977001049;544.6904608998448;544.7071527000517;547.9570182999596;None;9;0;0.6431517000310123;547.9570182999596;None;;;;;;;;8;;;;;;;549.5070535000414;None;None;None;[];549.5070535000414;None;"['9', '9', '9', '9']";"[0.33327289996668696, 0.7492148000746965, 1.2851522997952998, 1.7412475999444723]";549.5070535000414;None;;;S11351;2022_Apr_04_1855;VideoMask;2021.1.2;119.87001336319409;
2.0;f;012_o_f_h_a.jpg;happy;9.0;sad_113.1.wmv;sad;7.0;incongruent;120.0;160.0;177.44551734737394;h_s;;;;;0;42;42;42;;;;;;;552.5153379999101;None;554.2151164999232;554.5318097998388;555.6899759997614;555.7067581000738;557.665114399977;None;7;0;0.5430958000943065;557.665114399977;None;;;;;;;;2;;;;;;;559.2150861001574;None;None;None;[];559.2150861001574;None;"['7', '7', '7']";"[0.3851367998868227, 0.7450362998060882, 1.1050916998647153]";559.2150861001574;None;;;S11351;2022_Apr_04_1855;VideoMask;2021.1.2;119.87001336319409;
3.0;m;033_o_m_s_a.jpg;sad;7.0;sad_64.5ns.avi;sad;7.0;congruent;130.0;160.0;130.55717223801247;s_s;;;;;0;43;43;43;;;;;;;562.2234052000567;None;563.5231420001946;563.8398917000741;564.9982456001453;565.0148673001677;571.5564433000982;None;7;0;0.4757540998980403;571.5564433000982;None;;;;;;;;1;;;;;;;573.1062210001983;None;None;None;[];573.1062210001983;None;"['7', '7', '7', '7']";"[0.3103172001428902, 0.6541202999651432, 0.9818440000526607, 1.333925100043416]";573.1062210001983;None;;;S11351;2022_Apr_04_1855;VideoMask;2021.1.2;119.87001336319409;
7.0;m;027_o_m_h_a.jpg;happy;9.0;sad_117.1.wmv;sad;7.0;incongruent;120.0;160.0;181.28665202824095;h_s;;;;;0;44;44;44;;;;;;;576.1146804001182;None;577.8393411999568;578.1562247998081;579.2978690001182;579.3143207998946;581.2893876000308;None;7;0;0.5028105000965297;581.2893876000308;None;;;;;;;;1;;;;;;;582.8391069001518;None;None;None;[];582.8391069001518;None;"['7', '7', '7', '7', '7']";"[0.33699099998921156, 0.6970188999548554, 1.024910000152886, 1.3851201999932528, 1.9611118002794683]";582.8391069001518;None;;;S11351;2022_Apr_04_1855;VideoMask;2021.1.2;119.87001336319409;
3.0;m;033_o_m_s_a.jpg;sad;7.0;happy_126.3.wmv;happy;9.0;incongruent;130.0;150.0;198.85252030535366;s_h;;;;;0;45;45;45;;;;;;;585.8392219999805;None;587.6973370998167;588.0141953998245;589.1640288000926;589.180819499772;591.1474199001677;None;9;0;0.47679049987345934;591.1474199001677;None;;;;;;;;9;;;;;;;592.7889859997667;None;None;None;[];592.7889859997667;None;"['9', '9', '9', '9', '9', '9']";"[0.22724139969795942, 0.9711965997703373, 1.3870373000390828, 1.8273566998541355, 2.283179999794811, 2.899450699798763]";592.7889859997667;None;;;S11351;2022_Apr_04_1855;VideoMask;2021.1.2;119.87001336319409;
3.0;m;033_o_m_h_a.jpg;happy;9.0;sad_136.1.wmv;sad;7.0;incongruent;120.0;160.0;176.97002883463455;h_s;;;;;0;46;46;46;;;;;;;595.7890121000819;None;597.4636830999516;597.7804077998735;598.9055142998695;598.9220612999052;600.9137825001962;None;7;0;0.39030819991603494;600.9137825001962;None;;;;;;;;1;;;;;;;602.4636936997995;None;None;None;[];602.4636936997995;None;"['7', '7', '7', '7']";"[0.2884113001637161, 0.6643909001722932, 1.024428500328213, 2.2485516001470387]";602.4636936997995;None;;;S11351;2022_Apr_04_1855;VideoMask;2021.1.2;119.87001336319409;
9.0;f;019_m_f_h_a.jpg;happy;9.0;happy_10.1ns.avi;happy;9.0;congruent;120.0;150.0;157.2463435658512;h_h;;;;;0;47;47;47;;;;;;;605.4635990001261;None;606.9884083000943;607.3051474001259;608.4551849002019;608.4718518997543;615.8799634999596;None;9;0;0.3842537999153137;615.8799634999596;None;;;;;;;;8;;;;;;;617.5798876998015;None;None;None;[];617.5798876998015;None;"['9', '9', '9']";"[0.2761638998053968, 0.6922026998363435, 1.388276900164783]";617.5798876998015;None;;;S11351;2022_Apr_04_1855;VideoMask;2021.1.2;119.87001336319409;
2.0;f;012_o_f_h_a.jpg;happy;9.0;happy_2.2ns.avi;happy;9.0;congruent;120.0;150.0;206.34800317295262;h_h;;;;;0;48;48;48;;;;;;;620.5798772000708;None;622.537903400138;622.854710499756;624.0380182000808;624.05461810017;636.2049194998108;None;9;0;0.4833026002161205;636.2049194998108;None;;;;;;;;8;;;;;;;637.7709225001745;None;None;None;[];637.7709225001745;None;"['9', '9', '9']";"[0.2532933000475168, 0.7094112001359463, 1.3253353000618517]";637.7709225001745;None;;;S11351;2022_Apr_04_1855;VideoMask;2021.1.2;119.87001336319409;
3.0;m;033_o_m_h_a.jpg;happy;9.0;happy_24.2ns.avi;happy;9.0;congruent;120.0;150.0;167.9423847659953;h_h;;;;;0;49;49;49;;;;;;;640.7708951998502;None;642.3706674999557;642.6873784000054;643.9040593998507;643.9207187001593;647.5455951001495;None;9;0;0.614604199770838;647.5455951001495;None;;;;;;;;9;;;;;;;649.0955668999813;None;None;None;[];649.0955668999813;None;"['9', '9', '9', '9']";"[0.056468999944627285, 0.39248979976400733, 0.86464609997347, 1.2725978000089526]";649.0955668999813;None;;;S11351;2022_Apr_04_1855;VideoMask;2021.1.2;119.87001336319409;
1.0;f;021_o_f_s_a.jpg;sad;7.0;happy_61.2ns.avi;happy;9.0;incongruent;130.0;150.0;210.94664004826666;s_h;;;;;0;50;50;50;;;;;;;652.0956307998858;None;654.0536507000215;654.3703338000923;655.5043089999817;655.5286995000206;660.0368193998002;None;9;0;0.49138740031048656;660.0368193998002;None;;;;;;;;7;;;;;;;661.5868480000645;None;None;None;[];661.5868480000645;None;"['9', '9']";"[0.3331897999159992, 0.7735353000462055]";661.5868480000645;None;;;S11351;2022_Apr_04_1855;VideoMask;2021.1.2;119.87001336319409;
4.0;m;004_o_m_s_a.jpg;sad;7.0;sad_2.4ns.avi;sad;7.0;congruent;130.0;160.0;153.02079367163634;s_s;;;;;0;51;51;51;;;;;;;664.5952095999382;None;666.0950287999585;666.4116187999025;667.5950286001898;667.611708600074;675.503261399921;None;7;0;0.32892889995127916;675.503261399921;None;;;;;;;;1;;;;;;;677.0613600998186;None;None;None;[];677.0613600998186;None;"['7', '7', '7', '7', '7']";"[0.2426913999952376, 0.6268894001841545, 0.9869447001256049, 1.3389705000445247, 2.2348787002265453]";677.0613600998186;None;;;S11351;2022_Apr_04_1855;VideoMask;2021.1.2;119.87001336319409;
8.0;m;008_y_m_h_a.jpg;happy;9.0;happy_1.2ns.avi;happy;9.0;congruent;120.0;150.0;210.98946429383824;h_h;;;;;0;52;52;52;;;;;;;680.0697722998448;None;682.0611958000809;682.3778268997557;683.5695187998936;683.5862103002146;696.3108521997929;None;9;0;0.4093830999918282;696.3108521997929;None;;;;;;;;7;;;;;;;697.8690534997731;None;None;None;[];697.8690534997731;None;"['9', '9']";"[0.5151128997094929, 0.9070778000168502]";697.8690534997731;None;;;S11351;2022_Apr_04_1855;VideoMask;2021.1.2;119.87001336319409;
2.0;f;012_o_f_s_a.jpg;sad;7.0;happy_52.2ns.avi;happy;9.0;incongruent;130.0;150.0;172.57202848318138;s_h;;;;;0;53;53;53;;;;;;;700.8774490999058;None;702.5186633998528;702.8355119000189;704.0522372000851;704.0689105000347;707.5270144999959;None;9;0;0.3930950998328626;707.5270144999959;None;;;;;;;;8;;;;;;;709.0770419999026;None;None;None;[];709.0770419999026;None;"['9', '9', '9']";"[0.2909114002250135, 0.7471651001833379, 1.7470797998830676]";709.0770419999026;None;;;S11351;2022_Apr_04_1855;VideoMask;2021.1.2;119.87001336319409;
9.0;f;019_m_f_s_a.jpg;sad;7.0;happy_61.1ns.avi;happy;9.0;incongruent;130.0;150.0;181.3003220572762;s_h;;;;;0;54;54;54;;;;;;;712.0769249000587;None;713.8100723000243;714.1267395000905;715.3688984001055;715.3935328000225;722.6517908000387;None;9;0;0.3244225000962615;722.6517908000387;None;;;;;;;;8;;;;;;;724.2099540000781;None;None;None;[];724.2099540000781;None;"['9', '9', '9']";"[0.32621000008657575, 0.7581424000672996, 1.2461941000074148]";724.2099540000781;None;;;S11351;2022_Apr_04_1855;VideoMask;2021.1.2;119.87001336319409;
0.0;f;030_o_f_h_a.jpg;happy;9.0;sad_133.1.wmv;sad;7.0;incongruent;120.0;160.0;198.86251500867985;h_s;;;;;0;55;55;55;;;;;;;727.2098337002099;None;729.0679378998466;729.384672800079;730.5097348000854;730.5262850001454;732.5269169998355;None;7;0;0.673061900306493;732.5269169998355;None;;;;;;;;2;;;;;;;734.1679107001983;None;None;None;[];734.1679107001983;None;"['7', '7', '7', '7', '7']";"[0.2803786997683346, 0.6321108997799456, 0.9282424999400973, 1.2401573997922242, 1.9282580995932221]";734.1679107001983;None;;;S11351;2022_Apr_04_1855;VideoMask;2021.1.2;119.87001336319409;
0.0;f;040_y_f_h_a.jpg;happy;9.0;sad_128.2.wmv;sad;7.0;incongruent;120.0;160.0;206.10005857915363;h_s;;;;;0;56;56;56;;;;;;;737.1679222001694;None;739.0842128000222;739.4011106002145;740.534231999889;740.5510220001452;742.534289999865;None;7;0;0.3460524003021419;742.534289999865;None;;;;;;;;1;;;;;;;744.0841914000921;None;None;None;[];744.0841914000921;None;"['7', '7', '7', '7', '7']";"[0.33988240035250783, 0.7318959999829531, 1.0598426000215113, 1.84394589997828, 2.9401924000121653]";744.0841914000921;None;;;S11351;2022_Apr_04_1855;VideoMask;2021.1.2;119.87001336319409;
1.0;f;021_o_f_s_a.jpg;sad;7.0;sad_9.5ns.avi;sad;7.0;congruent;130.0;160.0;206.16642757875042;s_s;;;;;0;57;57;57;;;;;;;747.0841477001086;None;749.0089206001721;749.3257236001082;750.5175006999634;750.5347004998475;756.1921910000965;None;7;0;0.39984599966555834;756.1921910000965;None;;;;;;;;1;;;;;;;757.7421544999816;None;None;None;[];757.7421544999816;None;"['7', '7', '7', '7', '7']";"[0.3301061000674963, 0.6738975001499057, 0.913843400310725, 1.1939000003039837, 1.537928500212729]";757.7421544999816;None;;;S11351;2022_Apr_04_1855;VideoMask;2021.1.2;119.87001336319409;
1.0;f;021_o_f_h_a.jpg;happy;9.0;happy_12.1ns.avi;happy;9.0;congruent;120.0;150.0;132.59080005900228;h_h;;;;;0;58;58;58;;;;;;;760.7421625000425;None;762.0754195000045;762.3920093998313;763.5836597997695;763.6003430997953;771.1417630999349;None;9;0;0.4023486003279686;771.1417630999349;None;;;;;;;;9;;;;;;;772.6916815000586;None;None;None;[];772.6916815000586;None;"['9', '9', '9', '9']";"[0.34844009997323155, 0.7245092000812292, 1.0685539999976754, 1.444484299980104]";772.6916815000586;None;;;S11351;2022_Apr_04_1855;VideoMask;2021.1.2;119.87001336319409;
3.0;m;013_y_m_s_a.jpg;sad;7.0;happy_56.2ns.avi;happy;9.0;incongruent;130.0;150.0;163.39234110935848;s_h;;;;;0;59;59;59;;;;;;;775.6999507998116;None;777.2665448999032;777.5831714998931;778.741310399957;778.7579149999656;783.7414584998041;None;9;0;0.5709959003143013;783.7414584998041;None;;;;;;;;7;;;;;;;785.3162584998645;None;None;None;[];785.3162584998645;None;"['9', '9', '9', '9']";"[0.25170609960332513, 0.6679451996460557, 1.4357004999183118, 2.587868199683726]";785.3162584998645;None;;;S11351;2022_Apr_04_1855;VideoMask;2021.1.2;119.87001336319409;
;;;;;;;;;;;;;;;;;;;;;;;;;;;;;;;;;;;;;;;;;;;;;;;;;;;;;;;;;;;;;;;;;788.324691100046;None;;;;;;
