primePerson;primeGender;prime;primeEmotion;corrAnsPrime;target;targetEmotion;corrAnsTar;Cond;ID_Primer;ID_Target;JitterTime;Condition;example.thisRepN;example.thisTrialN;example.thisN;example.thisIndex;study.thisRepN;study.thisTrialN;study.thisN;study.thisIndex;MR_trigger_time;MR_trigger_number;text_intro.started;text_intro.stopped;text_probe.started;text_probe.stopped;polygon_ISI.started;polygon_ISI.stopped;polygon.started;polygon.stopped;primerImage.started;primerImage.stopped;response.started;response.stopped;key_resp.keys;key_resp.corr;key_resp.rt;key_resp.started;key_resp.stopped;slider_Text.started;slider_Text.stopped;slider_ex.response;slider_ex.rt;slider_ex.history;slider_ex.started;slider_ex.stopped;Rating;slider_resp_response.keys;slider_resp_response.started;slider_resp_response.stopped;text_start.started;text_start.stopped;text_slider.started;text_slider.stopped;slider_stud.response;slider_stud.rt;slider_stud.history;slider_stud.started;slider_stud.stopped;slider_resp_study.keys;slider_resp_study.rt;slider_resp_study.started;slider_resp_study.stopped;text_ende.started;text_ende.stopped;participant;date;expName;psychopyVersion;frameRate;
1111;m;1111_m_m_h_a.jpg;happy;9;example_30.4ns.avi;neutral;7;incongruent;120.0;170.0;189.5874364012288;;0;0;0;0;;;;;24.416606900049374;1;24.494705800025258;26.494957400020212;26.494957400020212;None;28.528223800007254;None;30.58645240002079;30.911467400030233;32.036361400038004;32.0530909000081;36.38624640001217;None;8;0;1.1444986999849789;36.38624640001217;None;37.94456670002546;None;None;None;[];37.94456670002546;None;5;None;37.94456670002546;None;;;;;;;;;;;;;;;;S11382;2022_Apr_20_1019;VideoMask;2021.1.2;119.97744420841028;
1113;f;1113_y_f_s_a.jpg;sad;7;example_30.3ns.avi;neutral;7;incongruent;130.0;170.0;229.02432995836998;;0;1;1;1;;;;;;;;;;;40.96975480002584;None;43.08596460003173;43.402578000037465;44.55276120000053;44.56937890005065;46.536023000022396;None;8;0;0.6906822999590077;46.536023000022396;None;48.08598600002006;None;None;None;[];48.08598600002006;None;5;None;48.08598600002006;None;;;;;;;;;;;;;;;;S11382;2022_Apr_20_1019;VideoMask;2021.1.2;119.97744420841028;
9.0;f;019_m_f_h_a.jpg;happy;9.0;sad_115.1.wmv;sad;7.0;incongruent;120.0;160.0;128.09063432376465;h_s;;;;;0;0;0;0;;;;;;;52.135841400013305;None;53.42738560005091;53.74414480000269;54.88562630000524;54.90240150003228;56.894027500005905;None;None;0;;56.894027500005905;None;;;;;;;;4;;;;51.11068720003823;None;58.44399220001651;None;None;None;[];58.44399220001651;None;"['7', '7']";"[1.7108148999977857, 2.6468779999995604]";58.44399220001651;None;;;S11382;2022_Apr_20_1019;VideoMask;2021.1.2;119.97744420841028;
3.0;m;033_o_m_s_a.jpg;sad;7.0;sad_94.2ns.avi;sad;7.0;congruent;130.0;160.0;182.29120173647655;s_s;;;;;0;1;1;1;;;;;;;61.44383220002055;None;63.193749300029594;63.510413700016215;64.64367840002524;64.66065190004883;67.33540850004647;None;7;0;0.8273344999761321;67.33540850004647;None;;;;;;;;5;;;;;;68.88536130002467;None;None;None;[];68.88536130002467;None;None;;68.88536130002467;None;;;S11382;2022_Apr_20_1019;VideoMask;2021.1.2;119.97744420841028;
8.0;m;008_y_m_h_a.jpg;happy;9.0;happy_26.1ns.avi;happy;9.0;congruent;120.0;150.0;155.9437854594882;h_h;;;;;0;2;2;2;;;;;;;71.91860670002643;None;73.4351112000295;73.75182530004531;74.87683200003812;74.89351150003495;76.87679490004666;None;9;0;1.3179518000106327;76.87679490004666;None;;;;;;;;5;;;;;;78.42673240002478;None;None;None;[];78.42673240002478;None;None;;78.42673240002478;None;;;S11382;2022_Apr_20_1019;VideoMask;2021.1.2;119.97744420841028;
0.0;f;040_y_f_h_a.jpg;happy;9.0;sad_138.1.wmv;sad;7.0;incongruent;120.0;160.0;133.99071306426532;h_s;;;;;0;3;3;3;;;;;;;81.45148240000708;None;82.80147870001383;83.11813300003996;84.24324100004742;84.25971030001529;86.2514714000281;None;7;0;0.9913965999730863;86.2514714000281;None;;;;;;;;7;;;;;;87.80144000001019;None;None;None;[];87.80144000001019;None;"['9', '9']";"[0.7772648999816738, 1.9215568999643438]";87.80144000001019;None;;;S11382;2022_Apr_20_1019;VideoMask;2021.1.2;119.97744420841028;
8.0;f;028_y_f_s_a.jpg;sad;7.0;sad_64.2ns.avi;sad;7.0;congruent;130.0;160.0;229.88540597086478;s_s;;;;;0;4;4;4;;;;;;;90.80140019999817;None;93.00964850001037;93.32618270005332;94.46022970002377;94.48476940003457;105.46764120005537;None;7;0;0.6712422000127845;105.46764120005537;None;;;;;;;;5;;;;;;107.01755140000023;None;None;None;[];107.01755140000023;None;None;;107.01755140000023;None;;;S11382;2022_Apr_20_1019;VideoMask;2021.1.2;119.97744420841028;
7.0;m;027_o_m_s_a.jpg;sad;7.0;sad_10.4ns.avi;sad;7.0;congruent;130.0;160.0;185.20129417468752;s_s;;;;;0;5;5;5;;;;;;;110.05078610003693;None;111.80892030004179;112.12558340001851;113.28432020003675;113.30089370004134;116.42567140003666;None;7;0;1.1531746000400744;116.42567140003666;None;;;;;;;;7;;;;;;117.97545850003371;None;None;None;[];117.97545850003371;None;"['9', '9']";"[0.6753466000081971, 1.115619299991522]";117.97545850003371;None;;;S11382;2022_Apr_20_1019;VideoMask;2021.1.2;119.97744420841028;
2.0;f;012_o_f_s_a.jpg;sad;7.0;sad_7.5ns.avi;sad;7.0;congruent;130.0;160.0;220.27842655424388;s_s;;;;;0;6;6;6;;;;;;;120.97568140004296;None;123.00858680001693;123.32522070000414;124.50035790004767;124.51702030003071;127.2505229000235;None;7;0;0.5923700000275858;127.2505229000235;None;;;;;;;;5;;;;;;128.8085521000321;None;None;None;[];128.8085521000321;None;None;;128.8085521000321;None;;;S11382;2022_Apr_20_1019;VideoMask;2021.1.2;119.97744420841028;
2.0;f;012_o_f_h_a.jpg;happy;9.0;happy_27.1ns.avi;happy;9.0;congruent;120.0;150.0;146.44967055810616;h_h;;;;;0;7;7;7;;;;;;;131.83327480003936;None;133.25820250000106;133.57484040001873;134.74174080003286;134.75842330005253;137.1999982999987;None;9;0;0.6749506999622099;137.1999982999987;None;;;;;;;;5;;;;;;138.7499074000516;None;None;None;[];138.7499074000516;None;None;;138.7499074000516;None;;;S11382;2022_Apr_20_1019;VideoMask;2021.1.2;119.97744420841028;
8.0;f;028_y_f_h_a.jpg;happy;9.0;sad_119.1.wmv;sad;7.0;incongruent;120.0;160.0;148.71526953572538;h_s;;;;;0;8;8;8;;;;;;;141.77487040002597;None;143.24974790000124;143.56629850005265;144.7001631000312;144.72450320003554;146.76636070001405;None;None;0;;146.76636070001405;None;;;;;;;;5;;;;;;148.31610370002454;None;None;None;[];148.31610370002454;None;['7'];[0.2947748000151478];148.31610370002454;None;;;S11382;2022_Apr_20_1019;VideoMask;2021.1.2;119.97744420841028;
6.0;m;016_y_m_s_a.jpg;sad;7.0;happy_60.4ns.avi;happy;9.0;incongruent;130.0;150.0;126.02367393611817;s_h;;;;;0;9;9;9;;;;;;;151.31635030003963;None;152.6244520000182;152.94107729999814;154.08336440002313;154.10777729999973;159.86592540005222;None;8;0;0.9689173999940977;159.86592540005222;None;;;;;;;;5;;;;;;161.4158821000019;None;None;None;[];161.4158821000019;None;None;;161.4158821000019;None;;;S11382;2022_Apr_20_1019;VideoMask;2021.1.2;119.97744420841028;
9.0;f;019_m_f_s_a.jpg;sad;7.0;sad_8.4ns.avi;sad;7.0;congruent;130.0;160.0;171.6633093155257;s_s;;;;;0;10;10;10;;;;;;;164.44918010005495;None;166.14078740001423;166.45734540000558;167.62396740005352;167.6407611000468;175.724365400034;None;7;0;0.8304687999770977;175.724365400034;None;;;;;;;;5;;;;;;177.58208290004404;None;None;None;[];177.58208290004404;None;None;;177.58208290004404;None;;;S11382;2022_Apr_20_1019;VideoMask;2021.1.2;119.97744420841028;
4.0;m;004_o_m_h_a.jpg;happy;9.0;happy_1.1ns.avi;happy;9.0;congruent;120.0;150.0;203.50057144619865;h_h;;;;;0;11;11;11;;;;;;;180.6070229000179;None;182.615059200034;182.93178740004078;184.09860120003577;184.11523320002016;198.54813800001284;None;9;0;1.3028160000103526;198.54813800001284;None;;;;;;;;6;;;;;;200.0980969000375;None;None;None;[];200.0980969000375;None;"['9', '9']";"[0.7528800999862142, 1.2168752999859862]";200.0980969000375;None;;;S11382;2022_Apr_20_1019;VideoMask;2021.1.2;119.97744420841028;
7.0;m;027_o_m_h_a.jpg;happy;9.0;happy_20.1ns.avi;happy;9.0;congruent;120.0;150.0;152.91127178874285;h_h;;;;;0;12;12;12;;;;;;;203.09813820000272;None;204.6228143000044;204.9395685000345;206.06458080001175;206.08116490003886;209.08949340000981;None;9;0;1.5937108999933116;209.08949340000981;None;;;;;;;;6;;;;;;210.78107190004084;None;None;None;[];210.78107190004084;None;['9'];[1.6457883000257425];210.78107190004084;None;;;S11382;2022_Apr_20_1019;VideoMask;2021.1.2;119.97744420841028;
0.0;f;040_y_f_s_a.jpg;sad;7.0;sad_94.3ns.avi;sad;7.0;congruent;130.0;160.0;155.27414203894395;s_s;;;;;0;13;13;13;;;;;;;213.7811297000153;None;215.28079840005375;215.59752800001297;216.75569350004662;216.77320290001808;219.35582950001117;None;None;0;;219.35582950001117;None;;;;;;;;5;;;;;;220.90561990003334;None;None;None;[];220.90561990003334;None;"['7', '9', '9', '9']";"[0.0734142999863252, 0.753937000001315, 1.1773624999914318, 1.5772973999846727]";220.90561990003334;None;;;S11382;2022_Apr_20_1019;VideoMask;2021.1.2;119.97744420841028;
0.0;f;030_o_f_s_a.jpg;sad;7.0;sad_68.1ns.avi;sad;7.0;congruent;130.0;160.0;158.9411396037211;s_s;;;;;0;14;14;14;;;;;;;223.9057085000095;None;225.46395930001745;225.78055160003714;227.00553200003924;227.0229586000205;234.33870160003426;None;7;0;0.8402452999725938;234.33870160003426;None;;;;;;;;5;;;;;;235.88866990001407;None;None;None;[];235.88866990001407;None;None;;235.88866990001407;None;;;S11382;2022_Apr_20_1019;VideoMask;2021.1.2;119.97744420841028;
0.0;f;030_o_f_h_a.jpg;happy;9.0;sad_127.1.wmv;sad;7.0;incongruent;120.0;160.0;180.59976631384873;h_s;;;;;0;15;15;15;;;;;;;238.91359970002668;None;240.64680040004896;240.9634606000036;242.09681470005307;242.1134171000449;244.0967393000028;None;7;0;1.458192499994766;244.0967393000028;None;;;;;;;;5;;;;;;245.64673259999836;None;None;None;[];245.64673259999836;None;None;;245.64673259999836;None;;;S11382;2022_Apr_20_1019;VideoMask;2021.1.2;119.97744420841028;
8.0;m;008_y_m_s_a.jpg;sad;7.0;happy_133.3.wmv;happy;9.0;incongruent;130.0;150.0;152.577966552593;s_h;;;;;0;16;16;16;;;;;;;248.67996190005215;None;250.1797504000133;250.4965416000341;251.62160980002955;251.6381709999987;253.62986320001073;None;7;0;1.4291818999918178;253.62986320001073;None;;;;;;;;5;;;;;;255.17974170000525;None;None;None;[];255.17974170000525;None;None;;255.17974170000525;None;;;S11382;2022_Apr_20_1019;VideoMask;2021.1.2;119.97744420841028;
3.0;m;033_o_m_h_a.jpg;happy;9.0;sad_128.1.wmv;sad;7.0;incongruent;120.0;160.0;171.0492454518585;h_s;;;;;0;17;17;17;;;;;;;258.19614680000814;None;259.8628678000532;260.1795859000413;261.3127440000535;261.32963330001803;263.31291100004455;None;7;0;0.7381116999895312;263.31291100004455;None;;;;;;;;5;;;;;;264.86277610005345;None;None;None;[];264.86277610005345;None;None;;264.86277610005345;None;;;S11382;2022_Apr_20_1019;VideoMask;2021.1.2;119.97744420841028;
1.0;f;021_o_f_h_a.jpg;happy;9.0;sad_116.1.wmv;sad;7.0;incongruent;120.0;160.0;184.06847610053055;h_s;;;;;0;18;18;18;;;;;;;267.88773230003426;None;269.6458997000009;269.96258060005493;271.0959730000468;271.1125568000134;273.0958679000032;None;7;0;0.8272802000283264;273.0958679000032;None;;;;;;;;5;;;;;;274.63749720004853;None;None;None;[];274.63749720004853;None;None;;274.63749720004853;None;;;S11382;2022_Apr_20_1019;VideoMask;2021.1.2;119.97744420841028;
4.0;m;004_o_m_s_a.jpg;sad;7.0;happy_28.1ns.avi;happy;9.0;incongruent;130.0;150.0;157.40741103039684;s_h;;;;;0;19;19;19;;;;;;;277.6539698000415;None;279.19558280002093;279.51229330000933;280.65383080003085;280.67070490005426;285.037257100048;None;9;0;1.221859699988272;285.037257100048;None;;;;;;;;4;;;;;;286.5954579000245;None;None;None;[];286.5954579000245;None;['7'];[0.6394940000027418];286.5954579000245;None;;;S11382;2022_Apr_20_1019;VideoMask;2021.1.2;119.97744420841028;
8.0;f;028_y_f_s_a.jpg;sad;7.0;happy_122.3.wmv;happy;9.0;incongruent;130.0;150.0;171.8670540936116;s_h;;;;;0;20;20;20;;;;;;;289.6038435000228;None;291.26179990003584;291.5786013000179;292.7201314000413;292.7367912000045;294.71190500003286;None;9;0;1.0591688999556936;294.71190500003286;None;;;;;;;;6;;;;;;296.26187310001114;None;None;None;[];296.26187310001114;None;['9'];[0.7011498999781907];296.26187310001114;None;;;S11382;2022_Apr_20_1019;VideoMask;2021.1.2;119.97744420841028;
8.0;m;008_y_m_s_a.jpg;sad;7.0;sad_6.5ns.avi;sad;7.0;congruent;130.0;160.0;170.39333839271438;s_s;;;;;0;21;21;21;;;;;;;299.26187360001495;None;300.911573600024;301.2282970000524;302.36986830004025;302.38647960004164;307.36154900002293;None;7;0;1.0175101000349969;307.36154900002293;None;;;;;;;;5;;;;;;308.91148810001323;None;None;None;[];308.91148810001323;None;None;;308.91148810001323;None;;;S11382;2022_Apr_20_1019;VideoMask;2021.1.2;119.97744420841028;
8.0;f;028_y_f_h_a.jpg;happy;9.0;happy_23.1ns.avi;happy;9.0;congruent;120.0;150.0;225.70986890587952;h_h;;;;;0;22;22;22;;;;;;;311.92804389999947;None;314.0278693000437;314.34457680000924;315.4783550000284;315.50271390000125;320.0529688000097;None;9;0;0.8061263000126928;320.0529688000097;None;;;;;;;;5;;;;;;321.6027682000422;None;None;None;[];321.6027682000422;None;None;;321.6027682000422;None;;;S11382;2022_Apr_20_1019;VideoMask;2021.1.2;119.97744420841028;
8.0;m;008_y_m_h_a.jpg;happy;9.0;sad_111.1.wmv;sad;7.0;incongruent;120.0;160.0;152.63076835312847;h_s;;;;;0;23;23;23;;;;;;;324.6277013000217;None;326.1107530000154;326.42760310001904;327.56093950005015;327.577598200005;329.5608219000278;None;7;0;0.9144398999633268;329.5608219000278;None;;;;;;;;5;;;;;;331.11077300005127;None;None;None;[];331.11077300005127;None;None;;331.11077300005127;None;;;S11382;2022_Apr_20_1019;VideoMask;2021.1.2;119.97744420841028;
0.0;f;040_y_f_s_a.jpg;sad;7.0;sad_67.2ns.avi;sad;7.0;congruent;130.0;160.0;220.9892697323079;s_s;;;;;0;24;24;24;;;;;;;334.13567410001997;None;336.2189433000167;336.53556340001523;337.6941048000008;337.7106061000377;346.8936464000144;None;7;0;0.6774375999812037;346.8936464000144;None;;;;;;;;5;;;;;;348.4436334000202;None;None;None;[];348.4436334000202;None;None;;348.4436334000202;None;;;S11382;2022_Apr_20_1019;VideoMask;2021.1.2;119.97744420841028;
8.0;m;008_y_m_s_a.jpg;sad;7.0;happy_29.1ns.avi;happy;9.0;incongruent;130.0;150.0;120.0316142834122;s_h;;;;;0;25;25;25;;;;;;;351.4768978000502;None;352.69337560003623;353.0101685000118;354.14382400002796;354.1682340000407;356.8351996000274;None;None;0;;356.8351996000274;None;;;;;;;;4;;;;;;358.3850836000056;None;None;None;[];358.3850836000056;None;"['9', '7', '7']";"[0.002361799997743219, 0.7699785000295378, 1.0660846999962814]";358.3850836000056;None;;;S11382;2022_Apr_20_1019;VideoMask;2021.1.2;119.97744420841028;
6.0;m;016_y_m_s_a.jpg;sad;7.0;sad_8.3ns.avi;sad;7.0;congruent;130.0;160.0;152.85371098242734;s_s;;;;;0;26;26;26;;;;;;;361.39329160004854;None;362.9182166000246;363.23484030005056;364.4013035000535;364.4182027000352;372.1262403000146;None;7;0;0.732820899982471;372.1262403000146;None;;;;;;;;5;;;;;;373.6762218000367;None;None;None;[];373.6762218000367;None;None;;373.6762218000367;None;;;S11382;2022_Apr_20_1019;VideoMask;2021.1.2;119.97744420841028;
6.0;m;016_y_m_h_a.jpg;happy;9.0;sad_114.1.wmv;sad;7.0;incongruent;120.0;160.0;136.20550699298644;h_s;;;;;0;27;27;27;;;;;;;376.69269620004343;None;378.0425812000176;378.3593328000279;379.49280080001336;379.50936520000687;381.49263450002763;None;7;0;1.3264904000097886;381.49263450002763;None;;;;;;;;5;;;;;;383.0426568000112;None;None;None;[];383.0426568000112;None;None;;383.0426568000112;None;;;S11382;2022_Apr_20_1019;VideoMask;2021.1.2;119.97744420841028;
7.0;m;027_o_m_s_a.jpg;sad;7.0;happy_117.3.wmv;happy;9.0;incongruent;130.0;150.0;215.61964028550614;s_h;;;;;0;28;28;28;;;;;;;386.0591001000139;None;388.0756686000386;388.39224450004986;389.51746650005225;389.5347262000432;391.5257601000485;None;9;0;0.909243400034029;391.5257601000485;None;;;;;;;;6;;;;;;393.0755585000152;None;None;None;[];393.0755585000152;None;['9'];[1.5755913999746554];393.0755585000152;None;;;S11382;2022_Apr_20_1019;VideoMask;2021.1.2;119.97744420841028;
6.0;m;016_y_m_h_a.jpg;happy;9.0;happy_9.2ns.avi;happy;9.0;congruent;120.0;150.0;130.52042428082717;h_h;;;;;0;29;29;29;;;;;;;396.0755861000507;None;397.37534110003617;397.6921320000547;398.85051010001916;398.86715760000516;404.7504889999982;None;9;0;0.8527083999942988;404.7504889999982;None;;;;;;;;5;;;;;;406.3000358000281;None;None;None;[];406.3000358000281;None;None;;406.3000358000281;None;;;S11382;2022_Apr_20_1019;VideoMask;2021.1.2;119.97744420841028;
0.0;f;040_y_f_s_a.jpg;sad;7.0;happy_127.3.wmv;happy;9.0;incongruent;130.0;150.0;131.7195455720239;s_h;;;;;0;30;30;30;;;;;;;409.3332924999995;None;410.6416467000381;410.9582724000211;412.09181460004766;412.10845640004845;414.1583426000434;None;9;0;0.660864700039383;414.1583426000434;None;;;;;;;;5;;;;;;415.7082338000182;None;None;None;[];415.7082338000182;None;None;;415.7082338000182;None;;;S11382;2022_Apr_20_1019;VideoMask;2021.1.2;119.97744420841028;
0.0;f;030_o_f_s_a.jpg;sad;7.0;happy_125.3.wmv;happy;9.0;incongruent;130.0;150.0;220.51454909128134;s_h;;;;;0;31;31;31;;;;;;;418.7413554000086;None;420.7996690000291;421.1163140000426;422.2577760000131;422.27474810002604;424.2496965000173;None;9;0;1.03379329998279;424.2496965000173;None;;;;;;;;6;;;;;;425.799637100019;None;None;None;[];425.799637100019;None;['9'];[0.36354989995015785];425.799637100019;None;;;S11382;2022_Apr_20_1019;VideoMask;2021.1.2;119.97744420841028;
0.0;f;030_o_f_s_a.jpg;sad;7.0;sad_64.3ns.avi;sad;7.0;congruent;130.0;160.0;165.78667874766072;s_s;;;;;0;32;32;32;;;;;;;428.7996248000418;None;430.3994592000381;430.7161064000102;431.8578455000534;431.8745421000058;436.8495501000434;None;9;0;1.3455822000396438;436.8495501000434;None;;;;;;;;6;;;;;;438.3992214000318;None;None;None;[];438.3992214000318;None;['9'];[0.9720356000470929];438.3992214000318;None;;;S11382;2022_Apr_20_1019;VideoMask;2021.1.2;119.97744420841028;
3.0;m;013_y_m_s_a.jpg;sad;7.0;sad_7.7ns.avi;sad;7.0;congruent;130.0;160.0;196.24182255763262;s_s;;;;;0;33;33;33;;;;;;;441.39935120003065;None;443.25722970004426;443.5740628000349;444.7239559000009;444.74055770004634;450.70738350000465;None;7;0;0.8959006000077352;450.70738350000465;None;;;;;;;;5;;;;;;452.257210700016;None;None;None;[];452.257210700016;None;None;;452.257210700016;None;;;S11382;2022_Apr_20_1019;VideoMask;2021.1.2;119.97744420841028;
3.0;m;013_y_m_h_a.jpg;happy;9.0;happy_9.1ns.avi;happy;9.0;congruent;120.0;150.0;165.1890303600433;h_h;;;;;0;34;34;34;;;;;;;455.2904826000449;None;456.8904284000164;457.2068843000452;458.3819913000334;458.3987350000534;461.5651439000503;None;9;0;1.4383770000422373;461.5651439000503;None;;;;;;;;5;;;;;;463.4068787000142;None;None;None;[];463.4068787000142;None;None;;463.4068787000142;None;;;S11382;2022_Apr_20_1019;VideoMask;2021.1.2;119.97744420841028;
4.0;m;004_o_m_h_a.jpg;happy;9.0;sad_95.1ns.avi;sad;7.0;incongruent;120.0;160.0;152.68270002069931;h_s;;;;;0;35;35;35;;;;;;;466.4317578000482;None;467.97321570001077;468.2900570000056;469.47343700000783;469.4900162999984;478.21493700001156;None;7;0;1.116297599975951;478.21493700001156;None;;;;;;;;5;;;;;;479.77301900001476;None;None;None;[];479.77301900001476;None;None;;479.77301900001476;None;;;S11382;2022_Apr_20_1019;VideoMask;2021.1.2;119.97744420841028;
3.0;m;013_y_m_h_a.jpg;happy;9.0;sad_113.2.wmv;sad;7.0;incongruent;120.0;160.0;217.4973891947951;h_s;;;;;0;36;36;36;;;;;;;482.7895091000246;None;484.83942580001894;485.1561259000446;486.2895658000489;486.3061410000082;488.28940960002365;None;None;0;;488.28940960002365;None;;;;;;;;5;;;;;;489.8394277000334;None;None;None;[];489.8394277000334;None;"['7', '9', '9', '7']";"[0.019843599991872907, 0.611764499975834, 0.8117994000203907, 1.7399306999868713]";489.8394277000334;None;;;S11382;2022_Apr_20_1019;VideoMask;2021.1.2;119.97744420841028;
4.0;m;004_o_m_h_a.jpg;happy;9.0;happy_25.1ns.avi;happy;9.0;congruent;120.0;150.0;216.63044503818386;h_h;;;;;0;37;37;37;;;;;;;492.83937890001107;None;494.8724334000144;495.18922590004513;496.3225966000464;496.33919840003364;500.014263100049;None;9;0;0.8209825999801978;500.014263100049;None;;;;;;;;5;;;;;;501.5807250000071;None;None;None;[];501.5807250000071;None;None;;501.5807250000071;None;;;S11382;2022_Apr_20_1019;VideoMask;2021.1.2;119.97744420841028;
4.0;m;004_o_m_s_a.jpg;sad;7.0;happy_131.2.wmv;happy;9.0;incongruent;130.0;150.0;181.38407540847405;s_h;;;;;0;38;38;38;;;;;;;504.61403810000047;None;506.3387706000358;506.6554984000395;507.7886599000194;507.8057760000229;509.78893270000117;None;9;0;0.6383695999975316;509.78893270000117;None;;;;;;;;6;;;;;;511.3387708000373;None;None;None;[];511.3387708000373;None;['9'];[0.5364265000098385];511.3387708000373;None;;;S11382;2022_Apr_20_1019;VideoMask;2021.1.2;119.97744420841028;
0.0;f;040_y_f_h_a.jpg;happy;9.0;happy_24.3ns.avi;happy;9.0;congruent;120.0;150.0;213.25460698950434;h_h;;;;;0;39;39;39;;;;;;;514.3388268999988;None;516.3301803000504;516.6468528000405;517.8386542000226;517.8553772000014;519.7051655000541;None;9;0;1.3542037000297569;519.7051655000541;None;;;;;;;;5;;;;;;521.363459300017;None;None;None;[];521.363459300017;None;None;;521.363459300017;None;;;S11382;2022_Apr_20_1019;VideoMask;2021.1.2;119.97744420841028;
2.0;f;012_o_f_s_a.jpg;sad;7.0;happy_139.1.wmv;happy;9.0;incongruent;130.0;150.0;162.31500468041804;s_h;;;;;0;40;40;40;;;;;;;524.3883966000285;None;525.9631626000046;526.2799450000166;527.4136600000202;527.4382889000117;529.4132175000268;None;9;0;1.0219414999592118;529.4132175000268;None;;;;;;;;4;;;;;;531.0131939999992;None;None;None;[];531.0131939999992;None;['7'];[0.4139805000158958];531.0131939999992;None;;;S11382;2022_Apr_20_1019;VideoMask;2021.1.2;119.97744420841028;
0.0;f;030_o_f_h_a.jpg;happy;9.0;happy_24.1ns.avi;happy;9.0;congruent;120.0;150.0;168.36256624020774;h_h;;;;;0;41;41;41;;;;;;;534.0132184000104;None;535.6295477000531;535.9463261000346;537.0880687000463;537.1046488000429;540.4044963000342;None;9;0;0.8627921000006609;540.4044963000342;None;;;;;;;;5;;;;;;541.9544146000408;None;None;None;[];541.9544146000408;None;None;;541.9544146000408;None;;;S11382;2022_Apr_20_1019;VideoMask;2021.1.2;119.97744420841028;
2.0;f;012_o_f_h_a.jpg;happy;9.0;sad_113.1.wmv;sad;7.0;incongruent;120.0;160.0;177.44551734737394;h_s;;;;;0;42;42;42;;;;;;;544.979251300043;None;546.6625651000068;546.9792509000399;548.129319700005;548.146005000046;550.1126632000087;None;7;0;1.4346235999837518;550.1126632000087;None;;;;;;;;5;;;;;;551.662548500055;None;None;None;[];551.662548500055;None;None;;551.662548500055;None;;;S11382;2022_Apr_20_1019;VideoMask;2021.1.2;119.97744420841028;
3.0;m;033_o_m_s_a.jpg;sad;7.0;sad_64.5ns.avi;sad;7.0;congruent;130.0;160.0;130.55717223801247;s_s;;;;;0;43;43;43;;;;;;;554.6958233000478;None;556.0374654000043;556.3540341000189;557.5040687000146;557.5207735000295;564.0706778000458;None;7;0;1.1084952999954112;564.0706778000458;None;;;;;;;;5;;;;;;565.6204563000356;None;None;None;[];565.6204563000356;None;None;;565.6204563000356;None;;;S11382;2022_Apr_20_1019;VideoMask;2021.1.2;119.97744420841028;
7.0;m;027_o_m_h_a.jpg;happy;9.0;sad_117.1.wmv;sad;7.0;incongruent;120.0;160.0;181.28665202824095;h_s;;;;;0;44;44;44;;;;;;;568.6536451000138;None;570.3952413000516;570.7118890000274;571.8702216000529;571.8868352000136;573.8536641000537;None;7;0;1.093672399991192;573.8536641000537;None;;;;;;;;5;;;;;;575.4034977999981;None;None;None;[];575.4034977999981;None;None;;575.4034977999981;None;;;S11382;2022_Apr_20_1019;VideoMask;2021.1.2;119.97744420841028;
3.0;m;033_o_m_s_a.jpg;sad;7.0;happy_126.3.wmv;happy;9.0;incongruent;130.0;150.0;198.85252030535366;s_h;;;;;0;45;45;45;;;;;;;578.428456900001;None;580.3115672999993;580.6283358000219;581.761555300036;581.7783032000298;583.7615635000402;None;9;0;0.6017999000032432;583.7615635000402;None;;;;;;;;6;;;;;;585.3115479000262;None;None;None;[];585.3115479000262;None;['9'];[0.451798299967777];585.3115479000262;None;;;S11382;2022_Apr_20_1019;VideoMask;2021.1.2;119.97744420841028;
3.0;m;033_o_m_h_a.jpg;happy;9.0;sad_136.1.wmv;sad;7.0;incongruent;120.0;160.0;176.97002883463455;h_s;;;;;0;46;46;46;;;;;;;588.3198765999987;None;590.0196883000317;590.3362400000333;591.4612338000443;591.4778913000482;593.4696276000468;None;7;0;1.0456295000039972;593.4696276000468;None;;;;;;;;5;;;;;;595.0195831000456;None;None;None;[];595.0195831000456;None;None;;595.0195831000456;None;;;S11382;2022_Apr_20_1019;VideoMask;2021.1.2;119.97744420841028;
9.0;f;019_m_f_h_a.jpg;happy;9.0;happy_10.1ns.avi;happy;9.0;congruent;120.0;150.0;157.2463435658512;h_h;;;;;0;47;47;47;;;;;;;598.0443860000232;None;599.6111524000298;599.9276951000211;601.0611829000409;601.0777488000458;608.5025364000467;None;9;0;1.4690053000231273;608.5025364000467;None;;;;;;;;5;;;;;;610.0524898000294;None;None;None;[];610.0524898000294;None;None;;610.0524898000294;None;;;S11382;2022_Apr_20_1019;VideoMask;2021.1.2;119.97744420841028;
2.0;f;012_o_f_h_a.jpg;happy;9.0;happy_2.2ns.avi;happy;9.0;congruent;120.0;150.0;206.34800317295262;h_h;;;;;0;48;48;48;;;;;;;613.0773879000335;None;615.0690247000312;615.385516600043;616.5273775000242;616.5444883000455;628.7189373000292;None;9;0;0.6925314000109211;628.7189373000292;None;;;;;;;;6;;;;;;630.2766497000121;None;None;None;[];630.2766497000121;None;['9'];[0.39876089995959774];630.2766497000121;None;;;S11382;2022_Apr_20_1019;VideoMask;2021.1.2;119.97744420841028;
3.0;m;033_o_m_h_a.jpg;happy;9.0;happy_24.2ns.avi;happy;9.0;congruent;120.0;150.0;167.9423847659953;h_h;;;;;0;49;49;49;;;;;;;633.2768398000044;None;634.901587100001;635.2183578000404;636.3516769999987;636.3686227000435;640.085039800033;None;9;0;0.950423399975989;640.085039800033;None;;;;;;;;5;;;;;;641.6348471000092;None;None;None;[];641.6348471000092;None;None;;641.6348471000092;None;;;S11382;2022_Apr_20_1019;VideoMask;2021.1.2;119.97744420841028;
1.0;f;021_o_f_s_a.jpg;sad;7.0;happy_61.2ns.avi;happy;9.0;incongruent;130.0;150.0;210.94664004826666;s_h;;;;;0;50;50;50;;;;;;;644.6513124000048;None;646.6262511000386;646.9429423000547;648.1179777000216;648.1346373000415;652.601189500012;None;None;0;;652.601189500012;None;;;;;;;;6;;;;;;654.1676347000175;None;None;None;[];654.1676347000175;None;"['9', '7']";"[12.45659539999906, 2.61174399999436]";654.1676347000175;None;;;S11382;2022_Apr_20_1019;VideoMask;2021.1.2;119.97744420841028;
4.0;m;004_o_m_s_a.jpg;sad;7.0;sad_2.4ns.avi;sad;7.0;congruent;130.0;160.0;153.02079367163634;s_s;;;;;0;51;51;51;;;;;;;657.1511716000387;None;658.6424727000413;658.9592849000474;660.0925973000121;660.1092139000539;668.0594724000548;None;7;0;0.7998846999835223;668.0594724000548;None;;;;;;;;5;;;;;;669.8339801000548;None;None;None;[];669.8339801000548;None;None;;669.8339801000548;None;;;S11382;2022_Apr_20_1019;VideoMask;2021.1.2;119.97744420841028;
8.0;m;008_y_m_h_a.jpg;happy;9.0;happy_1.2ns.avi;happy;9.0;congruent;120.0;150.0;210.98946429383824;h_h;;;;;0;52;52;52;;;;;;;672.8588360000285;None;674.900458100019;675.2170369000523;676.3922470000107;676.4088193000061;689.1500882000546;None;9;0;1.245358899992425;689.1500882000546;None;;;;;;;;5;;;;;;690.700146600022;None;None;None;[];690.700146600022;None;None;;690.700146600022;None;;;S11382;2022_Apr_20_1019;VideoMask;2021.1.2;119.97744420841028;
2.0;f;012_o_f_s_a.jpg;sad;7.0;happy_52.2ns.avi;happy;9.0;incongruent;130.0;150.0;172.57202848318138;s_h;;;;;0;53;53;53;;;;;;;693.7248768000281;None;695.3830816000118;695.6998268000316;696.8672055000206;696.8915813000058;700.3837208000477;None;8;0;0.8757539000362158;700.3837208000477;None;;;;;;;;5;;;;;;702.1996959000244;None;None;None;[];702.1996959000244;None;None;;702.1996959000244;None;;;S11382;2022_Apr_20_1019;VideoMask;2021.1.2;119.97744420841028;
9.0;f;019_m_f_s_a.jpg;sad;7.0;happy_61.1ns.avi;happy;9.0;incongruent;130.0;150.0;181.3003220572762;s_h;;;;;0;54;54;54;;;;;;;705.2161244000308;None;706.9994447000208;707.316193000006;708.5078699000296;708.5244956000242;715.8410562000354;None;9;0;0.6903998000198044;715.8410562000354;None;;;;;;;;5;;;;;;717.3909096000134;None;None;None;[];717.3909096000134;None;None;;717.3909096000134;None;;;S11382;2022_Apr_20_1019;VideoMask;2021.1.2;119.97744420841028;
0.0;f;030_o_f_h_a.jpg;happy;9.0;sad_133.1.wmv;sad;7.0;incongruent;120.0;160.0;198.86251500867985;h_s;;;;;0;55;55;55;;;;;;;720.4159271000535;None;722.2989072000491;722.6157042999985;723.7408128000097;723.7575020000222;725.7489931000164;None;7;0;0.8064261999679729;725.7489931000164;None;;;;;;;;5;;;;;;727.2989743000362;None;None;None;[];727.2989743000362;None;None;;727.2989743000362;None;;;S11382;2022_Apr_20_1019;VideoMask;2021.1.2;119.97744420841028;
0.0;f;040_y_f_h_a.jpg;happy;9.0;sad_128.2.wmv;sad;7.0;incongruent;120.0;160.0;206.10005857915363;h_s;;;;;0;56;56;56;;;;;;;730.3237647000351;None;732.2736517000012;732.5903061000281;733.7319714000332;733.748765300028;735.7236847000313;None;7;0;1.239815799985081;735.7236847000313;None;;;;;;;;5;;;;;;737.2736319000251;None;None;None;[];737.2736319000251;None;None;;737.2736319000251;None;;;S11382;2022_Apr_20_1019;VideoMask;2021.1.2;119.97744420841028;
1.0;f;021_o_f_s_a.jpg;sad;7.0;sad_9.5ns.avi;sad;7.0;congruent;130.0;160.0;206.16642757875042;s_s;;;;;0;57;57;57;;;;;;;740.298643200018;None;742.2483756000292;742.5653263000422;743.7066651000059;743.7234189000446;749.4234345000004;None;7;0;1.1724532000371255;749.4234345000004;None;;;;;;;;4;;;;;;750.9732406000257;None;None;None;[];750.9732406000257;None;['7'];[0.5425309999845922];750.9732406000257;None;;;S11382;2022_Apr_20_1019;VideoMask;2021.1.2;119.97744420841028;
1.0;f;021_o_f_h_a.jpg;happy;9.0;happy_12.1ns.avi;happy;9.0;congruent;120.0;150.0;132.59080005900228;h_h;;;;;0;58;58;58;;;;;;;753.9815405000118;None;755.3395482000196;755.656308500038;756.8153928000247;756.8481662000413;764.4061653000535;None;9;0;1.093450499989558;764.4061653000535;None;;;;;;;;4;;;;;;765.95605170005;None;None;None;[];765.95605170005;None;['7'];[0.3837418000330217];765.95605170005;None;;;S11382;2022_Apr_20_1019;VideoMask;2021.1.2;119.97744420841028;
3.0;m;013_y_m_s_a.jpg;sad;7.0;happy_56.2ns.avi;happy;9.0;incongruent;130.0;150.0;163.39234110935848;s_h;;;;;0;59;59;59;;;;;;;768.9561912000063;None;770.5559874000028;770.8725653000292;772.039024800004;772.0558835000265;777.0309271000442;None;9;0;1.4125416000024416;777.0309271000442;None;;;;;;;;5;;;;;;778.5807488000137;None;None;None;[];778.5807488000137;None;None;;778.5807488000137;None;;;S11382;2022_Apr_20_1019;VideoMask;2021.1.2;119.97744420841028;
;;;;;;;;;;;;;;;;;;;;;;;;;;;;;;;;;;;;;;;;;;;;;;;;;;;;;;;;;;;;;;;;781.605601200019;None;;;;;;
