primePerson;primeGender;prime;primeEmotion;corrAnsPrime;target;targetEmotion;corrAnsTar;Cond;ID_Primer;ID_Target;JitterTime;Condition;example.thisRepN;example.thisTrialN;example.thisN;example.thisIndex;study.thisRepN;study.thisTrialN;study.thisN;study.thisIndex;MR_trigger_time;MR_trigger_number;text_intro.started;text_intro.stopped;text_probe.started;text_probe.stopped;polygon_ISI.started;polygon_ISI.stopped;polygon.started;polygon.stopped;primerImage.started;primerImage.stopped;response.started;response.stopped;key_resp.keys;key_resp.corr;key_resp.started;key_resp.stopped;slider_Text.started;slider_Text.stopped;slider_ex.response;slider_ex.rt;slider_ex.history;slider_ex.started;slider_ex.stopped;Rating;slider_resp_response.keys;slider_resp_response.started;slider_resp_response.stopped;text_start.started;text_start.stopped;text_slider.started;text_slider.stopped;slider_stud.response;slider_stud.rt;slider_stud.history;slider_stud.started;slider_stud.stopped;slider_resp_study.keys;slider_resp_study.rt;slider_resp_study.started;slider_resp_study.stopped;key_resp.rt;text_ende.started;text_ende.stopped;participant;date;expName;psychopyVersion;frameRate;
1111;m;1111_m_m_h_a.jpg;happy;9;example_30.4ns.avi;neutral;7;incongruent;120.0;170.0;189.5874364012288;;0;0;0;0;;;;;114.21099180029705;1;114.28950540022925;116.28973030019552;116.28973030019552;None;118.30628310004249;None;120.25603240029886;120.58128480007872;121.7894494002685;121.80618770001456;126.04766010027379;None;None;0;126.04766010027379;None;127.82248320011422;None;None;None;[];127.82248320011422;None;5;None;127.82248320011422;None;;;;;;;;;;;;;;;;;S11376;2022_Apr_13_1931;VideoMask;2021.1.2;120.17988516681162;
1113;f;1113_y_f_s_a.jpg;sad;7;example_30.3ns.avi;neutral;7;incongruent;130.0;170.0;229.02432995836998;;0;1;1;1;;;;;;;;;;;130.82231890037656;None;132.9474670002237;133.2639411999844;134.47238059993833;134.4894715002738;136.3973934003152;None;None;0;136.3973934003152;None;137.94714220007882;None;None;None;[];137.94714220007882;None;5;None;137.94714220007882;None;;;;;;;;;;;;;;;;;S11376;2022_Apr_13_1931;VideoMask;2021.1.2;120.17988516681162;
9.0;f;019_m_f_h_a.jpg;happy;9.0;sad_115.1.wmv;sad;7.0;incongruent;120.0;160.0;128.09063432376465;h_s;;;;;0;0;0;0;;;;;;;141.98887290013954;None;143.2720190002583;143.5886043002829;144.73879040032625;144.75546379992738;146.72196729993448;None;None;0;146.72196729993448;None;;;;;;;;5;;;;140.98063200013712;None;148.32199080009013;None;None;None;[];148.32199080009013;None;"['7', '9']";"[0.09863389981910586, 2.106756899971515]";148.32199080009013;None;;;;S11376;2022_Apr_13_1931;VideoMask;2021.1.2;120.17988516681162;
3.0;m;033_o_m_s_a.jpg;sad;7.0;sad_94.2ns.avi;sad;7.0;congruent;130.0;160.0;182.29120173647655;s_s;;;;;0;1;1;1;;;;;;;151.3219540999271;None;153.05503180017695;153.3717050999403;154.57160759996623;154.58871980011463;157.1967506003566;None;None;0;157.1967506003566;None;;;;;;;;5;;;;;;158.76315090013668;None;None;None;[];158.76315090013668;None;None;;158.76315090013668;None;;;;S11376;2022_Apr_13_1931;VideoMask;2021.1.2;120.17988516681162;
8.0;m;008_y_m_h_a.jpg;happy;9.0;happy_26.1ns.avi;happy;9.0;congruent;120.0;150.0;155.9437854594882;h_h;;;;;0;2;2;2;;;;;;;161.79663900006562;None;163.29638670012355;163.61309450026602;164.74698500009254;164.76334790000692;166.73805500008166;None;9;0;166.73805500008166;None;;;;;;;;7;;;;;;168.28801220003515;None;None;None;[];168.28801220003515;None;"['9', '9']";"[1.1726882001385093, 1.5885352999903262]";168.28801220003515;None;0.8345846999436617;;;S11376;2022_Apr_13_1931;VideoMask;2021.1.2;120.17988516681162;
0.0;f;040_y_f_h_a.jpg;happy;9.0;sad_138.1.wmv;sad;7.0;incongruent;120.0;160.0;133.99071306426532;h_s;;;;;0;3;3;3;;;;;;;171.28798090014607;None;172.61267499998212;172.92944040009752;174.05454639997333;174.07119280006737;176.06273240037262;None;7;0;176.06273240037262;None;;;;;;;;4;;;;;;177.6127320001833;None;None;None;[];177.6127320001833;None;['7'];[1.4798463000915945];177.6127320001833;None;1.2698772000148892;;;S11376;2022_Apr_13_1931;VideoMask;2021.1.2;120.17988516681162;
8.0;f;028_y_f_s_a.jpg;sad;7.0;sad_64.2ns.avi;sad;7.0;congruent;130.0;160.0;229.88540597086478;s_s;;;;;0;4;4;4;;;;;;;180.61279160017148;None;182.82089700037614;183.1374909002334;184.37919609993696;184.39586850022897;195.27061730017886;None;7;0;195.27061730017886;None;;;;;;;;3;;;;;;196.8204332999885;None;None;None;[];196.8204332999885;None;"['7', '7']";"[0.7282620999030769, 1.0802294998429716]";196.8204332999885;None;1.0141463000327349;;;S11376;2022_Apr_13_1931;VideoMask;2021.1.2;120.17988516681162;
7.0;m;027_o_m_s_a.jpg;sad;7.0;sad_10.4ns.avi;sad;7.0;congruent;130.0;160.0;185.20129417468752;s_s;;;;;0;5;5;5;;;;;;;199.82033180026338;None;201.5784793002531;201.89515450038016;203.0867300000973;203.10345070017502;206.19517139997333;None;None;0;206.19517139997333;None;;;;;;;;4;;;;;;207.7615951001644;None;None;None;[];207.7615951001644;None;['7'];[10.864241600036621];207.7615951001644;None;;;;S11376;2022_Apr_13_1931;VideoMask;2021.1.2;120.17988516681162;
2.0;f;012_o_f_s_a.jpg;sad;7.0;sad_7.5ns.avi;sad;7.0;congruent;130.0;160.0;220.27842655424388;s_s;;;;;0;6;6;6;;;;;;;210.74499380029738;None;212.7781360000372;213.0948435999453;214.28662270028144;214.30322550004348;217.02001290023327;None;7;0;217.02001290023327;None;;;;;;;;2;;;;;;218.57807830022648;None;None;None;[];218.57807830022648;None;"['7', '7', '7', '7', '7']";"[0.49853420024737716, 0.8025491000153124, 1.2025800999253988, 1.538700600154698, 1.8825898002833128]";218.57807830022648;None;0.9366824999451637;;;S11376;2022_Apr_13_1931;VideoMask;2021.1.2;120.17988516681162;
2.0;f;012_o_f_h_a.jpg;happy;9.0;happy_27.1ns.avi;happy;9.0;congruent;120.0;150.0;146.44967055810616;h_h;;;;;0;7;7;7;;;;;;;221.5862954002805;None;223.01124550029635;223.32788040023297;224.51995990006253;224.54463460016996;226.9529077000916;None;9;0;226.9529077000916;None;;;;;;;;8;;;;;;228.50278310012072;None;None;None;[];228.50278310012072;None;"['9', '9', '9']";"[0.7896306999027729, 1.1261241999454796, 1.7657241998240352]";228.50278310012072;None;1.091610699892044;;;S11376;2022_Apr_13_1931;VideoMask;2021.1.2;120.17988516681162;
8.0;f;028_y_f_h_a.jpg;happy;9.0;sad_119.1.wmv;sad;7.0;incongruent;120.0;160.0;148.71526953572538;h_s;;;;;0;8;8;8;;;;;;;231.5026742001064;None;232.9524977002293;233.26925639994442;234.41063769999892;234.42763249995187;236.46923670032993;None;7;0;236.46923670032993;None;;;;;;;;3;;;;;;238.01911740005016;None;None;None;[];238.01911740005016;None;"['7', '7', '7']";"[1.1535276998765767, 1.70568129979074, 2.089473099913448]";238.01911740005016;None;1.1994451000355184;;;S11376;2022_Apr_13_1931;VideoMask;2021.1.2;120.17988516681162;
6.0;m;016_y_m_s_a.jpg;sad;7.0;happy_60.4ns.avi;happy;9.0;incongruent;130.0;150.0;126.02367393611817;s_h;;;;;0;9;9;9;;;;;;;241.01904190005735;None;242.31904910039157;242.63567320024595;243.79387450031936;243.81060150032863;249.56054780026898;None;9;0;249.56054780026898;None;;;;;;;;7;;;;;;251.11040200013667;None;None;None;[];251.11040200013667;None;"['9', '9']";"[0.7822918999008834, 1.5901766000315547]";251.11040200013667;None;0.9479935998097062;;;S11376;2022_Apr_13_1931;VideoMask;2021.1.2;120.17988516681162;
9.0;f;019_m_f_s_a.jpg;sad;7.0;sad_8.4ns.avi;sad;7.0;congruent;130.0;160.0;171.6633093155257;s_s;;;;;0;10;10;10;;;;;;;254.1104128002189;None;255.793508999981;256.1101623000577;257.29346770001575;257.31017870036885;265.3767637000419;None;7;0;265.3767637000419;None;;;;;;;;3;;;;;;266.92656429996714;None;None;None;[];266.92656429996714;None;"['7', '7', '7']";"[0.5580764999613166, 0.9179831999354064, 1.3739029997959733]";266.92656429996714;None;1.195868999697268;;;S11376;2022_Apr_13_1931;VideoMask;2021.1.2;120.17988516681162;
4.0;m;004_o_m_h_a.jpg;happy;9.0;happy_1.1ns.avi;happy;9.0;congruent;120.0;150.0;203.50057144619865;h_h;;;;;0;11;11;11;;;;;;;269.93487260024995;None;271.9511815002188;272.26803639996797;273.4763942002319;273.49296830035746;287.8931252001785;None;9;0;287.8931252001785;None;;;;;;;;7;;;;;;290.17582410015166;None;None;None;[];290.17582410015166;None;"['9', '9', '9']";"[0.4848500997759402, 1.0607027998194098, 2.0049353996291757]";290.17582410015166;None;1.6717147999443114;;;S11376;2022_Apr_13_1931;VideoMask;2021.1.2;120.17988516681162;
7.0;m;027_o_m_h_a.jpg;happy;9.0;happy_20.1ns.avi;happy;9.0;congruent;120.0;150.0;152.91127178874285;h_h;;;;;0;12;12;12;;;;;;;293.17584570031613;None;294.6921957000159;295.0089537999593;296.2007173001766;296.21798379998654;299.15891300002113;None;9;0;299.15891300002113;None;;;;;;;;8;;;;;;300.70883070025593;None;None;None;[];300.70883070025593;None;"['9', '9', '9']";"[0.5357927000150084, 0.847564599942416, 1.1756931999698281]";300.70883070025593;None;1.1736119999550283;;;S11376;2022_Apr_13_1931;VideoMask;2021.1.2;120.17988516681162;
0.0;f;040_y_f_s_a.jpg;sad;7.0;sad_94.3ns.avi;sad;7.0;congruent;130.0;160.0;155.27414203894395;s_s;;;;;0;13;13;13;;;;;;;303.7088035000488;None;305.20853990036994;305.5253127999604;306.6753490003757;306.69180650031194;309.28353550005704;None;None;0;309.28353550005704;None;;;;;;;;5;;;;;;310.83331140037626;None;None;None;[];310.83331140037626;None;None;;310.83331140037626;None;;;;S11376;2022_Apr_13_1931;VideoMask;2021.1.2;120.17988516681162;
0.0;f;030_o_f_s_a.jpg;sad;7.0;sad_68.1ns.avi;sad;7.0;congruent;130.0;160.0;158.9411396037211;s_s;;;;;0;14;14;14;;;;;;;313.84994340036064;None;315.42510210024193;315.7415757002309;316.9082575002685;316.9250439000316;324.29978070035577;None;7;0;324.29978070035577;None;;;;;;;;3;;;;;;325.8499817000702;None;None;None;[];325.8499817000702;None;"['7', '7']";"[0.5785705000162125, 0.9865473001264036]";325.8499817000702;None;0.8407829999923706;;;S11376;2022_Apr_13_1931;VideoMask;2021.1.2;120.17988516681162;
0.0;f;030_o_f_h_a.jpg;happy;9.0;sad_127.1.wmv;sad;7.0;incongruent;120.0;160.0;180.59976631384873;h_s;;;;;0;15;15;15;;;;;;;328.849640800152;None;330.5744268000126;330.8911909000017;332.01622080011293;332.03287480026484;334.02444850001484;None;None;0;334.02444850001484;None;;;;;;;;3;;;;;;335.5910243000835;None;None;None;[];335.5910243000835;None;"['7', '7']";"[9.666497100144625, 2.17358689988032]";335.5910243000835;None;;;;S11376;2022_Apr_13_1931;VideoMask;2021.1.2;120.17988516681162;
8.0;m;008_y_m_s_a.jpg;sad;7.0;happy_133.3.wmv;happy;9.0;incongruent;130.0;150.0;152.577966552593;s_h;;;;;0;16;16;16;;;;;;;338.58275560010225;None;340.0658571003005;340.3825564002618;341.5075435000472;341.52414360037073;343.5240797000006;None;9;0;343.5240797000006;None;;;;;;;;7;;;;;;345.2657709000632;None;None;None;[];345.2657709000632;None;"['9', '9']";"[0.9706933996640146, 1.290883899666369]";345.2657709000632;None;1.0566703998483717;;;S11376;2022_Apr_13_1931;VideoMask;2021.1.2;120.17988516681162;
3.0;m;033_o_m_h_a.jpg;happy;9.0;sad_128.1.wmv;sad;7.0;incongruent;120.0;160.0;171.0492454518585;h_s;;;;;0;17;17;17;;;;;;;348.27415399998426;None;349.92382000014186;350.2405822002329;351.373679399956;351.39036420034245;353.3737691999413;None;7;0;353.3737691999413;None;;;;;;;;3;;;;;;354.9237589002587;None;None;None;[];354.9237589002587;None;"['7', '7']";"[0.8090523998253047, 1.0806951997801661]";354.9237589002587;None;1.0867482000030577;;;S11376;2022_Apr_13_1931;VideoMask;2021.1.2;120.17988516681162;
1.0;f;021_o_f_h_a.jpg;happy;9.0;sad_116.1.wmv;sad;7.0;incongruent;120.0;160.0;184.06847610053055;h_s;;;;;0;18;18;18;;;;;;;357.9236675002612;None;359.67349090008065;359.9902352001518;361.12412760034204;361.1485717999749;363.1234838999808;None;7;0;363.1234838999808;None;;;;;;;;2;;;;;;364.6734673003666;None;None;None;[];364.6734673003666;None;"['7', '7', '7', '7']";"[0.41902290005236864, 0.7071134997531772, 1.0749042998068035, 1.4993372997269034]";364.6734673003666;None;0.8411111999303102;;;S11376;2022_Apr_13_1931;VideoMask;2021.1.2;120.17988516681162;
4.0;m;004_o_m_s_a.jpg;sad;7.0;happy_28.1ns.avi;happy;9.0;incongruent;130.0;150.0;157.40741103039684;s_h;;;;;0;19;19;19;;;;;;;367.67343319999054;None;369.20666939998046;369.5232847002335;370.67331159999594;370.6898171999492;375.0481400000863;None;9;0;375.0481400000863;None;;;;;;;;9;;;;;;376.5981022999622;None;None;None;[];376.5981022999622;None;"['9', '9', '9', '9']";"[0.3906745999120176, 0.6065193000249565, 0.8303211000747979, 1.166635800153017]";376.5981022999622;None;0.6204789001494646;;;S11376;2022_Apr_13_1931;VideoMask;2021.1.2;120.17988516681162;
8.0;f;028_y_f_s_a.jpg;sad;7.0;happy_122.3.wmv;happy;9.0;incongruent;130.0;150.0;171.8670540936116;s_h;;;;;0;20;20;20;;;;;;;379.60651160031557;None;381.2561384001747;381.5728460000828;382.7062286003493;382.7229434000328;384.7062870003283;None;9;0;384.7062870003283;None;;;;;;;;8;;;;;;386.2561278999783;None;None;None;[];386.2561278999783;None;"['9', '9', '9', '9']";"[0.3964112000539899, 0.6525098001584411, 1.0124756000004709, 1.3484335001558065]";386.2561278999783;None;0.8262589001096785;;;S11376;2022_Apr_13_1931;VideoMask;2021.1.2;120.17988516681162;
8.0;m;008_y_m_s_a.jpg;sad;7.0;sad_6.5ns.avi;sad;7.0;congruent;130.0;160.0;170.39333839271438;s_s;;;;;0;21;21;21;;;;;;;389.26445810031146;None;390.8974340003915;391.214211600367;392.4311861000024;392.4556984002702;397.35582210030407;None;7;0;397.35582210030407;None;;;;;;;;2;;;;;;398.90572259994224;None;None;None;[];398.90572259994224;None;"['7', '7', '7']";"[0.9069982999935746, 1.2668452002108097, 1.530652599874884]";398.90572259994224;None;0.5210035997442901;;;S11376;2022_Apr_13_1931;VideoMask;2021.1.2;120.17988516681162;
8.0;f;028_y_f_h_a.jpg;happy;9.0;happy_23.1ns.avi;happy;9.0;congruent;120.0;150.0;225.70986890587952;h_h;;;;;0;22;22;22;;;;;;;401.9140333002433;None;404.0054064001888;404.3221606002189;405.4719774001278;405.4888770002872;410.0303766001016;None;9;0;410.0303766001016;None;;;;;;;;9;;;;;;411.5803551003337;None;None;None;[];411.5803551003337;None;"['9', '9', '9', '9', '9']";"[0.3123510000295937, 0.552228800021112, 0.8000050000846386, 1.1040849001146853, 1.4481828003190458]";411.5803551003337;None;0.6781337996944785;;;S11376;2022_Apr_13_1931;VideoMask;2021.1.2;120.17988516681162;
8.0;m;008_y_m_h_a.jpg;happy;9.0;sad_111.1.wmv;sad;7.0;incongruent;120.0;160.0;152.63076835312847;h_s;;;;;0;23;23;23;;;;;;;414.58871720032766;None;416.07170890038833;416.388489600271;417.55493460036814;417.5715973000042;419.521831900347;None;7;0;419.521831900347;None;;;;;;;;2;;;;;;421.08004860021174;None;None;None;[];421.08004860021174;None;"['7', '7', '7']";"[0.5166715001687407, 0.7405520002357662, 1.0605005002580583]";421.08004860021174;None;1.1388868996873498;;;S11376;2022_Apr_13_1931;VideoMask;2021.1.2;120.17988516681162;
0.0;f;040_y_f_s_a.jpg;sad;7.0;sad_67.2ns.avi;sad;7.0;congruent;130.0;160.0;220.9892697323079;s_s;;;;;0;24;24;24;;;;;;;424.0799496001564;None;426.16302550025284;426.4798350003548;427.6797430003062;427.6965749999508;436.8379963003099;None;7;0;436.8379963003099;None;;;;;;;;3;;;;;;438.38781230011955;None;None;None;[];438.38781230011955;None;"['7', '7']";"[0.304691500030458, 0.5926071000285447]";438.38781230011955;None;0.574486400000751;;;S11376;2022_Apr_13_1931;VideoMask;2021.1.2;120.17988516681162;
8.0;m;008_y_m_s_a.jpg;sad;7.0;happy_29.1ns.avi;happy;9.0;incongruent;130.0;150.0;120.0316142834122;s_h;;;;;0;25;25;25;;;;;;;441.3878158000298;None;442.5959184002131;442.9126671999693;444.07930650003254;444.0959601001814;446.737655099947;None;9;0;446.737655099947;None;;;;;;;;8;;;;;;448.2958509000018;None;None;None;[];448.2958509000018;None;"['9', '9', '9', '9']";"[0.37270279973745346, 0.6446297997608781, 1.012762499973178, 1.3410597001202404]";448.2958509000018;None;0.6588527001440525;;;S11376;2022_Apr_13_1931;VideoMask;2021.1.2;120.17988516681162;
6.0;m;016_y_m_s_a.jpg;sad;7.0;sad_8.3ns.avi;sad;7.0;congruent;130.0;160.0;152.85371098242734;s_s;;;;;0;26;26;26;;;;;;;451.30423320038244;None;452.828833500389;453.14567290013656;454.3454025001265;454.3622294999659;462.0370249999687;None;7;0;462.0370249999687;None;;;;;;;;3;;;;;;463.5870243003592;None;None;None;[];463.5870243003592;None;"['7', '7']";"[0.8176957997493446, 1.2574688997119665]";463.5870243003592;None;1.0795390997081995;;;S11376;2022_Apr_13_1931;VideoMask;2021.1.2;120.17988516681162;
6.0;m;016_y_m_h_a.jpg;happy;9.0;sad_114.1.wmv;sad;7.0;incongruent;120.0;160.0;136.20550699298644;h_s;;;;;0;27;27;27;;;;;;;466.5869267000817;None;467.9451483003795;468.2618094999343;469.3868607003242;469.40340259997174;471.404002700001;None;7;0;471.404002700001;None;;;;;;;;2;;;;;;473.0450645000674;None;None;None;[];473.0450645000674;None;"['7', '7', '7', '7', '7', '7']";"[0.4154274999164045, 0.7353825001046062, 1.1114807999692857, 1.559639099985361, 1.911523399874568, 2.2554223998449743]";473.0450645000674;None;0.9845203999429941;;;S11376;2022_Apr_13_1931;VideoMask;2021.1.2;120.17988516681162;
7.0;m;027_o_m_s_a.jpg;sad;7.0;happy_117.3.wmv;happy;9.0;incongruent;130.0;150.0;215.61964028550614;s_h;;;;;0;28;28;28;;;;;;;476.0534580000676;None;478.0696971002035;478.3865180001594;479.51982560008764;479.5365237002261;481.5199380000122;None;9;0;481.5199380000122;None;;;;;;;;8;;;;;;483.0697290999815;None;None;None;[];483.0697290999815;None;"['9', '9', '9', '9', '9']";"[0.30304899998009205, 0.5751853003166616, 0.9427527002990246, 1.3987290002405643, 2.0869362000375986]";483.0697290999815;None;0.5406272001564503;;;S11376;2022_Apr_13_1931;VideoMask;2021.1.2;120.17988516681162;
6.0;m;016_y_m_h_a.jpg;happy;9.0;happy_9.2ns.avi;happy;9.0;congruent;120.0;150.0;130.52042428082717;h_h;;;;;0;29;29;29;;;;;;;486.0780766000971;None;487.411279800348;487.72788170026615;488.96112690027803;488.97786199999973;494.7860368001275;None;9;0;494.7860368001275;None;;;;;;;;8;;;;;;496.33599269995466;None;None;None;[];496.33599269995466;None;"['9', '9', '9']";"[0.36448039999231696, 0.7005280000157654, 1.2445771000348032]";496.33599269995466;None;0.5944765000604093;;;S11376;2022_Apr_13_1931;VideoMask;2021.1.2;120.17988516681162;
0.0;f;040_y_f_s_a.jpg;sad;7.0;happy_127.3.wmv;happy;9.0;incongruent;130.0;150.0;131.7195455720239;s_h;;;;;0;30;30;30;;;;;;;499.3359424001537;None;500.6440717000514;500.9607461001724;502.0859382003546;502.1025061002001;504.1691815000959;None;9;0;504.1691815000959;None;;;;;;;;8;;;;;;505.71067670034245;None;None;None;[];505.71067670034245;None;"['9', '9', '9']";"[0.3580728000961244, 0.6296843001618981, 0.917822599876672]";505.71067670034245;None;0.8032778999768198;;;S11376;2022_Apr_13_1931;VideoMask;2021.1.2;120.17988516681162;
0.0;f;030_o_f_s_a.jpg;sad;7.0;happy_125.3.wmv;happy;9.0;incongruent;130.0;150.0;220.51454909128134;s_h;;;;;0;31;31;31;;;;;;;508.7107388000004;None;510.76875270018354;511.0854813000187;512.2277884003706;512.251935900189;514.2186839999631;None;9;0;514.2186839999631;None;;;;;;;;8;;;;;;515.7603740999475;None;None;None;[];515.7603740999475;None;"['9', '9', '9']";"[0.25211629969999194, 0.5402589999139309, 0.924275899771601]";515.7603740999475;None;0.9059335999190807;;;S11376;2022_Apr_13_1931;VideoMask;2021.1.2;120.17988516681162;
0.0;f;030_o_f_s_a.jpg;sad;7.0;sad_64.3ns.avi;sad;7.0;congruent;130.0;160.0;165.78667874766072;s_s;;;;;0;32;32;32;;;;;;;518.7686717002653;None;520.3684143000282;520.6851026001386;521.8435206003487;521.8601752002724;526.8266924000345;None;7;0;526.8266924000345;None;;;;;;;;2;;;;;;528.4683089000173;None;None;None;[];528.4683089000173;None;"['7', '7', '7']";"[0.4485427998006344, 0.7281546001322567, 1.0720965000800788]";528.4683089000173;None;1.2418823996558785;;;S11376;2022_Apr_13_1931;VideoMask;2021.1.2;120.17988516681162;
3.0;m;013_y_m_s_a.jpg;sad;7.0;sad_7.7ns.avi;sad;7.0;congruent;130.0;160.0;196.24182255763262;s_s;;;;;0;33;33;33;;;;;;;531.4766315999441;None;533.3431086000055;533.6597438999452;534.8261072002351;534.8429479999468;540.8012182000093;None;7;0;540.8012182000093;None;;;;;;;;3;;;;;;542.3512095999904;None;None;None;[];542.3512095999904;None;"['7', '7']";"[0.51734279980883, 1.2532335999421775]";542.3512095999904;None;1.4830990000627935;;;S11376;2022_Apr_13_1931;VideoMask;2021.1.2;120.17988516681162;
3.0;m;013_y_m_h_a.jpg;happy;9.0;happy_9.1ns.avi;happy;9.0;congruent;120.0;150.0;165.1890303600433;h_h;;;;;0;34;34;34;;;;;;;545.3595177000389;None;546.9676678003743;547.2843472003005;548.5260406001471;548.5426203999668;551.6425952003337;None;9;0;551.6425952003337;None;;;;;;;;8;;;;;;553.1924976003356;None;None;None;[];553.1924976003356;None;"['9', '9', '9']";"[0.3319597998633981, 0.5879814000800252, 0.9480729000642896]";553.1924976003356;None;1.0421370998956263;;;S11376;2022_Apr_13_1931;VideoMask;2021.1.2;120.17988516681162;
4.0;m;004_o_m_h_a.jpg;happy;9.0;sad_95.1ns.avi;sad;7.0;incongruent;120.0;160.0;152.68270002069931;h_s;;;;;0;35;35;35;;;;;;;556.2008307003416;None;557.7424702001736;558.0589765002951;559.350651500281;559.3673247001134;567.9841049001552;None;7;0;567.9841049001552;None;;;;;;;;2;;;;;;569.5920568001457;None;None;None;[];569.5920568001457;None;"['7', '7', '7']";"[0.8846637001261115, 1.1482367999851704, 1.5004507000558078]";569.5920568001457;None;1.0123622003011405;;;S11376;2022_Apr_13_1931;VideoMask;2021.1.2;120.17988516681162;
3.0;m;013_y_m_h_a.jpg;happy;9.0;sad_113.2.wmv;sad;7.0;incongruent;120.0;160.0;217.4973891947951;h_s;;;;;0;36;36;36;;;;;;;572.5919198002666;None;574.6334043000825;574.9501824001782;576.0752268000506;576.0917479000054;578.0834845001809;None;None;0;578.0834845001809;None;;;;;;;;5;;;;;;579.6331987003796;None;None;None;[];579.6331987003796;None;None;;579.6331987003796;None;;;;S11376;2022_Apr_13_1931;VideoMask;2021.1.2;120.17988516681162;
4.0;m;004_o_m_h_a.jpg;happy;9.0;happy_25.1ns.avi;happy;9.0;congruent;120.0;150.0;216.63044503818386;h_h;;;;;0;37;37;37;;;;;;;582.649826799985;None;584.674736500252;584.991410900373;586.1579304002225;586.1749702002853;589.8166279001161;None;9;0;589.8166279001161;None;;;;;;;;8;;;;;;591.3829856002703;None;None;None;[];591.3829856002703;None;"['9', '9', '9', '9', '9']";"[0.30954069970175624, 0.6214826996438205, 1.093869199976325, 1.701513999607414, 2.229411699809134]";591.3829856002703;None;0.40370470006018877;;;S11376;2022_Apr_13_1931;VideoMask;2021.1.2;120.17988516681162;
4.0;m;004_o_m_s_a.jpg;sad;7.0;happy_131.2.wmv;happy;9.0;incongruent;130.0;150.0;181.38407540847405;s_h;;;;;0;38;38;38;;;;;;;594.3912153001875;None;596.116047100164;596.4327964000404;597.5659635001794;597.582870000042;599.5660307002254;None;9;0;599.5660307002254;None;;;;;;;;8;;;;;;601.1160103003494;None;None;None;[];601.1160103003494;None;"['9', '9', '9']";"[0.3125006998889148, 0.6566689000464976, 1.0087780999019742]";601.1160103003494;None;0.4627832002006471;;;S11376;2022_Apr_13_1931;VideoMask;2021.1.2;120.17988516681162;
0.0;f;040_y_f_h_a.jpg;happy;9.0;happy_24.3ns.avi;happy;9.0;congruent;120.0;150.0;213.25460698950434;h_h;;;;;0;39;39;39;;;;;;;604.1244357000105;None;606.0990655999631;606.4158387002535;607.615794500336;607.6327976002358;609.4741461002268;None;9;0;609.4741461002268;None;;;;;;;;7;;;;;;611.4488433003426;None;None;None;[];611.4488433003426;None;"['9', '9']";"[0.3636999996379018, 0.6838338999077678]";611.4488433003426;None;0.8822143003344536;;;S11376;2022_Apr_13_1931;VideoMask;2021.1.2;120.17988516681162;
2.0;f;012_o_f_s_a.jpg;sad;7.0;happy_139.1.wmv;happy;9.0;incongruent;130.0;150.0;162.31500468041804;s_h;;;;;0;40;40;40;;;;;;;614.4490929003805;None;616.007016400341;616.3238015002571;617.4655272001401;617.4820965002291;619.457154000178;None;9;0;619.457154000178;None;;;;;;;;8;;;;;;621.357040300034;None;None;None;[];621.357040300034;None;"['9', '9', '9']";"[0.36731019988656044, 0.6553625999949872, 0.9913194002583623]";621.357040300034;None;0.43529060017317533;;;S11376;2022_Apr_13_1931;VideoMask;2021.1.2;120.17988516681162;
0.0;f;030_o_f_h_a.jpg;happy;9.0;happy_24.1ns.avi;happy;9.0;congruent;120.0;150.0;168.36256624020774;h_h;;;;;0;41;41;41;;;;;;;624.3570600999519;None;625.9900793000124;626.3067525001243;627.5068981000222;627.5235501001589;630.7650741003454;None;9;0;630.7650741003454;None;;;;;;;;8;;;;;;632.3150420002639;None;None;None;[];632.3150420002639;None;"['9', '9', '9']";"[0.22533630020916462, 0.5374090000987053, 0.8817630000412464]";632.3150420002639;None;0.7915090001188219;;;S11376;2022_Apr_13_1931;VideoMask;2021.1.2;120.17988516681162;
2.0;f;012_o_f_h_a.jpg;happy;9.0;sad_113.1.wmv;sad;7.0;incongruent;120.0;160.0;177.44551734737394;h_s;;;;;0;42;42;42;;;;;;;635.3149530002847;None;637.0230678999797;637.3398466003127;638.4729969999753;638.4898071000353;640.473145800177;None;7;0;640.473145800177;None;;;;;;;;3;;;;;;642.0230772001669;None;None;None;[];642.0230772001669;None;"['7', '7']";"[0.7812017002142966, 1.0532519998960197]";642.0230772001669;None;1.2272510998882353;;;S11376;2022_Apr_13_1931;VideoMask;2021.1.2;120.17988516681162;
3.0;m;033_o_m_s_a.jpg;sad;7.0;sad_64.5ns.avi;sad;7.0;congruent;130.0;160.0;130.55717223801247;s_s;;;;;0;43;43;43;;;;;;;645.0313796000555;None;646.3812254001386;646.6978923003189;647.906172499992;647.9228778001852;654.4310378003865;None;7;0;654.4310378003865;None;;;;;;;;2;;;;;;655.9809566000476;None;None;None;[];655.9809566000476;None;"['7', '7', '7']";"[0.43171409983187914, 0.6953480001538992, 1.0475282999686897]";655.9809566000476;None;0.9894449999555945;;;S11376;2022_Apr_13_1931;VideoMask;2021.1.2;120.17988516681162;
7.0;m;027_o_m_h_a.jpg;happy;9.0;sad_117.1.wmv;sad;7.0;incongruent;120.0;160.0;181.28665202824095;h_s;;;;;0;44;44;44;;;;;;;658.9808718003333;None;660.7140003000386;661.0307633001357;662.205797099974;662.2224499001168;664.1640043002553;None;7;0;664.1640043002553;None;;;;;;;;3;;;;;;665.7056567999534;None;None;None;[];665.7056567999534;None;"['7', '7', '7']";"[0.546762699726969, 0.8106195000000298, 1.23492919979617]";665.7056567999534;None;1.0724655999802053;;;S11376;2022_Apr_13_1931;VideoMask;2021.1.2;120.17988516681162;
3.0;m;033_o_m_s_a.jpg;sad;7.0;happy_126.3.wmv;happy;9.0;incongruent;130.0;150.0;198.85252030535366;s_h;;;;;0;45;45;45;;;;;;;668.7139817001298;None;670.5804298999719;670.8969938000664;672.0302606001496;672.047123500146;674.0303629003465;None;9;0;674.0303629003465;None;;;;;;;;7;;;;;;675.7135727000423;None;None;None;[];675.7135727000423;None;"['9', '9', '9']";"[0.28290100023150444, 0.6187301999889314, 1.0829524998553097]";675.7135727000423;None;0.6620299001224339;;;S11376;2022_Apr_13_1931;VideoMask;2021.1.2;120.17988516681162;
3.0;m;033_o_m_h_a.jpg;happy;9.0;sad_136.1.wmv;sad;7.0;incongruent;120.0;160.0;176.97002883463455;h_s;;;;;0;46;46;46;;;;;;;678.7136836000718;None;680.3966911002062;680.7134672002867;681.8388739000075;681.8551684003323;683.8467610003427;None;7;0;683.8467610003427;None;;;;;;;;3;;;;;;685.3966705002822;None;None;None;[];685.3966705002822;None;"['7', '7']";"[0.49575480027124286, 0.8717610002495348]";685.3966705002822;None;1.365682499948889;;;S11376;2022_Apr_13_1931;VideoMask;2021.1.2;120.17988516681162;
9.0;f;019_m_f_h_a.jpg;happy;9.0;happy_10.1ns.avi;happy;9.0;congruent;120.0;150.0;157.2463435658512;h_h;;;;;0;47;47;47;;;;;;;688.3965900000185;None;689.9549026000313;690.2714877999388;691.4298364999704;691.4466151003726;698.8546211002395;None;9;0;698.8546211002395;None;;;;;;;;7;;;;;;700.3962219003588;None;None;None;[];700.3962219003588;None;"['9', '9']";"[0.6164173996075988, 1.1043724999763072]";700.3962219003588;None;1.3178730998188257;;;S11376;2022_Apr_13_1931;VideoMask;2021.1.2;120.17988516681162;
2.0;f;012_o_f_h_a.jpg;happy;9.0;happy_2.2ns.avi;happy;9.0;congruent;120.0;150.0;206.34800317295262;h_h;;;;;0;48;48;48;;;;;;;703.3962171003222;None;705.3793100002222;705.6960086999461;706.8380358000286;706.8543548001908;719.0291617000476;None;9;0;719.0291617000476;None;;;;;;;;7;;;;;;720.5955781000666;None;None;None;[];720.5955781000666;None;"['9', '9']";"[0.3692511999979615, 0.7288501001894474]";720.5955781000666;None;1.13521150033921;;;S11376;2022_Apr_13_1931;VideoMask;2021.1.2;120.17988516681162;
3.0;m;033_o_m_h_a.jpg;happy;9.0;happy_24.2ns.avi;happy;9.0;congruent;120.0;150.0;167.9423847659953;h_h;;;;;0;49;49;49;;;;;;;723.6038447003812;None;725.2287650001235;725.5453436002135;726.7120731002651;726.7287558000535;730.4037283002399;None;9;0;730.4037283002399;None;;;;;;;;8;;;;;;731.9534724000841;None;None;None;[];731.9534724000841;None;"['9', '9', '9', '9']";"[0.27481979969888926, 0.6188101000152528, 1.0829270998947322, 1.9068601001054049]";731.9534724000841;None;0.8726651002652943;;;S11376;2022_Apr_13_1931;VideoMask;2021.1.2;120.17988516681162;
1.0;f;021_o_f_s_a.jpg;sad;7.0;happy_61.2ns.avi;happy;9.0;incongruent;130.0;150.0;210.94664004826666;s_h;;;;;0;50;50;50;;;;;;;734.9534479002468;None;736.9450809000991;737.2616890002973;738.5030951001681;738.519818900153;742.9198521003127;None;9;0;742.9198521003127;None;;;;;;;;7;;;;;;744.4698339002207;None;None;None;[];744.4698339002207;None;"['9', '9']";"[0.2385442997328937, 0.6625692998059094]";744.4698339002207;None;0.852524499874562;;;S11376;2022_Apr_13_1931;VideoMask;2021.1.2;120.17988516681162;
4.0;m;004_o_m_s_a.jpg;sad;7.0;sad_2.4ns.avi;sad;7.0;congruent;130.0;160.0;153.02079367163634;s_s;;;;;0;51;51;51;;;;;;;747.4697414999828;None;748.9694117000327;749.2863112003542;750.4862877000123;750.5029433001764;758.3780594002455;None;7;0;758.3780594002455;None;;;;;;;;3;;;;;;759.9359905002639;None;None;None;[];759.9359905002639;None;"['7', '7']";"[0.5403467998839915, 0.8043634998612106]";759.9359905002639;None;1.0983510999940336;;;S11376;2022_Apr_13_1931;VideoMask;2021.1.2;120.17988516681162;
8.0;m;008_y_m_h_a.jpg;happy;9.0;happy_1.2ns.avi;happy;9.0;congruent;120.0;150.0;210.98946429383824;h_h;;;;;0;52;52;52;;;;;;;762.9359336001799;None;764.9775016000494;765.2941479999572;766.5189684000798;766.5356204002164;779.2186327003874;None;9;0;779.2186327003874;None;;;;;;;;7;;;;;;780.7686804002151;None;None;None;[];780.7686804002151;None;"['9', '9']";"[0.48401560029014945, 0.867682000156492]";780.7686804002151;None;0.8257630001753569;;;S11376;2022_Apr_13_1931;VideoMask;2021.1.2;120.17988516681162;
2.0;f;012_o_f_s_a.jpg;sad;7.0;happy_52.2ns.avi;happy;9.0;incongruent;130.0;150.0;172.57202848318138;s_h;;;;;0;53;53;53;;;;;;;783.7686406001449;None;785.4267470003106;785.7433581999503;786.8938550003804;786.9182585002854;790.4268553000875;None;9;0;790.4268553000875;None;;;;;;;;7;;;;;;791.9766723001376;None;None;None;[];791.9766723001376;None;"['9', '9', '9']";"[0.3397861998528242, 0.6356692998670042, 1.123524900060147]";791.9766723001376;None;0.7695840001106262;;;S11376;2022_Apr_13_1931;VideoMask;2021.1.2;120.17988516681162;
9.0;f;019_m_f_s_a.jpg;sad;7.0;happy_61.1ns.avi;happy;9.0;incongruent;130.0;150.0;181.3003220572762;s_h;;;;;0;54;54;54;;;;;;;794.9766196003184;None;796.7513912003487;797.0769220003858;798.2351844999939;798.259843100328;805.5929173002951;None;8;0;805.5929173002951;None;;;;;;;;5;;;;;;807.1761766001582;None;None;None;[];807.1761766001582;None;None;;807.1761766001582;None;0.7396160000935197;;;S11376;2022_Apr_13_1931;VideoMask;2021.1.2;120.17988516681162;
0.0;f;030_o_f_h_a.jpg;happy;9.0;sad_133.1.wmv;sad;7.0;incongruent;120.0;160.0;198.86251500867985;h_s;;;;;0;55;55;55;;;;;;;810.1925457003526;None;812.0842613000423;812.4009340000339;813.5343625000678;813.5509457001463;815.5343162002973;None;7;0;815.5343162002973;None;;;;;;;;2;;;;;;817.084192499984;None;None;None;[];817.084192499984;None;"['7', '7', '7']";"[0.6722111999988556, 0.9842332997359335, 1.4722072998993099]";817.084192499984;None;1.4620155999436975;;;S11376;2022_Apr_13_1931;VideoMask;2021.1.2;120.17988516681162;
0.0;f;040_y_f_h_a.jpg;happy;9.0;sad_128.2.wmv;sad;7.0;incongruent;120.0;160.0;206.10005857915363;h_s;;;;;0;56;56;56;;;;;;;820.0842494000681;None;822.0088808001019;822.3256972003728;823.4671440999955;823.4840399003588;825.4589172000997;None;None;0;825.4589172000997;None;;;;;;;;3;;;;;;827.0087069999427;None;None;None;[];827.0087069999427;None;"['7', '7']";"[0.09947160026058555, 0.9718508003279567]";827.0087069999427;None;;;;S11376;2022_Apr_13_1931;VideoMask;2021.1.2;120.17988516681162;
1.0;f;021_o_f_s_a.jpg;sad;7.0;sad_9.5ns.avi;sad;7.0;congruent;130.0;160.0;206.16642757875042;s_s;;;;;0;57;57;57;;;;;;;830.0089505999349;None;831.9752409001812;832.2919709002599;833.4503327002749;833.4670138000511;839.1501486003399;None;7;0;839.1501486003399;None;;;;;;;;1;;;;;;840.7001643003896;None;None;None;[];840.7001643003896;None;"['7', '7', '7', '7', '7', '7', '7']";"[0.28023000014945865, 0.5121527998708189, 0.7440863000229001, 1.1681673000566661, 1.4325672998093069, 1.9524093000218272, 2.4643115997314453]";840.7001643003896;None;0.4145064000040293;;;S11376;2022_Apr_13_1931;VideoMask;2021.1.2;120.17988516681162;
1.0;f;021_o_f_h_a.jpg;happy;9.0;happy_12.1ns.avi;happy;9.0;congruent;120.0;150.0;132.59080005900228;h_h;;;;;0;58;58;58;;;;;;;843.7001853003167;None;845.0832843999378;845.3999443999492;846.5671773999929;846.5916746002622;854.1497466000728;None;9;0;854.1497466000728;None;;;;;;;;8;;;;;;855.7079664003104;None;None;None;[];855.7079664003104;None;"['9', '9', '9', '9']";"[0.3443964999169111, 0.6242236997932196, 0.9283108999952674, 1.4163987999781966]";855.7079664003104;None;0.7746791997924447;;;S11376;2022_Apr_13_1931;VideoMask;2021.1.2;120.17988516681162;
3.0;m;013_y_m_s_a.jpg;sad;7.0;happy_56.2ns.avi;happy;9.0;incongruent;130.0;150.0;163.39234110935848;s_h;;;;;0;59;59;59;;;;;;;858.7079699002206;None;860.2993785999715;860.6160325002857;861.7742219003849;861.7911296002567;866.7826209999621;None;9;0;866.7826209999621;None;;;;;;;;7;;;;;;868.324214800261;None;None;None;[];868.324214800261;None;"['9', '9', '9']";"[0.34414259996265173, 0.7920432002283633, 1.4641990000382066]";868.324214800261;None;1.0137494998052716;;;S11376;2022_Apr_13_1931;VideoMask;2021.1.2;120.17988516681162;
;;;;;;;;;;;;;;;;;;;;;;;;;;;;;;;;;;;;;;;;;;;;;;;;;;;;;;;;;;;;;;;;871.3241930999793;None;;;;;;
