primePerson;primeGender;prime;primeEmotion;corrAnsPrime;target;targetEmotion;corrAnsTar;Cond;ID_Primer;ID_Target;JitterTime;Condition;example.thisRepN;example.thisTrialN;example.thisN;example.thisIndex;study.thisRepN;study.thisTrialN;study.thisN;study.thisIndex;MR_trigger_time;MR_trigger_number;text_intro.started;text_intro.stopped;text_probe.started;text_probe.stopped;polygon_ISI.started;polygon_ISI.stopped;polygon.started;polygon.stopped;primerImage.started;primerImage.stopped;response.started;response.stopped;key_resp.keys;key_resp.corr;key_resp.started;key_resp.stopped;slider_Text.started;slider_Text.stopped;slider_ex.response;slider_ex.rt;slider_ex.history;slider_ex.started;slider_ex.stopped;Rating;slider_resp_response.keys;slider_resp_response.started;slider_resp_response.stopped;key_resp.rt;text_start.started;text_start.stopped;text_slider.started;text_slider.stopped;slider_stud.response;slider_stud.rt;slider_stud.history;slider_stud.started;slider_stud.stopped;slider_resp_study.keys;slider_resp_study.started;slider_resp_study.stopped;slider_resp_study.rt;text_ende.started;text_ende.stopped;participant;date;expName;psychopyVersion;frameRate;
1111;m;1111_m_m_h_a.jpg;happy;9;example_30.4ns.avi;neutral;7;incongruent;120.0;170.0;189.5874364012288;;0;0;0;0;;;;;42.19000880001113;1;42.267510700039566;44.267623900203034;44.267623900203034;None;46.284151000203565;None;48.5088886001613;48.825785299995914;50.00070510013029;50.01742530008778;54.30062390002422;None;None;0;54.30062390002422;None;55.85042020003311;None;None;None;[];55.85042020003311;None;5;None;55.85042020003311;None;;;;;;;;;;;;;;;;;S10961;2021_Oct_06_1603;VideoMask;2021.1.2;119.97341391250514;
1113;f;1113_y_f_s_a.jpg;sad;7;example_30.3ns.avi;neutral;7;incongruent;130.0;170.0;229.02432995836998;;0;1;1;1;;;;;;;;;;;58.88381460006349;None;61.008618200197816;61.32560030021705;62.49212050018832;62.50936120003462;64.45881110010669;None;8;0;64.45881110010669;None;66.00859660003334;None;None;None;[];66.00859660003334;None;5;None;66.00859660003334;None;0.5362456000875682;;;;;;;;;;;;;;;;S10961;2021_Oct_06_1603;VideoMask;2021.1.2;119.97341391250514;
9.0;f;019_m_f_h_a.jpg;happy;9.0;sad_115.1.wmv;sad;7.0;incongruent;120.0;160.0;128.09063432376465;h_s;;;;;0;0;0;0;;;;;;;70.0418576002121;None;71.34164920006879;71.65839330013841;72.79152239998803;72.80822160001844;74.80900050001219;None;7;0;74.80900050001219;None;;;;;;;;5;;;;0.834125799825415;69.04186360002495;None;76.38332440005615;None;None;None;[];76.38332440005615;None;None;76.38332440005615;None;;;;S10961;2021_Oct_06_1603;VideoMask;2021.1.2;119.97341391250514;
3.0;m;033_o_m_s_a.jpg;sad;7.0;sad_94.2ns.avi;sad;7.0;congruent;130.0;160.0;182.29120173647655;s_s;;;;;0;1;1;1;;;;;;;79.39984970004298;None;81.13304970017634;81.44967190013267;82.64981530001387;82.66638840013184;85.27494300017133;None;7;0;85.27494300017133;None;;;;;;;;5;;;;1.1203598000574857;;;86.83295400021598;None;None;None;[];86.83295400021598;None;None;86.83295400021598;None;;;;S10961;2021_Oct_06_1603;VideoMask;2021.1.2;119.97341391250514;
8.0;m;008_y_m_h_a.jpg;happy;9.0;happy_26.1ns.avi;happy;9.0;congruent;120.0;150.0;155.9437854594882;h_h;;;;;0;2;2;2;;;;;;;89.85779320006259;None;91.34953110013157;91.66609040019102;92.84943150007166;92.8659663000144;94.79123640013859;None;9;0;94.79123640013859;None;;;;;;;;7;;;;0.4758488000370562;;;96.34931350010447;None;None;None;[];96.34931350010447;None;"['9', '9']";96.34931350010447;None;"[0.9098724001087248, 1.9175098999403417]";;;S10961;2021_Oct_06_1603;VideoMask;2021.1.2;119.97341391250514;
0.0;f;040_y_f_h_a.jpg;happy;9.0;sad_138.1.wmv;sad;7.0;incongruent;120.0;160.0;133.99071306426532;h_s;;;;;0;3;3;3;;;;;;;99.34932710020803;None;100.67404340021312;100.99070650013164;102.12403549998999;102.14081310015172;104.12457610014826;None;8;0;104.12457610014826;None;;;;;;;;5;;;;1.0228023999370635;;;105.67398830014281;None;None;None;[];105.67398830014281;None;None;105.67398830014281;None;;;;S10961;2021_Oct_06_1603;VideoMask;2021.1.2;119.97341391250514;
8.0;f;028_y_f_s_a.jpg;sad;7.0;sad_64.2ns.avi;sad;7.0;congruent;130.0;160.0;229.88540597086478;s_s;;;;;0;4;4;4;;;;;;;108.69049890013412;None;110.84866660018452;111.16536530014127;112.298846000107;112.31555930012837;123.31527480017394;None;8;0;123.31527480017394;None;;;;;;;;5;;;;0.9595595998689532;;;124.86501720012166;None;None;None;[];124.86501720012166;None;None;124.86501720012166;None;;;;S10961;2021_Oct_06_1603;VideoMask;2021.1.2;119.97341391250514;
7.0;m;027_o_m_s_a.jpg;sad;7.0;sad_10.4ns.avi;sad;7.0;congruent;130.0;160.0;185.20129417468752;s_s;;;;;0;5;5;5;;;;;;;127.89000580017455;None;129.6399407000281;129.95661980006844;131.08971040020697;131.10643740021624;134.2567091002129;None;None;0;134.2567091002129;None;;;;;;;;5;;;;;;;135.81479319999926;None;None;None;[];135.81479319999926;None;"['9', '7']";135.81479319999926;None;"[0.18833820009604096, 1.1962405999656767]";;;S10961;2021_Oct_06_1603;VideoMask;2021.1.2;119.97341391250514;
2.0;f;012_o_f_s_a.jpg;sad;7.0;sad_7.5ns.avi;sad;7.0;congruent;130.0;160.0;220.27842655424388;s_s;;;;;0;6;6;6;;;;;;;138.81475880020298;None;140.86446360009722;141.1810991000384;142.3395359001588;142.35610350011848;145.10639850003645;None;7;0;145.10639850003645;None;;;;;;;;5;;;;1.3125153000000864;;;146.6727718000766;None;None;None;[];146.6727718000766;None;None;146.6727718000766;None;;;;S10961;2021_Oct_06_1603;VideoMask;2021.1.2;119.97341391250514;
2.0;f;012_o_f_h_a.jpg;happy;9.0;happy_27.1ns.avi;happy;9.0;congruent;120.0;150.0;146.44967055810616;h_h;;;;;0;7;7;7;;;;;;;149.70604360010475;None;151.12251870008186;151.43918810016476;152.61425660015084;152.63133420003578;155.0641823001206;None;9;0;155.0641823001206;None;;;;;;;;6;;;;0.8750445002224296;;;156.78078979998827;None;None;None;[];156.78078979998827;None;['9'];156.78078979998827;None;[1.0463080001063645];;;S10961;2021_Oct_06_1603;VideoMask;2021.1.2;119.97341391250514;
8.0;f;028_y_f_h_a.jpg;happy;9.0;sad_119.1.wmv;sad;7.0;incongruent;120.0;160.0;148.71526953572538;h_s;;;;;0;8;8;8;;;;;;;159.78913560020737;None;161.2304698000662;161.5476670002099;162.68872780003585;162.71391540020704;164.74715710012242;None;7;0;164.74715710012242;None;;;;;;;;5;;;;0.9118435001000762;;;166.29711310006678;None;None;None;[];166.29711310006678;None;None;166.29711310006678;None;;;;S10961;2021_Oct_06_1603;VideoMask;2021.1.2;119.97341391250514;
6.0;m;016_y_m_s_a.jpg;sad;7.0;happy_60.4ns.avi;happy;9.0;incongruent;130.0;150.0;126.02367393611817;s_h;;;;;0;9;9;9;;;;;;;169.33037350000814;None;170.5968796000816;170.91366480011493;172.0884126999881;172.10512930015102;177.83852670015767;None;8;0;177.83852670015767;None;;;;;;;;5;;;;0.5962815000675619;;;179.3883933001198;None;None;None;[];179.3883933001198;None;None;179.3883933001198;None;;;;S10961;2021_Oct_06_1603;VideoMask;2021.1.2;119.97341391250514;
9.0;f;019_m_f_s_a.jpg;sad;7.0;sad_8.4ns.avi;sad;7.0;congruent;130.0;160.0;171.6633093155257;s_s;;;;;0;10;10;10;;;;;;;182.40479720011353;None;184.07148570008576;184.3881741000805;185.52225460018963;185.54684900003485;193.66365670016967;None;8;0;193.66365670016967;None;;;;;;;;5;;;;0.9159389000851661;;;195.65446510002948;None;None;None;[];195.65446510002948;None;None;195.65446510002948;None;;;;S10961;2021_Oct_06_1603;VideoMask;2021.1.2;119.97341391250514;
4.0;m;004_o_m_h_a.jpg;happy;9.0;happy_1.1ns.avi;happy;9.0;congruent;120.0;150.0;203.50057144619865;h_h;;;;;0;11;11;11;;;;;;;198.6795051000081;None;200.6375679001212;200.95432750019245;202.1043718000874;202.12106180004776;216.5706551000476;None;8;0;216.5706551000476;None;;;;;;;;5;;;;0.46420990000478923;;;218.120335200103;None;None;None;[];218.120335200103;None;None;218.120335200103;None;;;;S10961;2021_Oct_06_1603;VideoMask;2021.1.2;119.97341391250514;
7.0;m;027_o_m_h_a.jpg;happy;9.0;happy_20.1ns.avi;happy;9.0;congruent;120.0;150.0;152.91127178874285;h_h;;;;;0;12;12;12;;;;;;;221.15376700018533;None;222.6702492001932;222.98690650006756;224.128672900144;224.14539399999194;227.1370189001318;None;9;0;227.1370189001318;None;;;;;;;;7;;;;1.0817476001102477;;;228.68689700006507;None;None;None;[];228.68689700006507;None;"['9', '9']";228.68689700006507;None;"[1.020150899887085, 1.7161337998695672]";;;S10961;2021_Oct_06_1603;VideoMask;2021.1.2;119.97341391250514;
0.0;f;040_y_f_s_a.jpg;sad;7.0;sad_94.3ns.avi;sad;7.0;congruent;130.0;160.0;155.27414203894395;s_s;;;;;0;13;13;13;;;;;;;231.68680140003562;None;233.17871050001122;233.4951216999907;234.64499070006423;234.66170280007645;237.25329480017535;None;8;0;237.25329480017535;None;;;;;;;;5;;;;1.2855316000059247;;;238.80317250010557;None;None;None;[];238.80317250010557;None;None;238.80317250010557;None;;;;S10961;2021_Oct_06_1603;VideoMask;2021.1.2;119.97341391250514;
0.0;f;030_o_f_s_a.jpg;sad;7.0;sad_68.1ns.avi;sad;7.0;congruent;130.0;160.0;158.9411396037211;s_s;;;;;0;14;14;14;;;;;;;241.83633730001748;None;243.37813260010444;243.69479330000468;244.86132390005514;244.8779938002117;252.25290840002708;None;7;0;252.25290840002708;None;;;;;;;;4;;;;0.6299169999547303;;;253.8026956000831;None;None;None;[];253.8026956000831;None;['7'];253.8026956000831;None;[0.6723082999233156];;;S10961;2021_Oct_06_1603;VideoMask;2021.1.2;119.97341391250514;
0.0;f;030_o_f_h_a.jpg;happy;9.0;sad_127.1.wmv;sad;7.0;incongruent;120.0;160.0;180.59976631384873;h_s;;;;;0;15;15;15;;;;;;;256.8109622001648;None;258.5192352000158;258.83583890018053;259.960864600027;259.97755150008015;261.9692250001244;None;8;0;261.9692250001244;None;;;;;;;;5;;;;1.4498447999358177;;;263.51903190021403;None;None;None;[];263.51903190021403;None;None;263.51903190021403;None;;;;S10961;2021_Oct_06_1603;VideoMask;2021.1.2;119.97341391250514;
8.0;m;008_y_m_s_a.jpg;sad;7.0;happy_133.3.wmv;happy;9.0;incongruent;130.0;150.0;152.577966552593;s_h;;;;;0;16;16;16;;;;;;;266.53551060007885;None;268.02714840020053;268.34390390012413;269.46893620002083;269.4855706000235;271.47721080016345;None;9;0;271.47721080016345;None;;;;;;;;6;;;;1.1415152999106795;;;273.1104510000441;None;None;None;[];273.1104510000441;None;['9'];273.1104510000441;None;[0.4765359000302851];;;S10961;2021_Oct_06_1603;VideoMask;2021.1.2;119.97341391250514;
3.0;m;033_o_m_h_a.jpg;happy;9.0;sad_128.1.wmv;sad;7.0;incongruent;120.0;160.0;171.0492454518585;h_s;;;;;0;17;17;17;;;;;;;276.1188406001311;None;277.7518073001411;278.068559900159;279.2018353000749;279.2186126001179;281.20195650006644;None;7;0;281.20195650006644;None;;;;;;;;5;;;;0.7689471000339836;;;282.75179230002686;None;None;None;[];282.75179230002686;None;None;282.75179230002686;None;;;;S10961;2021_Oct_06_1603;VideoMask;2021.1.2;119.97341391250514;
1.0;f;021_o_f_h_a.jpg;happy;9.0;sad_116.1.wmv;sad;7.0;incongruent;120.0;160.0;184.06847610053055;h_s;;;;;0;18;18;18;;;;;;;285.7849625002127;None;287.5356049002148;287.8515798000153;288.98489240021445;289.0015521000605;290.9850184000097;None;7;0;290.9850184000097;None;;;;;;;;5;;;;0.5778271998278797;;;292.5265231002122;None;None;None;[];292.5265231002122;None;None;292.5265231002122;None;;;;S10961;2021_Oct_06_1603;VideoMask;2021.1.2;119.97341391250514;
4.0;m;004_o_m_s_a.jpg;sad;7.0;happy_28.1ns.avi;happy;9.0;incongruent;130.0;150.0;157.40741103039684;s_h;;;;;0;19;19;19;;;;;;;295.5514462001156;None;297.0597827001475;297.3763550000731;298.55115960002877;298.56805290002376;302.901224500034;None;9;0;302.901224500034;None;;;;;;;;8;;;;0.6936444998718798;;;304.4427993001882;None;None;None;[];304.4427993001882;None;"['9', '9', '9']";304.4427993001882;None;"[1.191791099961847, 1.5680860001593828, 2.2480735999997705]";;;S10961;2021_Oct_06_1603;VideoMask;2021.1.2;119.97341391250514;
8.0;f;028_y_f_s_a.jpg;sad;7.0;happy_122.3.wmv;happy;9.0;incongruent;130.0;150.0;171.8670540936116;s_h;;;;;0;20;20;20;;;;;;;307.44289640011266;None;309.09253730019554;309.4094316000119;310.5509489001706;310.56763610010967;312.5425587000791;None;8;0;312.5425587000791;None;;;;;;;;5;;;;0.940225400030613;;;314.0925058000721;None;None;None;[];314.0925058000721;None;None;314.0925058000721;None;;;;S10961;2021_Oct_06_1603;VideoMask;2021.1.2;119.97341391250514;
8.0;m;008_y_m_s_a.jpg;sad;7.0;sad_6.5ns.avi;sad;7.0;congruent;130.0;160.0;170.39333839271438;s_s;;;;;0;21;21;21;;;;;;;317.1174475001171;None;318.7507067001425;319.0673448999878;320.2509377000388;320.27554340008646;325.20061240019277;None;7;0;325.20061240019277;None;;;;;;;;5;;;;0.6579988000448793;;;326.7504241000861;None;None;None;[];326.7504241000861;None;None;326.7504241000861;None;;;;S10961;2021_Oct_06_1603;VideoMask;2021.1.2;119.97341391250514;
8.0;f;028_y_f_h_a.jpg;happy;9.0;happy_23.1ns.avi;happy;9.0;congruent;120.0;150.0;225.70986890587952;h_h;;;;;0;22;22;22;;;;;;;329.7753198000137;None;331.8586066002026;332.1752041000873;333.34174480009824;333.3584072000813;337.8834875000175;None;9;0;337.8834875000175;None;;;;;;;;7;;;;0.791191800031811;;;339.43335380009376;None;None;None;[];339.43335380009376;None;"['9', '9']";339.43335380009376;None;"[0.697605999885127, 1.041303499834612]";;;S10961;2021_Oct_06_1603;VideoMask;2021.1.2;119.97341391250514;
8.0;m;008_y_m_h_a.jpg;happy;9.0;sad_111.1.wmv;sad;7.0;incongruent;120.0;160.0;152.63076835312847;h_s;;;;;0;23;23;23;;;;;;;342.43330880021676;None;343.90821390016936;344.22487400006503;345.3581764001865;345.37483200011775;347.3582100002095;None;7;0;347.3582100002095;None;;;;;;;;5;;;;0.4443975000176579;;;348.8997182000894;None;None;None;[];348.8997182000894;None;None;348.8997182000894;None;;;;S10961;2021_Oct_06_1603;VideoMask;2021.1.2;119.97341391250514;
0.0;f;040_y_f_s_a.jpg;sad;7.0;sad_67.2ns.avi;sad;7.0;congruent;130.0;160.0;220.9892697323079;s_s;;;;;0;24;24;24;;;;;;;351.9246740001254;None;353.99116310011595;354.30789560009725;355.4412086000666;355.4578843000345;364.66594720003195;None;7;0;364.66594720003195;None;;;;;;;;5;;;;0.5609460000414401;;;366.2158891002182;None;None;None;[];366.2158891002182;None;None;366.2158891002182;None;;;;S10961;2021_Oct_06_1603;VideoMask;2021.1.2;119.97341391250514;
8.0;m;008_y_m_s_a.jpg;sad;7.0;happy_29.1ns.avi;happy;9.0;incongruent;130.0;150.0;120.0316142834122;s_h;;;;;0;25;25;25;;;;;;;369.24090520013124;None;370.44070710008964;370.75721220020205;371.93243900011294;371.9490165000316;374.58232060004957;None;9;0;374.58232060004957;None;;;;;;;;5;;;;0.4922866001725197;;;376.1322547001764;None;None;None;[];376.1322547001764;None;None;376.1322547001764;None;;;;S10961;2021_Oct_06_1603;VideoMask;2021.1.2;119.97341391250514;
6.0;m;016_y_m_s_a.jpg;sad;7.0;sad_8.3ns.avi;sad;7.0;congruent;130.0;160.0;152.85371098242734;s_s;;;;;0;26;26;26;;;;;;;379.1571227000095;None;380.65683980006725;380.973740800051;382.13177830004133;382.1485247001983;389.86499760020524;None;7;0;389.86499760020524;None;;;;;;;;5;;;;0.5376941000577062;;;391.41500550019555;None;None;None;[];391.41500550019555;None;None;391.41500550019555;None;;;;S10961;2021_Oct_06_1603;VideoMask;2021.1.2;119.97341391250514;
6.0;m;016_y_m_h_a.jpg;happy;9.0;sad_114.1.wmv;sad;7.0;incongruent;120.0;160.0;136.20550699298644;h_s;;;;;0;27;27;27;;;;;;;394.4400332001969;None;395.7898199001793;396.1065836001653;397.23159880004823;397.24823670019396;399.2403983999975;None;8;0;399.2403983999975;None;;;;;;;;5;;;;1.450191600015387;;;400.78978370013647;None;None;None;[];400.78978370013647;None;None;400.78978370013647;None;;;;S10961;2021_Oct_06_1603;VideoMask;2021.1.2;119.97341391250514;
7.0;m;027_o_m_s_a.jpg;sad;7.0;happy_117.3.wmv;happy;9.0;incongruent;130.0;150.0;215.61964028550614;s_h;;;;;0;28;28;28;;;;;;;403.80636730021797;None;405.8063483000733;406.1228514001705;407.24797180015594;407.2646018001251;409.2562120000366;None;8;0;409.2562120000366;None;;;;;;;;5;;;;0.970178100047633;;;410.8061553000007;None;None;None;[];410.8061553000007;None;None;410.8061553000007;None;;;;S10961;2021_Oct_06_1603;VideoMask;2021.1.2;119.97341391250514;
6.0;m;016_y_m_h_a.jpg;happy;9.0;happy_9.2ns.avi;happy;9.0;congruent;120.0;150.0;130.52042428082717;h_h;;;;;0;29;29;29;;;;;;;413.8394454000518;None;415.14770190021954;415.46415240014903;416.59791650017723;416.61454950016923;422.5224992001895;None;9;0;422.5224992001895;None;;;;;;;;5;;;;0.7121224000584334;;;424.064162600087;None;None;None;[];424.064162600087;None;None;424.064162600087;None;;;;S10961;2021_Oct_06_1603;VideoMask;2021.1.2;119.97341391250514;
0.0;f;040_y_f_s_a.jpg;sad;7.0;happy_127.3.wmv;happy;9.0;incongruent;130.0;150.0;131.7195455720239;s_h;;;;;0;30;30;30;;;;;;;427.097701900173;None;428.4053786001168;428.72216020012274;429.84725430002436;429.8639150999952;431.92232720018364;None;9;0;431.92232720018364;None;;;;;;;;5;;;;0.41603399999439716;;;433.47211880004033;None;None;None;[];433.47211880004033;None;None;433.47211880004033;None;;;;S10961;2021_Oct_06_1603;VideoMask;2021.1.2;119.97341391250514;
0.0;f;030_o_f_s_a.jpg;sad;7.0;happy_125.3.wmv;happy;9.0;incongruent;130.0;150.0;220.51454909128134;s_h;;;;;0;31;31;31;;;;;;;436.50526340003125;None;438.5553424002137;438.8718906000722;440.0058918001596;440.03064450016245;442.0134846000001;None;9;0;442.0134846000001;None;;;;;;;;5;;;;0.5092301999684423;;;443.86347990017384;None;None;None;[];443.86347990017384;None;None;443.86347990017384;None;;;;S10961;2021_Oct_06_1603;VideoMask;2021.1.2;119.97341391250514;
0.0;f;030_o_f_s_a.jpg;sad;7.0;sad_64.3ns.avi;sad;7.0;congruent;130.0;160.0;165.78667874766072;s_s;;;;;0;32;32;32;;;;;;;446.87997030001134;None;448.47988180001266;448.7965669000987;449.9631116001401;449.97980990004726;454.92984860017896;None;7;0;454.92984860017896;None;;;;;;;;4;;;;1.1366942001041025;;;456.51288430020213;None;None;None;[];456.51288430020213;None;['7'];456.51288430020213;None;[2.073812900111079];;;S10961;2021_Oct_06_1603;VideoMask;2021.1.2;119.97341391250514;
3.0;m;013_y_m_s_a.jpg;sad;7.0;sad_7.7ns.avi;sad;7.0;congruent;130.0;160.0;196.24182255763262;s_s;;;;;0;33;33;33;;;;;;;459.51319490000606;None;461.36277230014093;461.6795113000553;462.8293064001482;462.8460380001925;468.812633600086;None;None;0;468.812633600086;None;;;;;;;;4;;;;;;;470.36267960001715;None;None;None;[];470.36267960001715;None;"['7', '7']";470.36267960001715;None;"[0.1279225000180304, 1.7119337001349777]";;;S10961;2021_Oct_06_1603;VideoMask;2021.1.2;119.97341391250514;
3.0;m;013_y_m_h_a.jpg;happy;9.0;happy_9.1ns.avi;happy;9.0;congruent;120.0;150.0;165.1890303600433;h_h;;;;;0;34;34;34;;;;;;;473.37151770014316;None;474.9540207001846;475.2708480001893;476.40404530009255;476.4207685000729;479.64582890016027;None;9;0;479.64582890016027;None;;;;;;;;7;;;;0.5165631000418216;;;481.20381490001455;None;None;None;[];481.20381490001455;None;"['9', '9']";481.20381490001455;None;"[0.7988513000309467, 1.9188703000545502]";;;S10961;2021_Oct_06_1603;VideoMask;2021.1.2;119.97341391250514;
4.0;m;004_o_m_h_a.jpg;happy;9.0;sad_95.1ns.avi;sad;7.0;incongruent;120.0;160.0;152.68270002069931;h_s;;;;;0;35;35;35;;;;;;;484.20397270005196;None;485.72035250021145;486.0371226000134;487.23785970010795;487.25397710013203;495.96185460011475;None;7;0;495.96185460011475;None;;;;;;;;2;;;;0.552604699973017;;;497.5117814000696;None;None;None;[];497.5117814000696;None;"['7', '7', '7', '7']";497.5117814000696;None;"[0.46693119988776743, 0.7790091999340802, 1.0746960998512805, 1.5548616000451148]";;;S10961;2021_Oct_06_1603;VideoMask;2021.1.2;119.97341391250514;
3.0;m;013_y_m_h_a.jpg;happy;9.0;sad_113.2.wmv;sad;7.0;incongruent;120.0;160.0;217.4973891947951;h_s;;;;;0;36;36;36;;;;;;;500.51193730020896;None;502.5531189001631;502.8704302001279;503.99498519999906;504.01155570009723;506.0031999000348;None;8;0;506.0031999000348;None;;;;;;;;5;;;;0.7513669000472873;;;507.644844800001;None;None;None;[];507.644844800001;None;None;507.644844800001;None;;;;S10961;2021_Oct_06_1603;VideoMask;2021.1.2;119.97341391250514;
4.0;m;004_o_m_h_a.jpg;happy;9.0;happy_25.1ns.avi;happy;9.0;congruent;120.0;150.0;216.63044503818386;h_h;;;;;0;37;37;37;;;;;;;510.6697271000594;None;512.6778647000901;512.9945521000773;514.1195988000836;514.1362452001777;517.8198156000581;None;9;0;517.8198156000581;None;;;;;;;;7;;;;0.7586173000745475;;;519.3860334001947;None;None;None;[];519.3860334001947;None;"['9', '9']";519.3860334001947;None;"[0.512511300155893, 0.8646073001436889]";;;S10961;2021_Oct_06_1603;VideoMask;2021.1.2;119.97341391250514;
4.0;m;004_o_m_s_a.jpg;sad;7.0;happy_131.2.wmv;happy;9.0;incongruent;130.0;150.0;181.38407540847405;s_h;;;;;0;38;38;38;;;;;;;522.3861933001317;None;524.1115141001064;524.4280062001199;525.577517000027;525.5940211000852;527.5609104000032;None;9;0;527.5609104000032;None;;;;;;;;7;;;;0.6253592998255044;;;529.110773100052;None;None;None;[];529.110773100052;None;"['9', '9']";529.110773100052;None;"[0.739780800184235, 1.8917984999716282]";;;S10961;2021_Oct_06_1603;VideoMask;2021.1.2;119.97341391250514;
0.0;f;040_y_f_h_a.jpg;happy;9.0;happy_24.3ns.avi;happy;9.0;congruent;120.0;150.0;213.25460698950434;h_h;;;;;0;39;39;39;;;;;;;532.1107541001402;None;534.0687873000279;534.3856420000084;535.5523061000276;535.5689244000241;537.4437814000994;None;9;0;537.4437814000994;None;;;;;;;;7;;;;0.6307298000901937;;;538.9854710001964;None;None;None;[];538.9854710001964;None;"['9', '9']";538.9854710001964;None;"[0.5370990999508649, 1.1450306000187993]";;;S10961;2021_Oct_06_1603;VideoMask;2021.1.2;119.97341391250514;
2.0;f;012_o_f_s_a.jpg;sad;7.0;happy_139.1.wmv;happy;9.0;incongruent;130.0;150.0;162.31500468041804;s_h;;;;;0;40;40;40;;;;;;;541.9854462000076;None;543.5435783001594;543.8603525999933;545.0018598001916;545.0186332000885;547.0021031000651;None;9;0;547.0021031000651;None;;;;;;;;7;;;;0.4163184999488294;;;548.593504599994;None;None;None;[];548.593504599994;None;"['9', '9']";548.593504599994;None;"[0.8571687999647111, 1.5049749000463635]";;;S10961;2021_Oct_06_1603;VideoMask;2021.1.2;119.97341391250514;
0.0;f;030_o_f_h_a.jpg;happy;9.0;happy_24.1ns.avi;happy;9.0;congruent;120.0;150.0;168.36256624020774;h_h;;;;;0;41;41;41;;;;;;;551.6018734001555;None;553.2099636001512;553.5265879000071;554.7349630000535;554.7522623001132;557.9938411000185;None;9;0;557.9938411000185;None;;;;;;;;6;;;;0.47270360006950796;;;559.6098090000451;None;None;None;[];559.6098090000451;None;"['9', '9', '9']";559.6098090000451;None;"[0.27255759993568063, 0.5605574999935925, 1.560837399912998]";;;S10961;2021_Oct_06_1603;VideoMask;2021.1.2;119.97341391250514;
2.0;f;012_o_f_h_a.jpg;happy;9.0;sad_113.1.wmv;sad;7.0;incongruent;120.0;160.0;177.44551734737394;h_s;;;;;0;42;42;42;;;;;;;562.6098284001928;None;564.2929330000188;564.6095953001641;565.7761643000413;565.7932867000345;567.7430084000807;None;7;0;567.7430084000807;None;;;;;;;;5;;;;0.4032016999553889;;;569.2928206000943;None;None;None;[];569.2928206000943;None;None;569.2928206000943;None;;;;S10961;2021_Oct_06_1603;VideoMask;2021.1.2;119.97341391250514;
3.0;m;033_o_m_s_a.jpg;sad;7.0;sad_64.5ns.avi;sad;7.0;congruent;130.0;160.0;130.55717223801247;s_s;;;;;0;43;43;43;;;;;;;572.3095563000534;None;573.6009399001487;573.9178745001554;575.0844666000921;575.1010060000699;581.6340105000418;None;7;0;581.6340105000418;None;;;;;;;;3;;;;0.59221709985286;;;583.1839925001841;None;None;None;[];583.1839925001841;None;"['7', '7']";583.1839925001841;None;"[0.2665368001908064, 0.5384870001580566]";;;S10961;2021_Oct_06_1603;VideoMask;2021.1.2;119.97341391250514;
7.0;m;027_o_m_h_a.jpg;happy;9.0;sad_117.1.wmv;sad;7.0;incongruent;120.0;160.0;181.28665202824095;h_s;;;;;0;44;44;44;;;;;;;586.1840026001446;None;587.908839300042;588.2256020000204;589.3587977001444;589.3755751000717;591.3590461001731;None;7;0;591.3590461001731;None;;;;;;;;5;;;;0.723329900065437;;;592.9086873000488;None;None;None;[];592.9086873000488;None;None;592.9086873000488;None;;;;S10961;2021_Oct_06_1603;VideoMask;2021.1.2;119.97341391250514;
3.0;m;033_o_m_s_a.jpg;sad;7.0;happy_126.3.wmv;happy;9.0;incongruent;130.0;150.0;198.85252030535366;s_h;;;;;0;45;45;45;;;;;;;595.933665300021;None;597.7918701001909;598.1084745000117;599.2416836000048;599.2584395001177;601.2418943000957;None;8;0;601.2418943000957;None;;;;;;;;5;;;;0.6884848999325186;;;602.7918496001512;None;None;None;[];602.7918496001512;None;None;602.7918496001512;None;;;;S10961;2021_Oct_06_1603;VideoMask;2021.1.2;119.97341391250514;
3.0;m;033_o_m_h_a.jpg;happy;9.0;sad_136.1.wmv;sad;7.0;incongruent;120.0;160.0;176.97002883463455;h_s;;;;;0;46;46;46;;;;;;;605.8165758000687;None;607.4915703001898;607.8082503001206;608.9333252001088;608.9498927001841;610.949881600216;None;7;0;610.949881600216;None;;;;;;;;4;;;;0.5485098001081496;;;612.4998181001283;None;None;None;[];612.4998181001283;None;['7'];612.4998181001283;None;[0.822601499967277];;;S10961;2021_Oct_06_1603;VideoMask;2021.1.2;119.97341391250514;
9.0;f;019_m_f_h_a.jpg;happy;9.0;happy_10.1ns.avi;happy;9.0;congruent;120.0;150.0;157.2463435658512;h_h;;;;;0;47;47;47;;;;;;;615.5082717000041;None;617.0330772001762;617.3495685001835;618.4997137000319;618.5163035001606;625.9245005000848;None;9;0;625.9245005000848;None;;;;;;;;5;;;;0.5738369999453425;;;627.4743489001412;None;None;None;[];627.4743489001412;None;None;627.4743489001412;None;;;;S10961;2021_Oct_06_1603;VideoMask;2021.1.2;119.97341391250514;
2.0;f;012_o_f_h_a.jpg;happy;9.0;happy_2.2ns.avi;happy;9.0;congruent;120.0;150.0;206.34800317295262;h_h;;;;;0;48;48;48;;;;;;;630.4993051001802;None;632.4826685001608;632.799183400115;633.9741430000868;633.9910821001977;646.132498800056;None;9;0;646.132498800056;None;;;;;;;;6;;;;0.5340953001286834;;;647.6903967000544;None;None;None;[];647.6903967000544;None;['9'];647.6903967000544;None;[1.0960529001895338];;;S10961;2021_Oct_06_1603;VideoMask;2021.1.2;119.97341391250514;
3.0;m;033_o_m_h_a.jpg;happy;9.0;happy_24.2ns.avi;happy;9.0;congruent;120.0;150.0;167.9423847659953;h_h;;;;;0;49;49;49;;;;;;;650.6904951001052;None;652.2989409000147;652.6150753002148;653.815806500148;653.8318632000592;657.4734620000236;None;9;0;657.4734620000236;None;;;;;;;;6;;;;0.6089728998485953;;;659.0233893000986;None;None;None;[];659.0233893000986;None;['9'];659.0233893000986;None;[0.4828645000234246];;;S10961;2021_Oct_06_1603;VideoMask;2021.1.2;119.97341391250514;
1.0;f;021_o_f_s_a.jpg;sad;7.0;happy_61.2ns.avi;happy;9.0;incongruent;130.0;150.0;210.94664004826666;s_h;;;;;0;50;50;50;;;;;;;662.031792800175;None;663.9814228001051;664.2981434999965;665.4315326001961;665.4482182001229;669.9564702000935;None;9;0;669.9564702000935;None;;;;;;;;5;;;;0.5417561000213027;;;671.5062639000826;None;None;None;[];671.5062639000826;None;None;671.5062639000826;None;;;;S10961;2021_Oct_06_1603;VideoMask;2021.1.2;119.97341391250514;
4.0;m;004_o_m_s_a.jpg;sad;7.0;sad_2.4ns.avi;sad;7.0;congruent;130.0;160.0;153.02079367163634;s_s;;;;;0;51;51;51;;;;;;;674.5396217000671;None;676.0310025000945;676.3477625001688;677.4810911000241;677.4977265000343;685.4395992001519;None;None;0;685.4395992001519;None;;;;;;;;5;;;;;;;687.1058418001048;None;None;None;[];687.1058418001048;None;"['7', '9']";687.1058418001048;None;"[15.536000899970531, 1.264327900018543]";;;S10961;2021_Oct_06_1603;VideoMask;2021.1.2;119.97341391250514;
8.0;m;008_y_m_h_a.jpg;happy;9.0;happy_1.2ns.avi;happy;9.0;congruent;120.0;150.0;210.98946429383824;h_h;;;;;0;52;52;52;;;;;;;690.0892537001055;None;692.0973555000965;692.4139865001198;693.5639392000157;693.5806252001785;706.338694400154;None;9;0;706.338694400154;None;;;;;;;;6;;;;0.5194570999592543;;;707.8885418002028;None;None;None;[];707.8885418002028;None;['9'];707.8885418002028;None;[2.0497249998152256];;;S10961;2021_Oct_06_1603;VideoMask;2021.1.2;119.97341391250514;
2.0;f;012_o_f_s_a.jpg;sad;7.0;happy_52.2ns.avi;happy;9.0;incongruent;130.0;150.0;172.57202848318138;s_h;;;;;0;53;53;53;;;;;;;710.8968764999881;None;712.521511200117;712.8382292999886;713.9883551001549;714.0049229001161;717.5215607001446;None;9;0;717.5215607001446;None;;;;;;;;5;;;;0.8325177999213338;;;719.07153390022;None;None;None;[];719.07153390022;None;None;719.07153390022;None;;;;S10961;2021_Oct_06_1603;VideoMask;2021.1.2;119.97341391250514;
9.0;f;019_m_f_s_a.jpg;sad;7.0;happy_61.1ns.avi;happy;9.0;incongruent;130.0;150.0;181.3003220572762;s_h;;;;;0;54;54;54;;;;;;;722.104672400048;None;723.8462779000401;724.162924000062;725.3719386002049;725.4044910001103;732.6879284000024;None;9;0;732.6879284000024;None;;;;;;;;5;;;;0.602267500013113;;;734.2376999000553;None;None;None;[];734.2376999000553;None;None;734.2376999000553;None;;;;S10961;2021_Oct_06_1603;VideoMask;2021.1.2;119.97341391250514;
0.0;f;030_o_f_h_a.jpg;happy;9.0;sad_133.1.wmv;sad;7.0;incongruent;120.0;160.0;198.86251500867985;h_s;;;;;0;55;55;55;;;;;;;737.270957000088;None;739.145889500156;739.4623796001542;740.5964155001566;740.6127360002138;742.5958381001838;None;7;0;742.5958381001838;None;;;;;;;;4;;;;0.686382899992168;;;744.1456293000374;None;None;None;[];744.1456293000374;None;['7'];744.1456293000374;None;[1.0565773001872003];;;S10961;2021_Oct_06_1603;VideoMask;2021.1.2;119.97341391250514;
0.0;f;040_y_f_h_a.jpg;happy;9.0;sad_128.2.wmv;sad;7.0;incongruent;120.0;160.0;206.10005857915363;h_s;;;;;0;56;56;56;;;;;;;747.145794800017;None;749.0787457001861;749.3954894000199;750.5287687000819;750.545552900061;752.5288162000943;None;7;0;752.5288162000943;None;;;;;;;;4;;;;0.6493762999307364;;;754.0871628001332;None;None;None;[];754.0871628001332;None;"['7', '7']";754.0871628001332;None;"[0.6030566000845283, 1.0833592000417411]";;;S10961;2021_Oct_06_1603;VideoMask;2021.1.2;119.97341391250514;
1.0;f;021_o_f_s_a.jpg;sad;7.0;sad_9.5ns.avi;sad;7.0;congruent;130.0;160.0;206.16642757875042;s_s;;;;;0;57;57;57;;;;;;;757.0788102000952;None;759.0034647001885;759.3201873002108;760.5373023001011;760.5625733002089;766.1784634999931;None;7;0;766.1784634999931;None;;;;;;;;5;;;;1.0476867998950183;;;767.7282858002;None;None;None;[];767.7282858002;None;None;767.7282858002;None;;;;S10961;2021_Oct_06_1603;VideoMask;2021.1.2;119.97341391250514;
1.0;f;021_o_f_h_a.jpg;happy;9.0;happy_12.1ns.avi;happy;9.0;congruent;120.0;150.0;132.59080005900228;h_h;;;;;0;58;58;58;;;;;;;770.744713100139;None;772.0698613000568;772.3865314000286;773.5364894000813;773.5531042001676;781.1363153001294;None;9;0;781.1363153001294;None;;;;;;;;6;;;;0.6658234999049455;;;782.694565200014;None;None;None;[];782.694565200014;None;['9'];782.694565200014;None;[1.3237716001458466];;;S10961;2021_Oct_06_1603;VideoMask;2021.1.2;119.97341391250514;
3.0;m;013_y_m_s_a.jpg;sad;7.0;happy_56.2ns.avi;happy;9.0;incongruent;130.0;150.0;163.39234110935848;s_h;;;;;0;59;59;59;;;;;;;785.6944157001562;None;787.2608444001526;787.5776120000519;788.710787500022;788.7276353000198;793.7359019001015;None;9;0;793.7359019001015;None;;;;;;;;5;;;;0.5461035999469459;;;795.2857626001351;None;None;None;[];795.2857626001351;None;None;795.2857626001351;None;;;;S10961;2021_Oct_06_1603;VideoMask;2021.1.2;119.97341391250514;
;;;;;;;;;;;;;;;;;;;;;;;;;;;;;;;;;;;;;;;;;;;;;;;;;;;;;;;;;;;;;;;;798.3107163000386;None;;;;;;
