primePerson;primeGender;prime;primeEmotion;corrAnsPrime;target;targetEmotion;corrAnsTar;Cond;ID_Primer;ID_Target;JitterTime;Condition;example.thisRepN;example.thisTrialN;example.thisN;example.thisIndex;study.thisRepN;study.thisTrialN;study.thisN;study.thisIndex;MR_trigger_time;MR_trigger_number;text_intro.started;text_intro.stopped;text_probe.started;text_probe.stopped;polygon_ISI.started;polygon_ISI.stopped;polygon.started;polygon.stopped;primerImage.started;primerImage.stopped;response.started;response.stopped;key_resp.keys;key_resp.corr;key_resp.rt;key_resp.started;key_resp.stopped;slider_Text.started;slider_Text.stopped;slider_ex.response;slider_ex.rt;slider_ex.history;slider_ex.started;slider_ex.stopped;Rating;slider_resp_response.keys;slider_resp_response.started;slider_resp_response.stopped;text_start.started;text_start.stopped;text_slider.started;text_slider.stopped;slider_stud.response;slider_stud.rt;slider_stud.history;slider_stud.started;slider_stud.stopped;slider_resp_study.keys;slider_resp_study.rt;slider_resp_study.started;slider_resp_study.stopped;text_ende.started;text_ende.stopped;participant;date;expName;psychopyVersion;frameRate;
1111;m;1111_m_m_h_a.jpg;happy;9;example_30.4ns.avi;neutral;7;incongruent;120.0;170.0;189.5874364012288;;0;0;0;0;;;;;23.28040129999863;1;23.37529500000528;25.425468800007366;25.425468800007366;None;27.417629700008547;None;29.750315800018143;30.0751569000131;31.2501423000067;31.266766800021287;35.55854970001383;None;9;0;1.5850956999929622;35.55854970001383;None;37.51728450000519;None;None;None;[];37.51728450000519;None;5;None;37.51728450000519;None;;;;;;;;;;;;;;;;S12029;2023_Feb_17_1452;VideoMask;2021.1.2;120.79439222909078;
1113;f;1113_y_f_s_a.jpg;sad;7;example_30.3ns.avi;neutral;7;incongruent;130.0;170.0;229.02432995836998;;0;1;1;1;;;;;;;;;;;40.533048400015105;None;42.6580673000135;42.97469400000409;44.20855850001681;44.22456240002066;46.10823840001831;None;8;0;0.7399849999928847;46.10823840001831;None;47.84132680000039;None;None;None;[];47.84132680000039;None;5;None;47.84132680000039;None;;;;;;;;;;;;;;;;S12029;2023_Feb_17_1452;VideoMask;2021.1.2;120.79439222909078;
9.0;f;019_m_f_h_a.jpg;happy;9.0;sad_115.1.wmv;sad;7.0;incongruent;120.0;160.0;128.09063432376465;h_s;;;;;0;0;0;0;;;;;;;51.924555500008864;None;53.21599399999832;53.532737200002884;54.69100980000803;54.70770700002322;56.6744659000251;None;None;0;;56.6744659000251;None;;;;;;;;4;;;;50.85761150001781;None;58.28270420001354;None;None;None;[];58.28270420001354;None;['7'];[1.5571657000109553];58.28270420001354;None;;;S12029;2023_Feb_17_1452;VideoMask;2021.1.2;120.79439222909078;
3.0;m;033_o_m_s_a.jpg;sad;7.0;sad_94.2ns.avi;sad;7.0;congruent;130.0;160.0;182.29120173647655;s_s;;;;;0;1;1;1;;;;;;;61.29083630000241;None;63.0323721000168;63.34916330000851;64.51588960000663;64.53240640001604;67.1739738000033;None;None;0;;67.1739738000033;None;;;;;;;;5;;;;;;68.79904850001913;None;None;None;[];68.79904850001913;None;None;;68.79904850001913;None;;;S12029;2023_Feb_17_1452;VideoMask;2021.1.2;120.79439222909078;
8.0;m;008_y_m_h_a.jpg;happy;9.0;happy_26.1ns.avi;happy;9.0;congruent;120.0;150.0;155.9437854594882;h_h;;;;;0;2;2;2;;;;;;;71.83220840001013;None;73.34868070000084;73.66540160001023;74.85716450001928;74.87382550002076;76.79038260001107;None;9;0;0.5931351000035647;76.79038260001107;None;;;;;;;;5;;;;;;78.64035440000589;None;None;None;[];78.64035440000589;None;None;;78.64035440000589;None;;;S12029;2023_Feb_17_1452;VideoMask;2021.1.2;120.79439222909078;
0.0;f;040_y_f_h_a.jpg;happy;9.0;sad_138.1.wmv;sad;7.0;incongruent;120.0;160.0;133.99071306426532;h_s;;;;;0;3;3;3;;;;;;;81.67358450000756;None;83.02336459999788;83.33998700001393;84.46518640001887;84.48169430001872;86.47346080001444;None;7;0;0.6621435999986716;86.47346080001444;None;;;;;;;;4;;;;;;88.02339640000719;None;None;None;[];88.02339640000719;None;['7'];[0.5044160000106785];88.02339640000719;None;;;S12029;2023_Feb_17_1452;VideoMask;2021.1.2;120.79439222909078;
8.0;f;028_y_f_s_a.jpg;sad;7.0;sad_64.2ns.avi;sad;7.0;congruent;130.0;160.0;229.88540597086478;s_s;;;;;0;4;4;4;;;;;;;91.02323890000116;None;93.23155530000804;93.54806140001165;94.69815400001244;94.71482610001112;105.6811193000176;None;7;0;0.7985380000027362;105.6811193000176;None;;;;;;;;5;;;;;;107.23092920001363;None;None;None;[];107.23092920001363;None;None;;107.23092920001363;None;;;S12029;2023_Feb_17_1452;VideoMask;2021.1.2;120.79439222909078;
7.0;m;027_o_m_s_a.jpg;sad;7.0;sad_10.4ns.avi;sad;7.0;congruent;130.0;160.0;185.20129417468752;s_s;;;;;0;5;5;5;;;;;;;110.26433340000222;None;112.02245030002086;112.33914850000292;113.47261730002356;113.48984330001986;116.63920930001768;None;7;0;1.2243920000037178;116.63920930001768;None;;;;;;;;4;;;;;;118.18069510001806;None;None;None;[];118.18069510001806;None;['7'];[0.8910882000054698];118.18069510001806;None;;;S12029;2023_Feb_17_1452;VideoMask;2021.1.2;120.79439222909078;
2.0;f;012_o_f_s_a.jpg;sad;7.0;sad_7.5ns.avi;sad;7.0;congruent;130.0;160.0;220.27842655424388;s_s;;;;;0;6;6;6;;;;;;;121.18134910002118;None;123.21375600001193;123.53056320000906;124.70552170000155;124.72198370000115;127.45585420000134;None;7;0;0.7195232000085525;127.45585420000134;None;;;;;;;;3;;;;;;129.08035090001067;None;None;None;[];129.08035090001067;None;"['7', '7']";"[0.3992539999890141, 0.8153628000000026]";129.08035090001067;None;;;S12029;2023_Feb_17_1452;VideoMask;2021.1.2;120.79439222909078;
2.0;f;012_o_f_h_a.jpg;happy;9.0;happy_27.1ns.avi;happy;9.0;congruent;120.0;150.0;146.44967055810616;h_h;;;;;0;7;7;7;;;;;;;132.08855730001233;None;133.5052128000243;133.8218061000225;134.99673760001315;135.01348580000922;137.44675430000643;None;9;0;0.44890180000220425;137.44675430000643;None;;;;;;;;5;;;;;;138.9967125999974;None;None;None;[];138.9967125999974;None;None;;138.9967125999974;None;;;S12029;2023_Feb_17_1452;VideoMask;2021.1.2;120.79439222909078;
8.0;f;028_y_f_h_a.jpg;happy;9.0;sad_119.1.wmv;sad;7.0;incongruent;120.0;160.0;148.71526953572538;h_s;;;;;0;8;8;8;;;;;;;142.0130802000058;None;143.46305910000228;143.7798190000176;144.91361400001915;144.93820100001176;146.98827339999843;None;7;0;1.035319000016898;146.98827339999843;None;;;;;;;;5;;;;;;148.54642060000333;None;None;None;[];148.54642060000333;None;None;;148.54642060000333;None;;;S12029;2023_Feb_17_1452;VideoMask;2021.1.2;120.79439222909078;
6.0;m;016_y_m_s_a.jpg;sad;7.0;happy_60.4ns.avi;happy;9.0;incongruent;130.0;150.0;126.02367393611817;s_h;;;;;0;9;9;9;;;;;;;151.57968600001186;None;152.87950900002033;153.19625989999622;154.346146099997;154.36280090000946;160.1300886000099;None;None;0;;160.1300886000099;None;;;;;;;;5;;;;;;161.73745660000714;None;None;None;[];161.73745660000714;None;None;;161.73745660000714;None;;;S12029;2023_Feb_17_1452;VideoMask;2021.1.2;120.79439222909078;
9.0;f;019_m_f_s_a.jpg;sad;7.0;sad_8.4ns.avi;sad;7.0;congruent;130.0;160.0;171.6633093155257;s_s;;;;;0;10;10;10;;;;;;;164.75418580000405;None;166.4291532000061;166.74563469999703;167.9040925000154;167.92077990001417;176.01218330001575;None;8;0;1.4273927999893203;176.01218330001575;None;;;;;;;;5;;;;;;177.5621867000009;None;None;None;[];177.5621867000009;None;None;;177.5621867000009;None;;;S12029;2023_Feb_17_1452;VideoMask;2021.1.2;120.79439222909078;
4.0;m;004_o_m_h_a.jpg;happy;9.0;happy_1.1ns.avi;happy;9.0;congruent;120.0;150.0;203.50057144619865;h_h;;;;;0;11;11;11;;;;;;;180.59538090002025;None;182.57008620002307;182.88695450001978;184.01197010002215;184.02857070000027;198.5033156000136;None;9;0;0.4804918000008911;198.5033156000136;None;;;;;;;;5;;;;;;200.05308610000066;None;None;None;[];200.05308610000066;None;None;;200.05308610000066;None;;;S12029;2023_Feb_17_1452;VideoMask;2021.1.2;120.79439222909078;
7.0;m;027_o_m_h_a.jpg;happy;9.0;happy_20.1ns.avi;happy;9.0;congruent;120.0;150.0;152.91127178874285;h_h;;;;;0;12;12;12;;;;;;;203.06942060001893;None;204.57777810000698;204.89445320001687;206.02791110001272;206.0445752000087;209.0444968000229;None;9;0;0.6111386999837123;209.0444968000229;None;;;;;;;;5;;;;;;210.5943932000082;None;None;None;[];210.5943932000082;None;None;;210.5943932000082;None;;;S12029;2023_Feb_17_1452;VideoMask;2021.1.2;120.79439222909078;
0.0;f;040_y_f_s_a.jpg;sad;7.0;sad_94.3ns.avi;sad;7.0;congruent;130.0;160.0;155.27414203894395;s_s;;;;;0;13;13;13;;;;;;;213.61915120002232;None;215.1190343000053;215.4358623000153;216.6273420000216;216.64426150001236;219.19416360001196;None;8;0;0.38960929997847416;219.19416360001196;None;;;;;;;;5;;;;;;220.7440175000229;None;None;None;[];220.7440175000229;None;None;;220.7440175000229;None;;;S12029;2023_Feb_17_1452;VideoMask;2021.1.2;120.79439222909078;
0.0;f;030_o_f_s_a.jpg;sad;7.0;sad_68.1ns.avi;sad;7.0;congruent;130.0;160.0;158.9411396037211;s_s;;;;;0;14;14;14;;;;;;;223.76047590002418;None;225.33562660001917;225.65212820001761;226.83561080001527;226.85215530000278;234.21038140001474;None;7;0;1.2370736000011675;234.21038140001474;None;;;;;;;;5;;;;;;235.76027660002;None;None;None;[];235.76027660002;None;None;;235.76027660002;None;;;S12029;2023_Feb_17_1452;VideoMask;2021.1.2;120.79439222909078;
0.0;f;030_o_f_h_a.jpg;happy;9.0;sad_127.1.wmv;sad;7.0;incongruent;120.0;160.0;180.59976631384873;h_s;;;;;0;15;15;15;;;;;;;238.79360790000646;None;240.5098810000054;240.82682899999782;241.95185090001905;241.9684094999975;243.96004289999837;None;8;0;0.8555567000003066;243.96004289999837;None;;;;;;;;5;;;;;;245.50989410001785;None;None;None;[];245.50989410001785;None;None;;245.50989410001785;None;;;S12029;2023_Feb_17_1452;VideoMask;2021.1.2;120.79439222909078;
8.0;m;008_y_m_s_a.jpg;sad;7.0;happy_133.3.wmv;happy;9.0;incongruent;130.0;150.0;152.577966552593;s_h;;;;;0;16;16;16;;;;;;;248.5347815999994;None;250.02634880002006;250.34306070001912;251.47633880001376;251.49303470001905;253.47648480001953;None;9;0;0.427289400016889;253.47648480001953;None;;;;;;;;5;;;;;;255.02631590000237;None;None;None;[];255.02631590000237;None;None;;255.02631590000237;None;;;S12029;2023_Feb_17_1452;VideoMask;2021.1.2;120.79439222909078;
3.0;m;033_o_m_h_a.jpg;happy;9.0;sad_128.1.wmv;sad;7.0;incongruent;120.0;160.0;171.0492454518585;h_s;;;;;0;17;17;17;;;;;;;258.04273470002227;None;259.70107830001507;260.01775600001565;261.1509031000023;261.1675872000051;263.15099380002357;None;7;0;0.7526367999962531;263.15099380002357;None;;;;;;;;5;;;;;;264.70098930000677;None;None;None;[];264.70098930000677;None;None;;264.70098930000677;None;;;S12029;2023_Feb_17_1452;VideoMask;2021.1.2;120.79439222909078;
1.0;f;021_o_f_h_a.jpg;happy;9.0;sad_116.1.wmv;sad;7.0;incongruent;120.0;160.0;184.06847610053055;h_s;;;;;0;18;18;18;;;;;;;267.7258161000209;None;269.47571920001064;269.7923587000114;270.9341572000121;270.95077590001165;272.9258943000168;None;7;0;0.6017308000009507;272.9258943000168;None;;;;;;;;5;;;;;;274.47569670001394;None;None;None;[];274.47569670001394;None;None;;274.47569670001394;None;;;S12029;2023_Feb_17_1452;VideoMask;2021.1.2;120.79439222909078;
4.0;m;004_o_m_s_a.jpg;sad;7.0;happy_28.1ns.avi;happy;9.0;incongruent;130.0;150.0;157.40741103039684;s_h;;;;;0;19;19;19;;;;;;;277.500514400017;None;279.0337350000045;279.35047490001307;280.58358450001106;280.6004696000018;284.8753728000156;None;9;0;0.4522440999862738;284.8753728000156;None;;;;;;;;6;;;;;;286.4169710999995;None;None;None;[];286.4169710999995;None;['9'];[0.43881260001217015];286.4169710999995;None;;;S12029;2023_Feb_17_1452;VideoMask;2021.1.2;120.79439222909078;
8.0;f;028_y_f_s_a.jpg;sad;7.0;happy_122.3.wmv;happy;9.0;incongruent;130.0;150.0;171.8670540936116;s_h;;;;;0;20;20;20;;;;;;;289.41706230002455;None;291.0666381000192;291.38342810000177;292.5168037000112;292.53348810001626;294.5167194000096;None;9;0;0.5628823000006378;294.5167194000096;None;;;;;;;;5;;;;;;296.0666663000011;None;None;None;[];296.0666663000011;None;None;;296.0666663000011;None;;;S12029;2023_Feb_17_1452;VideoMask;2021.1.2;120.79439222909078;
8.0;m;008_y_m_s_a.jpg;sad;7.0;sad_6.5ns.avi;sad;7.0;congruent;130.0;160.0;170.39333839271438;s_s;;;;;0;21;21;21;;;;;;;299.0915394000185;None;300.741482500016;301.0580778000003;302.25812700000824;302.275523600023;307.19133440000587;None;7;0;0.408144099987112;307.19133440000587;None;;;;;;;;5;;;;;;308.7412807000219;None;None;None;[];308.7412807000219;None;None;;308.7412807000219;None;;;S12029;2023_Feb_17_1452;VideoMask;2021.1.2;120.79439222909078;
8.0;f;028_y_f_h_a.jpg;happy;9.0;happy_23.1ns.avi;happy;9.0;congruent;120.0;150.0;225.70986890587952;h_h;;;;;0;22;22;22;;;;;;;311.7578105000139;None;313.84091270001954;314.157703600009;315.2908451000112;315.3075192999968;319.8659133000183;None;9;0;0.5017475000058766;319.8659133000183;None;;;;;;;;5;;;;;;321.44084490000387;None;None;None;[];321.44084490000387;None;None;;321.44084490000387;None;;;S12029;2023_Feb_17_1452;VideoMask;2021.1.2;120.79439222909078;
8.0;m;008_y_m_h_a.jpg;happy;9.0;sad_111.1.wmv;sad;7.0;incongruent;120.0;160.0;152.63076835312847;h_s;;;;;0;23;23;23;;;;;;;324.47415520000504;None;325.957279299997;326.27397219999693;327.40735670001595;327.4240234000026;329.4073532000184;None;7;0;0.4003437999926973;329.4073532000184;None;;;;;;;;5;;;;;;330.9571572999994;None;None;None;[];330.9571572999994;None;None;;330.9571572999994;None;;;S12029;2023_Feb_17_1452;VideoMask;2021.1.2;120.79439222909078;
0.0;f;040_y_f_s_a.jpg;sad;7.0;sad_67.2ns.avi;sad;7.0;congruent;130.0;160.0;220.9892697323079;s_s;;;;;0;24;24;24;;;;;;;333.9735692999966;None;336.06550340002286;336.38201240001945;337.5736793000251;337.59038700000383;346.7490797000064;None;7;0;0.71458800000255;346.7490797000064;None;;;;;;;;5;;;;;;348.3315585000091;None;None;None;[];348.3315585000091;None;None;;348.3315585000091;None;;;S12029;2023_Feb_17_1452;VideoMask;2021.1.2;120.79439222909078;
8.0;m;008_y_m_s_a.jpg;sad;7.0;happy_29.1ns.avi;happy;9.0;incongruent;130.0;150.0;120.0316142834122;s_h;;;;;0;25;25;25;;;;;;;351.3564876000164;None;352.58146820002;352.8982121000008;354.0648076000216;354.0815246000129;356.7230855000089;None;9;0;1.0285833000089042;356.7230855000089;None;;;;;;;;5;;;;;;358.3063565000193;None;None;None;[];358.3063565000193;None;None;;358.3063565000193;None;;;S12029;2023_Feb_17_1452;VideoMask;2021.1.2;120.79439222909078;
6.0;m;016_y_m_s_a.jpg;sad;7.0;sad_8.3ns.avi;sad;7.0;congruent;130.0;160.0;152.85371098242734;s_s;;;;;0;26;26;26;;;;;;;361.32275730001857;None;362.84787759999745;363.1644473000197;364.32288020002306;364.33944260000135;372.0560364999983;None;8;0;0.6397670999867842;372.0560364999983;None;;;;;;;;5;;;;;;373.6058833000134;None;None;None;[];373.6058833000134;None;None;;373.6058833000134;None;;;S12029;2023_Feb_17_1452;VideoMask;2021.1.2;120.79439222909078;
6.0;m;016_y_m_h_a.jpg;happy;9.0;sad_114.1.wmv;sad;7.0;incongruent;120.0;160.0;136.20550699298644;h_s;;;;;0;27;27;27;;;;;;;376.6223413000116;None;377.9805472000153;378.2972915999999;379.4307356000063;379.4479513000115;381.43056340000476;None;8;0;0.8411982999823522;381.43056340000476;None;;;;;;;;5;;;;;;382.9805290000222;None;None;None;[];382.9805290000222;None;None;;382.9805290000222;None;;;S12029;2023_Feb_17_1452;VideoMask;2021.1.2;120.79439222909078;
7.0;m;027_o_m_s_a.jpg;sad;7.0;happy_117.3.wmv;happy;9.0;incongruent;130.0;150.0;215.61964028550614;s_h;;;;;0;28;28;28;;;;;;;385.99697120001656;None;388.00528800001484;388.3219811000163;389.44709709999734;389.4637012000021;391.4552786000131;None;9;0;0.4564632000110578;391.4552786000131;None;;;;;;;;5;;;;;;392.99689050001325;None;None;None;[];392.99689050001325;None;None;;392.99689050001325;None;;;S12029;2023_Feb_17_1452;VideoMask;2021.1.2;120.79439222909078;
6.0;m;016_y_m_h_a.jpg;happy;9.0;happy_9.2ns.avi;happy;9.0;congruent;120.0;150.0;130.52042428082717;h_h;;;;;0;29;29;29;;;;;;;396.0218678000092;None;397.3551047000219;397.6717122000118;398.82999180001207;398.84672339999815;404.7298059000168;None;9;0;0.42988700000569224;404.7298059000168;None;;;;;;;;4;;;;;;407.01310150002246;None;None;None;[];407.01310150002246;None;['7'];[0.6906492999987677];407.01310150002246;None;;;S12029;2023_Feb_17_1452;VideoMask;2021.1.2;120.79439222909078;
0.0;f;040_y_f_s_a.jpg;sad;7.0;happy_127.3.wmv;happy;9.0;incongruent;130.0;150.0;131.7195455720239;s_h;;;;;0;30;30;30;;;;;;;410.0214275000035;None;411.3295180000132;411.6462728000188;412.7795926000108;412.79625330001;414.8462296000216;None;9;0;0.39340770000126213;414.8462296000216;None;;;;;;;;5;;;;;;416.39615100002266;None;None;None;[];416.39615100002266;None;None;;416.39615100002266;None;;;S12029;2023_Feb_17_1452;VideoMask;2021.1.2;120.79439222909078;
0.0;f;030_o_f_s_a.jpg;sad;7.0;happy_125.3.wmv;happy;9.0;incongruent;130.0;150.0;220.51454909128134;s_h;;;;;0;31;31;31;;;;;;;419.41257310000947;None;421.4708113000088;421.78769470000407;422.9289749000163;422.9459037000197;424.92083119999734;None;9;0;0.7988458999898285;424.92083119999734;None;;;;;;;;5;;;;;;426.4625178000133;None;None;None;[];426.4625178000133;None;None;;426.4625178000133;None;;;S12029;2023_Feb_17_1452;VideoMask;2021.1.2;120.79439222909078;
0.0;f;030_o_f_s_a.jpg;sad;7.0;sad_64.3ns.avi;sad;7.0;congruent;130.0;160.0;165.78667874766072;s_s;;;;;0;32;32;32;;;;;;;429.478937900014;None;431.0787540000165;431.3955299000081;432.56229750000057;432.57962160001625;437.52896450000117;None;8;0;1.0544699000020046;437.52896450000117;None;;;;;;;;5;;;;;;439.0787612000131;None;None;None;[];439.0787612000131;None;None;;439.0787612000131;None;;;S12029;2023_Feb_17_1452;VideoMask;2021.1.2;120.79439222909078;
3.0;m;013_y_m_s_a.jpg;sad;7.0;sad_7.7ns.avi;sad;7.0;congruent;130.0;160.0;196.24182255763262;s_s;;;;;0;33;33;33;;;;;;;442.0953199000214;None;443.9534510000085;444.2702808000031;445.43656020000344;445.4533832000161;451.4034392000176;None;8;0;0.6202624999859836;451.4034392000176;None;;;;;;;;5;;;;;;452.95330829999875;None;None;None;[];452.95330829999875;None;None;;452.95330829999875;None;;;S12029;2023_Feb_17_1452;VideoMask;2021.1.2;120.79439222909078;
3.0;m;013_y_m_h_a.jpg;happy;9.0;happy_9.1ns.avi;happy;9.0;congruent;120.0;150.0;165.1890303600433;h_h;;;;;0;34;34;34;;;;;;;455.9697078000172;None;457.58637279999675;457.90314589999616;459.0864808000042;459.1030640999961;462.26133100001607;None;9;0;0.506335299985949;462.26133100001607;None;;;;;;;;5;;;;;;463.8113164000097;None;None;None;[];463.8113164000097;None;None;;463.8113164000097;None;;;S12029;2023_Feb_17_1452;VideoMask;2021.1.2;120.79439222909078;
4.0;m;004_o_m_h_a.jpg;happy;9.0;sad_95.1ns.avi;sad;7.0;incongruent;120.0;160.0;152.68270002069931;h_s;;;;;0;35;35;35;;;;;;;466.8359916000045;None;468.3695192000014;468.6860818999994;469.87779830000363;469.89510240001255;478.61100850001094;None;7;0;0.5888016000099014;478.61100850001094;None;;;;;;;;7;;;;;;480.1691110000247;None;None;None;[];480.1691110000247;None;"['9', '9']";"[0.46264830001746304, 1.5505779000231996]";480.1691110000247;None;;;S12029;2023_Feb_17_1452;VideoMask;2021.1.2;120.79439222909078;
3.0;m;013_y_m_h_a.jpg;happy;9.0;sad_113.2.wmv;sad;7.0;incongruent;120.0;160.0;217.4973891947951;h_s;;;;;0;36;36;36;;;;;;;483.1773592000245;None;485.210461700015;485.53584950001095;486.6773294000013;486.6939276000194;488.66043190000346;None;None;0;;488.66043190000346;None;;;;;;;;5;;;;;;490.21047479999834;None;None;None;[];490.21047479999834;None;None;;490.21047479999834;None;;;S12029;2023_Feb_17_1452;VideoMask;2021.1.2;120.79439222909078;
4.0;m;004_o_m_h_a.jpg;happy;9.0;happy_25.1ns.avi;happy;9.0;congruent;120.0;150.0;216.63044503818386;h_h;;;;;0;37;37;37;;;;;;;493.24366730000474;None;495.2684363000153;495.58531590001076;496.751986200019;496.76858319999883;500.41017920000013;None;9;0;0.46147800001199357;500.41017920000013;None;;;;;;;;5;;;;;;501.9600643000158;None;None;None;[];501.9600643000158;None;None;;501.9600643000158;None;;;S12029;2023_Feb_17_1452;VideoMask;2021.1.2;120.79439222909078;
4.0;m;004_o_m_s_a.jpg;sad;7.0;happy_131.2.wmv;happy;9.0;incongruent;130.0;150.0;181.38407540847405;s_h;;;;;0;38;38;38;;;;;;;504.97652379999636;None;506.7014158000238;507.0181639000075;508.15143860000535;508.1682058000006;510.1514675000217;None;9;0;0.4801123999932315;510.1514675000217;None;;;;;;;;5;;;;;;512.4680571000208;None;None;None;[];512.4680571000208;None;None;;512.4680571000208;None;;;S12029;2023_Feb_17_1452;VideoMask;2021.1.2;120.79439222909078;
0.0;f;040_y_f_h_a.jpg;happy;9.0;happy_24.3ns.avi;happy;9.0;congruent;120.0;150.0;213.25460698950434;h_h;;;;;0;39;39;39;;;;;;;515.4844102000061;None;517.4595783000113;517.776199600019;518.9595968000067;518.9761758000241;520.8344897000061;None;9;0;0.5411224999988917;520.8344897000061;None;;;;;;;;5;;;;;;522.3761053000053;None;None;None;[];522.3761053000053;None;None;;522.3761053000053;None;;;S12029;2023_Feb_17_1452;VideoMask;2021.1.2;120.79439222909078;
2.0;f;012_o_f_s_a.jpg;sad;7.0;happy_139.1.wmv;happy;9.0;incongruent;130.0;150.0;162.31500468041804;s_h;;;;;0;40;40;40;;;;;;;525.3924768000143;None;526.9591322000197;527.2758099000202;528.409215599997;528.4259555000172;530.4092029000167;None;9;0;0.5344946999975946;530.4092029000167;None;;;;;;;;5;;;;;;531.9591055000201;None;None;None;[];531.9591055000201;None;None;;531.9591055000201;None;;;S12029;2023_Feb_17_1452;VideoMask;2021.1.2;120.79439222909078;
0.0;f;030_o_f_h_a.jpg;happy;9.0;happy_24.1ns.avi;happy;9.0;congruent;120.0;150.0;168.36256624020774;h_h;;;;;0;41;41;41;;;;;;;534.983825000003;None;536.6088888000231;536.9254766000086;538.058898200019;538.0756309000135;541.3837073000032;None;9;0;0.5440459000237752;541.3837073000032;None;;;;;;;;5;;;;;;542.9337737000023;None;None;None;[];542.9337737000023;None;None;;542.9337737000023;None;;;S12029;2023_Feb_17_1452;VideoMask;2021.1.2;120.79439222909078;
2.0;f;012_o_f_h_a.jpg;happy;9.0;sad_113.1.wmv;sad;7.0;incongruent;120.0;160.0;177.44551734737394;h_s;;;;;0;42;42;42;;;;;;;545.950219899998;None;547.6501501000021;547.9669593000144;549.1082813999965;549.125028600014;551.1085099000193;None;None;0;;551.1085099000193;None;;;;;;;;5;;;;;;552.6582865000237;None;None;None;[];552.6582865000237;None;None;;552.6582865000237;None;;;S12029;2023_Feb_17_1452;VideoMask;2021.1.2;120.79439222909078;
3.0;m;033_o_m_s_a.jpg;sad;7.0;sad_64.5ns.avi;sad;7.0;congruent;130.0;160.0;130.55717223801247;s_s;;;;;0;43;43;43;;;;;;;555.6833198000095;None;557.0166344000027;557.3331139000074;558.5082905000017;558.5255668000027;565.0664393000188;None;7;0;0.6292380999948364;565.0664393000188;None;;;;;;;;5;;;;;;566.6163265000214;None;None;None;[];566.6163265000214;None;None;;566.6163265000214;None;;;S12029;2023_Feb_17_1452;VideoMask;2021.1.2;120.79439222909078;
7.0;m;027_o_m_h_a.jpg;happy;9.0;sad_117.1.wmv;sad;7.0;incongruent;120.0;160.0;181.28665202824095;h_s;;;;;0;44;44;44;;;;;;;569.6410398000153;None;571.3827088999969;571.6993844000099;572.8327078000002;572.8493154000025;574.8328359000152;None;7;0;0.7907849999901373;574.8328359000152;None;;;;;;;;4;;;;;;576.3826069000061;None;None;None;[];576.3826069000061;None;['7'];[0.5052085999923293];576.3826069000061;None;;;S12029;2023_Feb_17_1452;VideoMask;2021.1.2;120.79439222909078;
3.0;m;033_o_m_s_a.jpg;sad;7.0;happy_126.3.wmv;happy;9.0;incongruent;130.0;150.0;198.85252030535366;s_h;;;;;0;45;45;45;;;;;;;579.3825304000056;None;581.2489699000143;581.5657910000009;582.6994298000063;582.724125800014;584.6990431000013;None;9;0;0.4926704000099562;584.6990431000013;None;;;;;;;;5;;;;;;586.2488374000241;None;None;None;[];586.2488374000241;None;None;;586.2488374000241;None;;;S12029;2023_Feb_17_1452;VideoMask;2021.1.2;120.79439222909078;
3.0;m;033_o_m_h_a.jpg;happy;9.0;sad_136.1.wmv;sad;7.0;incongruent;120.0;160.0;176.97002883463455;h_s;;;;;0;46;46;46;;;;;;;589.282073600014;None;590.9737788000202;591.290465099999;592.4239429000008;592.4405325000116;594.4238140000089;None;None;0;;594.4238140000089;None;;;;;;;;5;;;;;;595.9735507000005;None;None;None;[];595.9735507000005;None;None;;595.9735507000005;None;;;S12029;2023_Feb_17_1452;VideoMask;2021.1.2;120.79439222909078;
9.0;f;019_m_f_h_a.jpg;happy;9.0;happy_10.1ns.avi;happy;9.0;congruent;120.0;150.0;157.2463435658512;h_h;;;;;0;47;47;47;;;;;;;598.9901497000246;None;600.5485214000219;600.8652319000103;602.0318883;602.0485259999987;609.4482848000189;None;9;0;0.49548730000969954;609.4482848000189;None;;;;;;;;5;;;;;;610.9982470000105;None;None;None;[];610.9982470000105;None;None;;610.9982470000105;None;;;S12029;2023_Feb_17_1452;VideoMask;2021.1.2;120.79439222909078;
2.0;f;012_o_f_h_a.jpg;happy;9.0;happy_2.2ns.avi;happy;9.0;congruent;120.0;150.0;206.34800317295262;h_h;;;;;0;48;48;48;;;;;;;614.0313196000061;None;616.0480997000122;616.364677000005;617.5147894000111;617.5313136000186;629.6978165000037;None;9;0;0.7338311999919824;629.6978165000037;None;;;;;;;;5;;;;;;631.2559161999961;None;None;None;[];631.2559161999961;None;None;;631.2559161999961;None;;;S12029;2023_Feb_17_1452;VideoMask;2021.1.2;120.79439222909078;
3.0;m;033_o_m_h_a.jpg;happy;9.0;happy_24.2ns.avi;happy;9.0;congruent;120.0;150.0;167.9423847659953;h_h;;;;;0;49;49;49;;;;;;;634.2807031999982;None;635.8975283000036;636.2140252000245;637.3973988000071;637.4140623999992;641.0723391000065;None;9;0;0.8074022999790031;641.0723391000065;None;;;;;;;;5;;;;;;643.0804289000225;None;None;None;[];643.0804289000225;None;None;;643.0804289000225;None;;;S12029;2023_Feb_17_1452;VideoMask;2021.1.2;120.79439222909078;
1.0;f;021_o_f_s_a.jpg;sad;7.0;happy_61.2ns.avi;happy;9.0;incongruent;130.0;150.0;210.94664004826666;s_h;;;;;0;50;50;50;;;;;;;646.105272500019;None;648.0885694000171;648.4054113000166;649.5467575000075;649.563662200002;654.0634441000002;None;9;0;0.4724086999776773;654.0634441000002;None;;;;;;;;5;;;;;;655.6134872999974;None;None;None;[];655.6134872999974;None;None;;655.6134872999974;None;;;S12029;2023_Feb_17_1452;VideoMask;2021.1.2;120.79439222909078;
4.0;m;004_o_m_s_a.jpg;sad;7.0;sad_2.4ns.avi;sad;7.0;congruent;130.0;160.0;153.02079367163634;s_s;;;;;0;51;51;51;;;;;;;658.6385051000107;None;660.1465014000132;660.4632190999982;661.6466646000044;661.6632532000076;669.5549186000135;None;7;0;1.3170447000011336;669.5549186000135;None;;;;;;;;5;;;;;;671.1130197000166;None;None;None;[];671.1130197000166;None;None;;671.1130197000166;None;;;S12029;2023_Feb_17_1452;VideoMask;2021.1.2;120.79439222909078;
8.0;m;008_y_m_h_a.jpg;happy;9.0;happy_1.2ns.avi;happy;9.0;congruent;120.0;150.0;210.98946429383824;h_h;;;;;0;52;52;52;;;;;;;674.1294687000045;None;676.1627112000133;676.4793773000129;677.6378381999966;677.6544454999967;690.4040137999982;None;9;0;0.9155457000015303;690.4040137999982;None;;;;;;;;5;;;;;;691.9539915000205;None;None;None;[];691.9539915000205;None;None;;691.9539915000205;None;;;S12029;2023_Feb_17_1452;VideoMask;2021.1.2;120.79439222909078;
2.0;f;012_o_f_s_a.jpg;sad;7.0;happy_52.2ns.avi;happy;9.0;incongruent;130.0;150.0;172.57202848318138;s_h;;;;;0;53;53;53;;;;;;;694.9702924000158;None;696.6203895000217;696.9370909999998;698.0871231000056;698.1037615000096;701.6287222999963;None;9;0;0.45895820000441745;701.6287222999963;None;;;;;;;;5;;;;;;703.1786147000093;None;None;None;[];703.1786147000093;None;None;;703.1786147000093;None;;;S12029;2023_Feb_17_1452;VideoMask;2021.1.2;120.79439222909078;
9.0;f;019_m_f_s_a.jpg;sad;7.0;happy_61.1ns.avi;happy;9.0;incongruent;130.0;150.0;181.3003220572762;s_h;;;;;0;54;54;54;;;;;;;706.2119178000139;None;707.9782919000136;708.2951569000143;709.4621171000181;709.486742500012;716.8198220000195;None;8;0;0.4517848999821581;716.8198220000195;None;;;;;;;;5;;;;;;718.3614284000068;None;None;None;[];718.3614284000068;None;None;;718.3614284000068;None;;;S12029;2023_Feb_17_1452;VideoMask;2021.1.2;120.79439222909078;
0.0;f;030_o_f_h_a.jpg;happy;9.0;sad_133.1.wmv;sad;7.0;incongruent;120.0;160.0;198.86251500867985;h_s;;;;;0;55;55;55;;;;;;;721.3779397000035;None;723.2528540000203;723.5695756000059;724.6946623999975;724.7111933999986;726.7027888000011;None;7;0;0.544734899973264;726.7027888000011;None;;;;;;;;5;;;;;;728.2527780000237;None;None;None;[];728.2527780000237;None;None;;728.2527780000237;None;;;S12029;2023_Feb_17_1452;VideoMask;2021.1.2;120.79439222909078;
0.0;f;040_y_f_h_a.jpg;happy;9.0;sad_128.2.wmv;sad;7.0;incongruent;120.0;160.0;206.10005857915363;h_s;;;;;0;56;56;56;;;;;;;731.277824800025;None;733.2108237000066;733.527656899998;734.6608736000198;734.6774994000152;736.6608997000149;None;7;0;0.7546281999966595;736.6608997000149;None;;;;;;;;5;;;;;;738.2108320000116;None;None;None;[];738.2108320000116;None;None;;738.2108320000116;None;;;S12029;2023_Feb_17_1452;VideoMask;2021.1.2;120.79439222909078;
1.0;f;021_o_f_s_a.jpg;sad;7.0;sad_9.5ns.avi;sad;7.0;congruent;130.0;160.0;206.16642757875042;s_s;;;;;0;57;57;57;;;;;;;741.2358123000013;None;743.177201500017;743.4938899000117;744.6939912000089;744.7105818999989;750.3520470000221;None;7;0;0.48778009999659844;750.3520470000221;None;;;;;;;;4;;;;;;751.8937161000213;None;None;None;[];751.8937161000213;None;['7'];[0.27424769999925047];751.8937161000213;None;;;S12029;2023_Feb_17_1452;VideoMask;2021.1.2;120.79439222909078;
1.0;f;021_o_f_h_a.jpg;happy;9.0;happy_12.1ns.avi;happy;9.0;congruent;120.0;150.0;132.59080005900228;h_h;;;;;0;58;58;58;;;;;;;754.8936230000108;None;756.2517677000142;756.5684943000088;757.7349239000177;757.7520481000247;765.3183895999973;None;8;0;0.4336024000076577;765.3183895999973;None;;;;;;;;6;;;;;;766.8765954000119;None;None;None;[];766.8765954000119;None;['9'];[0.3229321999824606];766.8765954000119;None;;;S12029;2023_Feb_17_1452;VideoMask;2021.1.2;120.79439222909078;
3.0;m;013_y_m_s_a.jpg;sad;7.0;happy_56.2ns.avi;happy;9.0;incongruent;130.0;150.0;163.39234110935848;s_h;;;;;0;59;59;59;;;;;;;769.8766539000208;None;771.4679807000211;771.7847790000087;772.9263115000213;772.9429512000061;777.9427926000208;None;8;0;1.144855299993651;777.9427926000208;None;;;;;;;;5;;;;;;779.4927089000121;None;None;None;[];779.4927089000121;None;None;;779.4927089000121;None;;;S12029;2023_Feb_17_1452;VideoMask;2021.1.2;120.79439222909078;
;;;;;;;;;;;;;;;;;;;;;;;;;;;;;;;;;;;;;;;;;;;;;;;;;;;;;;;;;;;;;;;;782.5178315000085;None;;;;;;
