primePerson;primeGender;prime;primeEmotion;corrAnsPrime;target;targetEmotion;corrAnsTar;Cond;ID_Primer;ID_Target;JitterTime;Condition;example.thisRepN;example.thisTrialN;example.thisN;example.thisIndex;study.thisRepN;study.thisTrialN;study.thisN;study.thisIndex;MR_trigger_time;MR_trigger_number;text_intro.started;text_intro.stopped;text_probe.started;text_probe.stopped;polygon_ISI.started;polygon_ISI.stopped;polygon.started;polygon.stopped;primerImage.started;primerImage.stopped;response.started;response.stopped;key_resp.keys;key_resp.corr;key_resp.rt;key_resp.started;key_resp.stopped;slider_Text.started;slider_Text.stopped;slider_ex.response;slider_ex.rt;slider_ex.history;slider_ex.started;slider_ex.stopped;Rating;slider_resp_response.keys;slider_resp_response.started;slider_resp_response.stopped;text_start.started;text_start.stopped;text_slider.started;text_slider.stopped;slider_stud.response;slider_stud.rt;slider_stud.history;slider_stud.started;slider_stud.stopped;slider_resp_study.keys;slider_resp_study.started;slider_resp_study.stopped;slider_resp_study.rt;text_ende.started;text_ende.stopped;participant;date;expName;psychopyVersion;frameRate;
1111;m;1111_m_m_h_a.jpg;happy;9;example_30.4ns.avi;neutral;7;incongruent;120.0;170.0;189.5874364012288;;0;0;0;0;;;;;27.4970698999241;1;27.584074799902737;29.584190600086004;29.584190600086004;None;31.602494900114834;None;33.850466900039464;34.17566579999402;35.31722430000082;35.33395250001922;39.642083999933675;None;8;0;0.7391848999541253;39.642083999933675;None;41.218808100093156;None;None;None;[];41.218808100093156;None;5;None;41.218808100093156;None;;;;;;;;;;;;;;;;S11957;2023_Jan_09_1622;VideoMask;2021.1.2;120.0421108136308;
1113;f;1113_y_f_s_a.jpg;sad;7;example_30.3ns.avi;neutral;7;incongruent;130.0;170.0;229.02432995836998;;0;1;1;1;;;;;;;;;;;44.217001399956644;None;46.33345440006815;46.659793300088495;47.858595200115815;47.875217699911445;49.783519899938256;None;None;0;;49.783519899938256;None;51.333291799994186;None;None;None;[];51.333291799994186;None;5;None;51.333291799994186;None;;;;;;;;;;;;;;;;S11957;2023_Jan_09_1622;VideoMask;2021.1.2;120.0421108136308;
9.0;f;019_m_f_h_a.jpg;happy;9.0;sad_115.1.wmv;sad;7.0;incongruent;120.0;160.0;128.09063432376465;h_s;;;;;0;0;0;0;;;;;;;55.366594600025564;None;56.666545199928805;56.98321569990367;58.116535499924794;58.13325840001926;60.11652599996887;None;7;0;1.424371900036931;60.11652599996887;None;;;;;;;;5;;;;54.36670759995468;None;61.92487949994393;None;None;None;[];61.92487949994393;None;None;61.92487949994393;None;;;;S11957;2023_Jan_09_1622;VideoMask;2021.1.2;120.0421108136308;
3.0;m;033_o_m_s_a.jpg;sad;7.0;sad_94.2ns.avi;sad;7.0;congruent;130.0;160.0;182.29120173647655;s_s;;;;;0;1;1;1;;;;;;;64.9580870999489;None;66.69114369992167;67.0075582000427;68.25802659988403;68.27459809998982;70.85782400006428;None;None;0;;70.85782400006428;None;;;;;;;;3;;;;;;72.43301280005835;None;None;None;[];72.43301280005835;None;"['7', '7', '7']";72.43301280005835;None;"[10.456161299953237, 1.4599089999683201, 2.50017170002684]";;;S11957;2023_Jan_09_1622;VideoMask;2021.1.2;120.0421108136308;
8.0;m;008_y_m_h_a.jpg;happy;9.0;happy_26.1ns.avi;happy;9.0;congruent;120.0;150.0;155.9437854594882;h_h;;;;;0;2;2;2;;;;;;;75.40787609992549;None;76.89934520004317;77.21594380005263;78.34093869989738;78.35765690007247;80.34096290008165;None;9;0;0.7600640999153256;80.34096290008165;None;;;;;;;;5;;;;;;81.89082280010916;None;None;None;[];81.89082280010916;None;None;81.89082280010916;None;;;;S11957;2023_Jan_09_1622;VideoMask;2021.1.2;120.0421108136308;
0.0;f;040_y_f_h_a.jpg;happy;9.0;sad_138.1.wmv;sad;7.0;incongruent;120.0;160.0;133.99071306426532;h_s;;;;;0;3;3;3;;;;;;;84.91584590007551;None;86.24061369989067;86.55735939997248;87.68244070000947;87.69906889996491;89.69058519997634;None;7;0;0.7384030998218805;89.69058519997634;None;;;;;;;;2;;;;;;91.24052389990538;None;None;None;[];91.24052389990538;None;"['7', '7', '7']";91.24052389990538;None;"[0.5245268000289798, 0.9564780001528561, 1.4855114000383765]";;;S11957;2023_Jan_09_1622;VideoMask;2021.1.2;120.0421108136308;
8.0;f;028_y_f_s_a.jpg;sad;7.0;sad_64.2ns.avi;sad;7.0;congruent;130.0;160.0;229.88540597086478;s_s;;;;;0;4;4;4;;;;;;;94.2492329000961;None;96.48203890002333;96.7987148000393;97.9831115999259;98.00768920010887;108.93998369993642;None;7;0;0.7530451000202447;108.93998369993642;None;;;;;;;;4;;;;;;110.48993239994161;None;None;None;[];110.48993239994161;None;['7'];110.48993239994161;None;[1.3871083001140505];;;S11957;2023_Jan_09_1622;VideoMask;2021.1.2;120.0421108136308;
7.0;m;027_o_m_s_a.jpg;sad;7.0;sad_10.4ns.avi;sad;7.0;congruent;130.0;160.0;185.20129417468752;s_s;;;;;0;5;5;5;;;;;;;113.4986087998841;None;115.27305130008608;115.58973259991035;116.73253630008548;116.7563229999505;119.88966279989108;None;7;0;1.0114026998635381;119.88966279989108;None;;;;;;;;5;;;;;;121.4395882000681;None;None;None;[];121.4395882000681;None;None;121.4395882000681;None;;;;S11957;2023_Jan_09_1622;VideoMask;2021.1.2;120.0421108136308;
2.0;f;012_o_f_s_a.jpg;sad;7.0;sad_7.5ns.avi;sad;7.0;congruent;130.0;160.0;220.27842655424388;s_s;;;;;0;6;6;6;;;;;;;124.46453829994425;None;126.4892788999714;126.80615690001287;127.96430979995057;127.98090440011583;130.73097019991837;None;7;0;0.7859565000981092;130.73097019991837;None;;;;;;;;3;;;;;;132.28091179998592;None;None;None;[];132.28091179998592;None;"['7', '7']";132.28091179998592;None;"[0.5240205998998135, 1.1001822999678552]";;;S11957;2023_Jan_09_1622;VideoMask;2021.1.2;120.0421108136308;
2.0;f;012_o_f_h_a.jpg;happy;9.0;happy_27.1ns.avi;happy;9.0;congruent;120.0;150.0;146.44967055810616;h_h;;;;;0;7;7;7;;;;;;;135.28959989990108;None;136.7223330999259;137.03904860001057;138.18079079990275;138.197405599989;140.66399280005135;None;9;0;1.1412617000751197;140.66399280005135;None;;;;;;;;6;;;;;;142.214037100086;None;None;None;[];142.214037100086;None;['9'];142.214037100086;None;[1.3829945998732];;;S11957;2023_Jan_09_1622;VideoMask;2021.1.2;120.0421108136308;
8.0;f;028_y_f_h_a.jpg;happy;9.0;sad_119.1.wmv;sad;7.0;incongruent;120.0;160.0;148.71526953572538;h_s;;;;;0;8;8;8;;;;;;;145.22261229995638;None;146.6720195999369;146.98878169991076;148.12321630003862;148.14697219990194;150.18878030008636;None;7;0;1.4802572999615222;150.18878030008636;None;;;;;;;;3;;;;;;151.73869229992852;None;None;None;[];151.73869229992852;None;"['7', '7']";151.73869229992852;None;"[1.066334999864921, 1.5542875998653471]";;;S11957;2023_Jan_09_1622;VideoMask;2021.1.2;120.0421108136308;
6.0;m;016_y_m_s_a.jpg;sad;7.0;happy_60.4ns.avi;happy;9.0;incongruent;130.0;150.0;126.02367393611817;s_h;;;;;0;9;9;9;;;;;;;154.7389748999849;None;156.03018080000766;156.3467417000793;157.555135600036;157.5718068999704;163.27156700007617;None;9;0;1.1736600999720395;163.27156700007617;None;;;;;;;;7;;;;;;164.82159229996614;None;None;None;[];164.82159229996614;None;"['9', '9']";164.82159229996614;None;"[0.8873866000212729, 1.1916531999595463]";;;S11957;2023_Jan_09_1622;VideoMask;2021.1.2;120.0421108136308;
9.0;f;019_m_f_s_a.jpg;sad;7.0;sad_8.4ns.avi;sad;7.0;congruent;130.0;160.0;171.6633093155257;s_s;;;;;0;10;10;10;;;;;;;167.8216719001066;None;169.4963042999152;169.81299269990996;170.94634209992364;170.96303429990076;179.07948859990574;None;7;0;1.2616246999241412;179.07948859990574;None;;;;;;;;3;;;;;;180.6294342998881;None;None;None;[];180.6294342998881;None;"['7', '7']";180.6294342998881;None;"[1.2557036001235247, 2.2155018001794815]";;;S11957;2023_Jan_09_1622;VideoMask;2021.1.2;120.0421108136308;
4.0;m;004_o_m_h_a.jpg;happy;9.0;happy_1.1ns.avi;happy;9.0;congruent;120.0;150.0;203.50057144619865;h_h;;;;;0;11;11;11;;;;;;;183.63792450004257;None;185.62093569990247;185.9375734999776;187.07080859993584;187.08744650008157;201.56377650005743;None;9;0;1.025266099954024;201.56377650005743;None;;;;;;;;6;;;;;;203.403719099937;None;None;None;[];203.403719099937;None;['9'];203.403719099937;None;[1.561528000049293];;;S11957;2023_Jan_09_1622;VideoMask;2021.1.2;120.0421108136308;
7.0;m;027_o_m_h_a.jpg;happy;9.0;happy_20.1ns.avi;happy;9.0;congruent;120.0;150.0;152.91127178874285;h_h;;;;;0;12;12;12;;;;;;;206.4040757000912;None;207.89520910009742;208.21180030005053;209.39520250004716;209.4118818999268;212.3617215999402;None;9;0;0.8274459999520332;212.3617215999402;None;;;;;;;;5;;;;;;213.91170520009473;None;None;None;[];213.91170520009473;None;None;213.91170520009473;None;;;;S11957;2023_Jan_09_1622;VideoMask;2021.1.2;120.0421108136308;
0.0;f;040_y_f_s_a.jpg;sad;7.0;sad_94.3ns.avi;sad;7.0;congruent;130.0;160.0;155.27414203894395;s_s;;;;;0;13;13;13;;;;;;;216.9366492999252;None;218.42816210002638;218.74494179990143;219.89662829996087;219.93655629991554;222.50315200001933;None;None;0;;222.50315200001933;None;;;;;;;;5;;;;;;224.05293689994141;None;None;None;[];224.05293689994141;None;None;224.05293689994141;None;;;;S11957;2023_Jan_09_1622;VideoMask;2021.1.2;120.0421108136308;
0.0;f;030_o_f_s_a.jpg;sad;7.0;sad_68.1ns.avi;sad;7.0;congruent;130.0;160.0;158.9411396037211;s_s;;;;;0;14;14;14;;;;;;;227.08630040008575;None;228.64460769994184;228.96112499991432;230.11960779991932;230.1360959999729;237.519332600059;None;7;0;0.7739035999402404;237.519332600059;None;;;;;;;;3;;;;;;239.06927089998499;None;None;None;[];239.06927089998499;None;"['7', '7', '7']";239.06927089998499;None;"[0.7198688997887075, 1.3039429998025298, 1.7599220999982208]";;;S11957;2023_Jan_09_1622;VideoMask;2021.1.2;120.0421108136308;
0.0;f;030_o_f_h_a.jpg;happy;9.0;sad_127.1.wmv;sad;7.0;incongruent;120.0;160.0;180.59976631384873;h_s;;;;;0;15;15;15;;;;;;;242.0779615000356;None;243.81071179988794;244.1275424999185;245.252484299941;245.26901059993543;247.26915029995143;None;7;0;1.4002670999616385;247.26915029995143;None;;;;;;;;5;;;;;;248.8273153998889;None;None;None;[];248.8273153998889;None;None;248.8273153998889;None;;;;S11957;2023_Jan_09_1622;VideoMask;2021.1.2;120.0421108136308;
8.0;m;008_y_m_s_a.jpg;sad;7.0;happy_133.3.wmv;happy;9.0;incongruent;130.0;150.0;152.577966552593;s_h;;;;;0;16;16;16;;;;;;;251.85223939991556;None;253.3520432000514;253.66880189999938;254.79384270007722;254.8106412999332;256.8020528999623;None;9;0;1.363088299985975;256.8020528999623;None;;;;;;;;5;;;;;;258.3520055001136;None;None;None;[];258.3520055001136;None;None;258.3520055001136;None;;;;S11957;2023_Jan_09_1622;VideoMask;2021.1.2;120.0421108136308;
3.0;m;033_o_m_h_a.jpg;happy;9.0;sad_128.1.wmv;sad;7.0;incongruent;120.0;160.0;171.0492454518585;h_s;;;;;0;17;17;17;;;;;;;261.3769557001069;None;263.0351648000069;263.3514632000588;264.50350379990414;264.5350460000336;266.4850079000462;None;None;0;;266.4850079000462;None;;;;;;;;3;;;;;;268.0515640999656;None;None;None;[];268.0515640999656;None;"['7', '7']";268.0515640999656;None;"[9.6452385999728, 1.6257979001384228]";;;S11957;2023_Jan_09_1622;VideoMask;2021.1.2;120.0421108136308;
1.0;f;021_o_f_h_a.jpg;happy;9.0;sad_116.1.wmv;sad;7.0;incongruent;120.0;160.0;184.06847610053055;h_s;;;;;0;18;18;18;;;;;;;271.0350043999497;None;272.7847661001142;273.101172799943;274.24329079990275;274.259776199935;276.23482499993406;None;7;0;1.0104018000420183;276.23482499993406;None;;;;;;;;4;;;;;;277.7848038999364;None;None;None;[];277.7848038999364;None;['7'];277.7848038999364;None;[1.3643766001332551];;;S11957;2023_Jan_09_1622;VideoMask;2021.1.2;120.0421108136308;
4.0;m;004_o_m_s_a.jpg;sad;7.0;happy_28.1ns.avi;happy;9.0;incongruent;130.0;150.0;157.40741103039684;s_h;;;;;0;19;19;19;;;;;;;280.7849677999038;None;282.31799079990014;282.63452850002795;283.8260761999991;283.8429942999501;288.1593742999248;None;9;0;0.9899358998518437;288.1593742999248;None;;;;;;;;7;;;;;;289.74268879997544;None;None;None;[];289.74268879997544;None;"['9', '9']";289.74268879997544;None;"[0.5985186998732388, 1.1587228998541832]";;;S11957;2023_Jan_09_1622;VideoMask;2021.1.2;120.0421108136308;
8.0;f;028_y_f_s_a.jpg;sad;7.0;happy_122.3.wmv;happy;9.0;incongruent;130.0;150.0;171.8670540936116;s_h;;;;;0;20;20;20;;;;;;;292.75138509995304;None;294.417438399978;294.73433870007284;295.8675017999485;295.8841613000259;297.86751600005664;None;9;0;1.113700000103563;297.86751600005664;None;;;;;;;;6;;;;;;299.41754069994204;None;None;None;[];299.41754069994204;None;['9'];299.41754069994204;None;[1.859950999962166];;;S11957;2023_Jan_09_1622;VideoMask;2021.1.2;120.0421108136308;
8.0;m;008_y_m_s_a.jpg;sad;7.0;sad_6.5ns.avi;sad;7.0;congruent;130.0;160.0;170.39333839271438;s_s;;;;;0;21;21;21;;;;;;;302.4258194998838;None;304.0755127999;304.39214750006795;305.5754807998892;305.5922280000523;310.52551979990676;None;7;0;0.7837560002226382;310.52551979990676;None;;;;;;;;5;;;;;;312.07539610005915;None;None;None;[];312.07539610005915;None;None;312.07539610005915;None;;;;S11957;2023_Jan_09_1622;VideoMask;2021.1.2;120.0421108136308;
8.0;f;028_y_f_h_a.jpg;happy;9.0;happy_23.1ns.avi;happy;9.0;congruent;120.0;150.0;225.70986890587952;h_h;;;;;0;22;22;22;;;;;;;315.10859659989364;None;317.19171790010296;317.5083765001036;318.7250693999231;318.74164510006085;323.21669039991684;None;9;0;0.5646648001857102;323.21669039991684;None;;;;;;;;7;;;;;;324.7666174999904;None;None;None;[];324.7666174999904;None;"['9', '9']";324.7666174999904;None;"[0.3666569998022169, 0.6706534998957068]";;;S11957;2023_Jan_09_1622;VideoMask;2021.1.2;120.0421108136308;
8.0;m;008_y_m_h_a.jpg;happy;9.0;sad_111.1.wmv;sad;7.0;incongruent;120.0;160.0;152.63076835312847;h_s;;;;;0;23;23;23;;;;;;;327.76695619989187;None;329.2580675999634;329.58316719997674;330.7164465999231;330.73308899998665;332.7081317000557;None;7;0;1.017152100102976;332.7081317000557;None;;;;;;;;5;;;;;;334.25804289989173;None;None;None;[];334.25804289989173;None;None;334.25804289989173;None;;;;S11957;2023_Jan_09_1622;VideoMask;2021.1.2;120.0421108136308;
0.0;f;040_y_f_s_a.jpg;sad;7.0;sad_67.2ns.avi;sad;7.0;congruent;130.0;160.0;220.9892697323079;s_s;;;;;0;24;24;24;;;;;;;337.28291549999267;None;339.3661871000659;339.69123789994046;340.8661026000045;340.88274880009703;350.040928500006;None;7;0;0.9724803001154214;350.040928500006;None;;;;;;;;3;;;;;;351.6991336001083;None;None;None;[];351.6991336001083;None;"['7', '7', '7']";351.6991336001083;None;"[1.002167500089854, 1.538155100075528, 2.010465499944985]";;;S11957;2023_Jan_09_1622;VideoMask;2021.1.2;120.0421108136308;
8.0;m;008_y_m_s_a.jpg;sad;7.0;happy_29.1ns.avi;happy;9.0;incongruent;130.0;150.0;120.0316142834122;s_h;;;;;0;25;25;25;;;;;;;354.69914719997905;None;355.9155355999246;356.2323809999507;357.3904820000753;357.40725430008024;360.05717599997297;None;9;0;1.0842098998837173;360.05717599997297;None;;;;;;;;5;;;;;;361.6071647000499;None;None;None;[];361.6071647000499;None;None;361.6071647000499;None;;;;S11957;2023_Jan_09_1622;VideoMask;2021.1.2;120.0421108136308;
6.0;m;016_y_m_s_a.jpg;sad;7.0;sad_8.3ns.avi;sad;7.0;congruent;130.0;160.0;152.85371098242734;s_s;;;;;0;26;26;26;;;;;;;364.64037539996207;None;366.1654171999544;366.48185950005427;367.6151678999886;367.63192699989304;375.37343819998205;None;7;0;1.4399774998892099;375.37343819998205;None;;;;;;;;5;;;;;;376.92335629998706;None;None;None;[];376.92335629998706;None;None;376.92335629998706;None;;;;S11957;2023_Jan_09_1622;VideoMask;2021.1.2;120.0421108136308;
6.0;m;016_y_m_h_a.jpg;happy;9.0;sad_114.1.wmv;sad;7.0;incongruent;120.0;160.0;136.20550699298644;h_s;;;;;0;27;27;27;;;;;;;379.95666079991497;None;381.30645729997195;381.6230703999754;382.7482127000112;382.76477829995565;384.75643930002116;None;7;0;1.296969500137493;384.75643930002116;None;;;;;;;;4;;;;;;386.30637070001103;None;None;None;[];386.30637070001103;None;['7'];386.30637070001103;None;[1.5309945000335574];;;S11957;2023_Jan_09_1622;VideoMask;2021.1.2;120.0421108136308;
7.0;m;027_o_m_s_a.jpg;sad;7.0;happy_117.3.wmv;happy;9.0;incongruent;130.0;150.0;215.61964028550614;s_h;;;;;0;28;28;28;;;;;;;389.3150253999047;None;391.31441619992256;391.63113009999506;392.7562160999514;392.77293509989977;394.7643722000066;None;None;0;;394.7643722000066;None;;;;;;;;6;;;;;;396.3142659000587;None;None;None;[];396.3142659000587;None;['9'];396.3142659000587;None;[0.0909988998901099];;;S11957;2023_Jan_09_1622;VideoMask;2021.1.2;120.0421108136308;
6.0;m;016_y_m_h_a.jpg;happy;9.0;happy_9.2ns.avi;happy;9.0;congruent;120.0;150.0;130.52042428082717;h_h;;;;;0;29;29;29;;;;;;;399.3143152000848;None;400.63925649994053;400.95583399990574;402.1226025999058;402.13902290002443;408.0140366998967;None;9;0;1.1113781998865306;408.0140366998967;None;;;;;;;;6;;;;;;409.57232549996115;None;None;None;[];409.57232549996115;None;"['9', '9']";409.57232549996115;None;"[0.9690801000688225, 1.4652537999209017]";;;S11957;2023_Jan_09_1622;VideoMask;2021.1.2;120.0421108136308;
0.0;f;040_y_f_s_a.jpg;sad;7.0;happy_127.3.wmv;happy;9.0;incongruent;130.0;150.0;131.7195455720239;s_h;;;;;0;30;30;30;;;;;;;412.58073979988694;None;413.88043779996224;414.19716360000893;415.32220809999853;415.338830600027;417.3971055999864;None;9;0;1.1682659001089633;417.3971055999864;None;;;;;;;;5;;;;;;418.9470510999672;None;None;None;[];418.9470510999672;None;None;418.9470510999672;None;;;;S11957;2023_Jan_09_1622;VideoMask;2021.1.2;120.0421108136308;
0.0;f;030_o_f_s_a.jpg;sad;7.0;happy_125.3.wmv;happy;9.0;incongruent;130.0;150.0;220.51454909128134;s_h;;;;;0;31;31;31;;;;;;;421.9803371001035;None;424.0384458999615;424.3551471999381;425.4900533000473;425.52181440009736;427.48843410005793;None;9;0;1.2689377998467535;427.48843410005793;None;;;;;;;;5;;;;;;429.0383758000098;None;None;None;[];429.0383758000098;None;None;429.0383758000098;None;;;;S11957;2023_Jan_09_1622;VideoMask;2021.1.2;120.0421108136308;
0.0;f;030_o_f_s_a.jpg;sad;7.0;sad_64.3ns.avi;sad;7.0;congruent;130.0;160.0;165.78667874766072;s_s;;;;;0;32;32;32;;;;;;;432.0632927999832;None;433.6714784000069;433.987827999983;435.1299107999075;435.1464595000725;440.1213857999537;None;7;0;1.3320979999843985;440.1213857999537;None;;;;;;;;3;;;;;;441.67130950000137;None;None;None;[];441.67130950000137;None;"['7', '7', '7']";441.67130950000137;None;"[1.0781096999999136, 1.4381040001753718, 1.7820349000394344]";;;S11957;2023_Jan_09_1622;VideoMask;2021.1.2;120.0421108136308;
3.0;m;013_y_m_s_a.jpg;sad;7.0;sad_7.7ns.avi;sad;7.0;congruent;130.0;160.0;196.24182255763262;s_s;;;;;0;33;33;33;;;;;;;444.67147439997643;None;446.5378558000084;446.85442749992944;448.03766699996777;448.05446120002307;453.9876463999972;None;7;0;1.1456129997968674;453.9876463999972;None;;;;;;;;4;;;;;;455.5375508000143;None;None;None;[];455.5375508000143;None;"['7', '7']";455.5375508000143;None;"[1.0038811000995338, 1.5479199001565576]";;;S11957;2023_Jan_09_1622;VideoMask;2021.1.2;120.0421108136308;
3.0;m;013_y_m_h_a.jpg;happy;9.0;happy_9.1ns.avi;happy;9.0;congruent;120.0;150.0;165.1890303600433;h_h;;;;;0;34;34;34;;;;;;;458.5374954000581;None;460.14559140009806;460.46230580005795;461.6556051999796;461.6874271999113;464.82061939989217;None;9;0;1.088937799911946;464.82061939989217;None;;;;;;;;5;;;;;;466.55392330000177;None;None;None;[];466.55392330000177;None;None;466.55392330000177;None;;;;S11957;2023_Jan_09_1622;VideoMask;2021.1.2;120.0421108136308;
4.0;m;004_o_m_h_a.jpg;happy;9.0;sad_95.1ns.avi;sad;7.0;incongruent;120.0;160.0;152.68270002069931;h_s;;;;;0;35;35;35;;;;;;;469.58714390010573;None;471.1289190999232;471.4453743000049;472.57864470011555;472.59545459994115;481.3701001999434;None;7;0;0.9876104998402297;481.3701001999434;None;;;;;;;;4;;;;;;482.9700348000042;None;None;None;[];482.9700348000042;None;['7'];482.9700348000042;None;[1.0752105000428855];;;S11957;2023_Jan_09_1622;VideoMask;2021.1.2;120.0421108136308;
3.0;m;013_y_m_h_a.jpg;happy;9.0;sad_113.2.wmv;sad;7.0;incongruent;120.0;160.0;217.4973891947951;h_s;;;;;0;36;36;36;;;;;;;485.97867000009865;None;488.0281171000097;488.34504009992816;489.469932799926;489.4865111000836;491.4781426000409;None;7;0;1.103378799976781;491.4781426000409;None;;;;;;;;5;;;;;;493.02809130004607;None;None;None;[];493.02809130004607;None;None;493.02809130004607;None;;;;S11957;2023_Jan_09_1622;VideoMask;2021.1.2;120.0421108136308;
4.0;m;004_o_m_h_a.jpg;happy;9.0;happy_25.1ns.avi;happy;9.0;congruent;120.0;150.0;216.63044503818386;h_h;;;;;0;37;37;37;;;;;;;496.0530097000301;None;498.06946250004694;498.38573780003935;499.5529072000645;499.5695019001141;503.2111013000831;None;9;0;1.2742731999605894;503.2111013000831;None;;;;;;;;6;;;;;;504.8361470999662;None;None;None;[];504.8361470999662;None;['9'];504.8361470999662;None;[1.5532914998475462];;;S11957;2023_Jan_09_1622;VideoMask;2021.1.2;120.0421108136308;
4.0;m;004_o_m_s_a.jpg;sad;7.0;happy_131.2.wmv;happy;9.0;incongruent;130.0;150.0;181.38407540847405;s_h;;;;;0;38;38;38;;;;;;;507.84446109994315;None;509.5691790001001;509.8853569000494;511.02862509991974;511.05240310006775;513.0190576999448;None;9;0;0.9547925000078976;513.0190576999448;None;;;;;;;;7;;;;;;514.5690317000262;None;None;None;[];514.5690317000262;None;"['9', '9']";514.5690317000262;None;"[1.1404766999185085, 2.284419700037688]";;;S11957;2023_Jan_09_1622;VideoMask;2021.1.2;120.0421108136308;
0.0;f;040_y_f_h_a.jpg;happy;9.0;happy_24.3ns.avi;happy;9.0;congruent;120.0;150.0;213.25460698950434;h_h;;;;;0;39;39;39;;;;;;;517.5775816999376;None;519.5521503000055;519.8687708999496;521.0605810999405;521.07724829996;522.9271521999035;None;9;0;1.0943853999488056;522.9271521999035;None;;;;;;;;5;;;;;;524.4770829998888;None;None;None;[];524.4770829998888;None;"['9', '7']";524.4770829998888;None;"[0.9124388000927866, 1.8244990999810398]";;;S11957;2023_Jan_09_1622;VideoMask;2021.1.2;120.0421108136308;
2.0;f;012_o_f_s_a.jpg;sad;7.0;happy_139.1.wmv;happy;9.0;incongruent;130.0;150.0;162.31500468041804;s_h;;;;;0;40;40;40;;;;;;;527.4774066000246;None;529.0434900000691;529.3602223000489;530.4934853001032;530.5102347999346;532.4934874998871;None;9;0;1.1359445999842137;532.4934874998871;None;;;;;;;;5;;;;;;534.0434338999912;None;None;None;[];534.0434338999912;None;None;534.0434338999912;None;;;;S11957;2023_Jan_09_1622;VideoMask;2021.1.2;120.0421108136308;
0.0;f;030_o_f_h_a.jpg;happy;9.0;happy_24.1ns.avi;happy;9.0;congruent;120.0;150.0;168.36256624020774;h_h;;;;;0;41;41;41;;;;;;;537.0683935999405;None;538.701500199968;539.0179224000312;540.1933593999129;540.2099363000598;543.4765639000107;None;9;0;0.888978699920699;543.4765639000107;None;;;;;;;;7;;;;;;545.0264204000123;None;None;None;[];545.0264204000123;None;"['9', '9', '9']";545.0264204000123;None;"[0.5869261000771075, 1.0431810000445694, 1.5631090002134442]";;;S11957;2023_Jan_09_1622;VideoMask;2021.1.2;120.0421108136308;
2.0;f;012_o_f_h_a.jpg;happy;9.0;sad_113.1.wmv;sad;7.0;incongruent;120.0;160.0;177.44551734737394;h_s;;;;;0;42;42;42;;;;;;;548.0347684000153;None;549.7177895000204;550.0346707000863;551.1678708000109;551.1845404999331;553.167887599906;None;7;0;1.053602600004524;553.167887599906;None;;;;;;;;4;;;;;;554.7426771000028;None;None;None;[];554.7426771000028;None;['7'];554.7426771000028;None;[1.4468659998383373];;;S11957;2023_Jan_09_1622;VideoMask;2021.1.2;120.0421108136308;
3.0;m;033_o_m_s_a.jpg;sad;7.0;sad_64.5ns.avi;sad;7.0;congruent;130.0;160.0;130.55717223801247;s_s;;;;;0;43;43;43;;;;;;;557.7430173000321;None;559.0926850000396;559.4093053999823;560.5676682998892;560.5842893000226;567.1258543999866;None;7;0;1.039702899986878;567.1258543999866;None;;;;;;;;3;;;;;;568.6758183001075;None;None;None;[];568.6758183001075;None;"['7', '7']";568.6758183001075;None;"[0.8975817000027746, 1.3297504999209195]";;;S11957;2023_Jan_09_1622;VideoMask;2021.1.2;120.0421108136308;
7.0;m;027_o_m_h_a.jpg;happy;9.0;sad_117.1.wmv;sad;7.0;incongruent;120.0;160.0;181.28665202824095;h_s;;;;;0;44;44;44;;;;;;;571.6760629001074;None;573.4087940000463;573.7256712000817;574.8600252999458;574.8837250999641;576.8589121999685;None;7;0;1.002687499858439;576.8589121999685;None;;;;;;;;4;;;;;;578.4087336000521;None;None;None;[];578.4087336000521;None;['7'];578.4087336000521;None;[1.796895300038159];;;S11957;2023_Jan_09_1622;VideoMask;2021.1.2;120.0421108136308;
3.0;m;033_o_m_s_a.jpg;sad;7.0;happy_126.3.wmv;happy;9.0;incongruent;130.0;150.0;198.85252030535366;s_h;;;;;0;45;45;45;;;;;;;581.4169326000847;None;583.2835589000024;583.6002011999954;584.7333112999331;584.7502778000198;586.7335181999952;None;9;0;0.9280878000427037;586.7335181999952;None;;;;;;;;5;;;;;;588.2834391000215;None;None;None;[];588.2834391000215;None;None;588.2834391000215;None;;;;S11957;2023_Jan_09_1622;VideoMask;2021.1.2;120.0421108136308;
3.0;m;033_o_m_h_a.jpg;happy;9.0;sad_136.1.wmv;sad;7.0;incongruent;120.0;160.0;176.97002883463455;h_s;;;;;0;46;46;46;;;;;;;591.316717900103;None;592.9998717000708;593.316626700107;594.4416340999305;594.4582138000987;596.4498840000015;None;None;0;;596.4498840000015;None;;;;;;;;4;;;;;;597.9999339999631;None;None;None;[];597.9999339999631;None;"['7', '9', '7']";597.9999339999631;None;"[0.33351519983261824, 0.9896717998199165, 1.3497450998984277]";;;S11957;2023_Jan_09_1622;VideoMask;2021.1.2;120.0421108136308;
9.0;f;019_m_f_h_a.jpg;happy;9.0;happy_10.1ns.avi;happy;9.0;congruent;120.0;150.0;157.2463435658512;h_h;;;;;0;47;47;47;;;;;;;600.9997423000168;None;602.5580561999232;602.8831013001036;604.0329495999031;604.049567299895;611.44943649997;None;9;0;1.0200545999687165;611.44943649997;None;;;;;;;;6;;;;;;612.9993219000753;None;None;None;[];612.9993219000753;None;['9'];612.9993219000753;None;[0.9503878999967128];;;S11957;2023_Jan_09_1622;VideoMask;2021.1.2;120.0421108136308;
2.0;f;012_o_f_h_a.jpg;happy;9.0;happy_2.2ns.avi;happy;9.0;congruent;120.0;150.0;206.34800317295262;h_h;;;;;0;48;48;48;;;;;;;615.9996519999113;None;617.9824731999543;618.2990164998919;619.4491051998921;619.4656982000452;631.6404824000783;None;9;0;1.3492537001147866;631.6404824000783;None;;;;;;;;6;;;;;;633.1903528000694;None;None;None;[];633.1903528000694;None;['9'];633.1903528000694;None;[1.3912719001527876];;;S11957;2023_Jan_09_1622;VideoMask;2021.1.2;120.0421108136308;
3.0;m;033_o_m_h_a.jpg;happy;9.0;happy_24.2ns.avi;happy;9.0;congruent;120.0;150.0;167.9423847659953;h_h;;;;;0;49;49;49;;;;;;;636.190276700072;None;637.806984399911;638.1235311001074;639.2902619999368;639.3068454000168;642.9817164998967;None;9;0;1.1358600000385195;642.9817164998967;None;;;;;;;;6;;;;;;644.5316584999673;None;None;None;[];644.5316584999673;None;['9'];644.5316584999673;None;[0.9538163000252098];;;S11957;2023_Jan_09_1622;VideoMask;2021.1.2;120.0421108136308;
1.0;f;021_o_f_s_a.jpg;sad;7.0;happy_61.2ns.avi;happy;9.0;incongruent;130.0;150.0;210.94664004826666;s_h;;;;;0;50;50;50;;;;;;;647.5317631999496;None;649.5148277999833;649.8315495999996;651.0065663999412;651.0231526999269;655.4897090001032;None;9;0;1.0678363998886198;655.4897090001032;None;;;;;;;;7;;;;;;657.0396207999438;None;None;None;[];657.0396207999438;None;"['9', '9']";657.0396207999438;None;"[0.35805990011431277, 0.6138234999962151]";;;S11957;2023_Jan_09_1622;VideoMask;2021.1.2;120.0421108136308;
4.0;m;004_o_m_s_a.jpg;sad;7.0;sad_2.4ns.avi;sad;7.0;congruent;130.0;160.0;153.02079367163634;s_s;;;;;0;51;51;51;;;;;;;660.0399136999622;None;661.539466700051;661.8560470999219;663.0309514000546;663.0476663999725;670.9476592000574;None;7;0;0.9381186000537127;670.9476592000574;None;;;;;;;;4;;;;;;672.4974718999583;None;None;None;[];672.4974718999583;None;['7'];672.4974718999583;None;[0.5163247999735177];;;S11957;2023_Jan_09_1622;VideoMask;2021.1.2;120.0421108136308;
8.0;m;008_y_m_h_a.jpg;happy;9.0;happy_1.2ns.avi;happy;9.0;congruent;120.0;150.0;210.98946429383824;h_h;;;;;0;52;52;52;;;;;;;675.4976141001098;None;677.539062099997;677.8556013000198;678.980633799918;678.9972733000759;691.7801610999741;None;9;0;1.2576920001301914;691.7801610999741;None;;;;;;;;5;;;;;;693.3301609999035;None;None;None;[];693.3301609999035;None;None;693.3301609999035;None;;;;S11957;2023_Jan_09_1622;VideoMask;2021.1.2;120.0421108136308;
2.0;f;012_o_f_s_a.jpg;sad;7.0;happy_52.2ns.avi;happy;9.0;incongruent;130.0;150.0;172.57202848318138;s_h;;;;;0;53;53;53;;;;;;;696.3634224000853;None;698.0133777998853;698.3299124999903;699.4966694000177;699.5131787001155;703.013210499892;None;9;0;1.064538200153038;703.013210499892;None;;;;;;;;5;;;;;;704.5631470999215;None;None;None;[];704.5631470999215;None;None;704.5631470999215;None;;;;S11957;2023_Jan_09_1622;VideoMask;2021.1.2;120.0421108136308;
9.0;f;019_m_f_s_a.jpg;sad;7.0;happy_61.1ns.avi;happy;9.0;incongruent;130.0;150.0;181.3003220572762;s_h;;;;;0;54;54;54;;;;;;;707.5965007999912;None;709.3795656999573;709.6961880000308;710.8713112000842;710.8879712000489;718.2210687999614;None;9;0;0.9926471998915076;718.2210687999614;None;;;;;;;;6;;;;;;719.7709872000851;None;None;None;[];719.7709872000851;None;['9'];719.7709872000851;None;[0.6506845999974757];;;S11957;2023_Jan_09_1622;VideoMask;2021.1.2;120.0421108136308;
0.0;f;030_o_f_h_a.jpg;happy;9.0;sad_133.1.wmv;sad;7.0;incongruent;120.0;160.0;198.86251500867985;h_s;;;;;0;55;55;55;;;;;;;722.7712358999997;None;724.645738299936;724.9621598999947;726.0955501000863;726.1208061000798;728.0957975001074;None;7;0;0.7659750999882817;728.0957975001074;None;;;;;;;;4;;;;;;729.6457269999664;None;None;None;[];729.6457269999664;None;['7'];729.6457269999664;None;[1.4321416998282075];;;S11957;2023_Jan_09_1622;VideoMask;2021.1.2;120.0421108136308;
0.0;f;040_y_f_h_a.jpg;happy;9.0;sad_128.2.wmv;sad;7.0;incongruent;120.0;160.0;206.10005857915363;h_s;;;;;0;56;56;56;;;;;;;732.6459230000619;None;734.570414399961;734.8867530999705;736.0285920000169;736.0453381000552;738.0204483999405;None;7;0;1.1853235000744462;738.0204483999405;None;;;;;;;;5;;;;;;739.5703910000157;None;None;None;[];739.5703910000157;None;None;739.5703910000157;None;;;;S11957;2023_Jan_09_1622;VideoMask;2021.1.2;120.0421108136308;
1.0;f;021_o_f_s_a.jpg;sad;7.0;sad_9.5ns.avi;sad;7.0;congruent;130.0;160.0;206.16642757875042;s_s;;;;;0;57;57;57;;;;;;;742.595320600085;None;744.5284416999202;744.8451094999909;745.9952020999044;746.011877699988;751.7033323999494;None;7;0;0.9983691999223083;751.7033323999494;None;;;;;;;;3;;;;;;753.2532923999242;None;None;None;[];753.2532923999242;None;"['7', '7']";753.2532923999242;None;"[0.39233239996246994, 0.7928166000638157]";;;S11957;2023_Jan_09_1622;VideoMask;2021.1.2;120.0421108136308;
1.0;f;021_o_f_h_a.jpg;happy;9.0;happy_12.1ns.avi;happy;9.0;congruent;120.0;150.0;132.59080005900228;h_h;;;;;0;58;58;58;;;;;;;756.2533078000415;None;757.6029964999761;757.919781500008;759.1278309999034;759.144604699919;766.669575799955;None;9;0;0.6242271000519395;766.669575799955;None;;;;;;;;7;;;;;;768.2278281999752;None;None;None;[];768.2278281999752;None;"['9', '9']";768.2278281999752;None;"[0.601890099933371, 0.8977990997955203]";;;S11957;2023_Jan_09_1622;VideoMask;2021.1.2;120.0421108136308;
3.0;m;013_y_m_s_a.jpg;sad;7.0;happy_56.2ns.avi;happy;9.0;incongruent;130.0;150.0;163.39234110935848;s_h;;;;;0;59;59;59;;;;;;;771.2364767000545;None;772.8359387000091;773.152603500057;774.344151499914;774.3608854000922;779.3108345000073;None;9;0;1.2711090000811964;779.3108345000073;None;;;;;;;;6;;;;;;780.8607568000443;None;None;None;[];780.8607568000443;None;['9'];780.8607568000443;None;[1.5771866000723094];;;S11957;2023_Jan_09_1622;VideoMask;2021.1.2;120.0421108136308;
;;;;;;;;;;;;;;;;;;;;;;;;;;;;;;;;;;;;;;;;;;;;;;;;;;;;;;;;;;;;;;;;783.8611610999797;None;;;;;;
