primePerson;primeGender;prime;primeEmotion;corrAnsPrime;target;targetEmotion;corrAnsTar;Cond;ID_Primer;ID_Target;JitterTime;Condition;example.thisRepN;example.thisTrialN;example.thisN;example.thisIndex;study.thisRepN;study.thisTrialN;study.thisN;study.thisIndex;MR_trigger_time;MR_trigger_number;text_intro.started;text_intro.stopped;text_probe.started;text_probe.stopped;polygon_ISI.started;polygon_ISI.stopped;polygon.started;polygon.stopped;primerImage.started;primerImage.stopped;response.started;response.stopped;key_resp.keys;key_resp.corr;key_resp.started;key_resp.stopped;slider_Text.started;slider_Text.stopped;slider_ex.response;slider_ex.rt;slider_ex.history;slider_ex.started;slider_ex.stopped;Rating;slider_resp_response.keys;slider_resp_response.rt;slider_resp_response.started;slider_resp_response.stopped;text_start.started;text_start.stopped;text_slider.started;text_slider.stopped;slider_stud.response;slider_stud.rt;slider_stud.history;slider_stud.started;slider_stud.stopped;slider_resp_study.keys;slider_resp_study.rt;slider_resp_study.started;slider_resp_study.stopped;key_resp.rt;text_ende.started;text_ende.stopped;participant;date;expName;psychopyVersion;frameRate;
1111;m;1111_m_m_h_a.jpg;happy;9;example_30.4ns.avi;neutral;7;incongruent;120.0;170.0;189.5874364012288;;0;0;0;0;;;;;23.17748539999593;1;23.263641700032167;25.263681899989024;25.263681899989024;None;27.297627400024794;None;29.546874099993147;29.87178909999784;31.02173010003753;31.038265999988653;35.338328000041656;None;None;0;35.338328000041656;None;36.90499930002261;None;None;None;[];36.90499930002261;None;6;['9'];[1.3071230999194086];36.90499930002261;None;;;;;;;;;;;;;;;;;S11829;2022_Oct_28_1613;VideoMask;2021.1.2;119.94952524642753;
1113;f;1113_y_f_s_a.jpg;sad;7;example_30.3ns.avi;neutral;7;incongruent;130.0;170.0;229.02432995836998;;0;1;1;1;;;;;;;;;;;39.88823460007552;None;42.01308140007313;42.329768900061026;43.47142439999152;43.48844880005345;45.462922399980016;None;None;0;45.462922399980016;None;47.012926000053994;None;None;None;[];47.012926000053994;None;7;"['9', '9']";"[1.5990202999673784, 2.871132200001739]";47.012926000053994;None;;;;;;;;;;;;;;;;;S11829;2022_Oct_28_1613;VideoMask;2021.1.2;119.94952524642753;
9.0;f;019_m_f_h_a.jpg;happy;9.0;sad_115.1.wmv;sad;7.0;incongruent;120.0;160.0;128.09063432376465;h_s;;;;;0;0;0;0;;;;;;;51.046067200019024;None;52.32102340005804;52.63772490003612;53.77090030000545;53.78771489998326;55.77115809998941;None;None;0;55.77115809998941;None;;;;;;;;2;;;;;50.012820700067095;None;57.43765330000315;None;None;None;[];57.43765330000315;None;"['7', '7', '7', '7', '7', '7']";"[0.5423593999585137, 0.8461481999838725, 1.110314300050959, 1.5661778999492526, 1.894248199998401, 2.5022557999473065]";57.43765330000315;None;;;;S11829;2022_Oct_28_1613;VideoMask;2021.1.2;119.94952524642753;
3.0;m;033_o_m_s_a.jpg;sad;7.0;sad_94.2ns.avi;sad;7.0;congruent;130.0;160.0;182.29120173647655;s_s;;;;;0;1;1;1;;;;;;;60.437547000008635;None;62.1707546999678;62.48740620003082;63.645849899970926;63.66245689999778;66.31243569997605;None;None;0;66.31243569997605;None;;;;;;;;2;;;;;;;67.87046840006951;None;None;None;[];67.87046840006951;None;"['7', '7', '7']";"[0.5657514999620616, 0.9654798998963088, 1.3414180999388918]";67.87046840006951;None;;;;S11829;2022_Oct_28_1613;VideoMask;2021.1.2;119.94952524642753;
8.0;m;008_y_m_h_a.jpg;happy;9.0;happy_26.1ns.avi;happy;9.0;congruent;120.0;150.0;155.9437854594882;h_h;;;;;0;2;2;2;;;;;;;70.87056449998636;None;72.37036190007348;72.68709340004716;73.85378780006431;73.87044359999709;75.81212520005647;None;None;0;75.81212520005647;None;;;;;;;;9;;;;;;;77.36185850005131;None;None;None;[];77.36185850005131;None;"['9', '9', '9', '9']";"[0.37007740000262856, 0.9539971000049263, 1.2498925999971107, 1.5700773999560624]";77.36185850005131;None;;;;S11829;2022_Oct_28_1613;VideoMask;2021.1.2;119.94952524642753;
0.0;f;040_y_f_h_a.jpg;happy;9.0;sad_138.1.wmv;sad;7.0;incongruent;120.0;160.0;133.99071306426532;h_s;;;;;0;3;3;3;;;;;;;80.36190959997475;None;81.68686470005196;82.00352270004805;83.12860290007666;83.145155300037;85.13678830000572;None;None;0;85.13678830000572;None;;;;;;;;3;;;;;;;86.68676229997072;None;None;None;[];86.68676229997072;None;"['7', '7']";"[0.477036299998872, 1.2213901000795886]";86.68676229997072;None;;;;S11829;2022_Oct_28_1613;VideoMask;2021.1.2;119.94952524642753;
8.0;f;028_y_f_s_a.jpg;sad;7.0;sad_64.2ns.avi;sad;7.0;congruent;130.0;160.0;229.88540597086478;s_s;;;;;0;4;4;4;;;;;;;89.69501719996333;None;91.90318310004659;92.2199148000218;93.40309270005673;93.41984550002962;104.35294220002834;None;None;0;104.35294220002834;None;;;;;;;;2;;;;;;;105.9028378999792;None;None;None;[];105.9028378999792;None;"['7', '7', '7']";"[0.4451145000057295, 0.7170488000847399, 0.9809381000231951]";105.9028378999792;None;;;;S11829;2022_Oct_28_1613;VideoMask;2021.1.2;119.94952524642753;
7.0;m;027_o_m_s_a.jpg;sad;7.0;sad_10.4ns.avi;sad;7.0;congruent;130.0;160.0;185.20129417468752;s_s;;;;;0;5;5;5;;;;;;;108.91120910004247;None;110.66919649997726;110.9858861999819;112.1613375999732;112.185833800002;115.28582360001747;None;7;0;115.28582360001747;None;;;;;;;;1;;;;;;;116.83573940000497;None;None;None;[];116.83573940000497;None;"['7', '7', '7', '7', '7', '7']";"[0.28824520006310195, 0.5281193000264466, 0.7522066000383347, 1.1601239000447094, 1.4241857000160962, 1.7121189000317827]";116.83573940000497;None;0.5901449000230059;;;S11829;2022_Oct_28_1613;VideoMask;2021.1.2;119.94952524642753;
2.0;f;012_o_f_s_a.jpg;sad;7.0;sad_7.5ns.avi;sad;7.0;congruent;130.0;160.0;220.27842655424388;s_s;;;;;0;6;6;6;;;;;;;119.84406180004589;None;121.87714170000982;122.19388000003528;123.40201299998444;123.41874980006833;126.11907770007383;None;None;0;126.11907770007383;None;;;;;;;;2;;;;;;;127.71028360002674;None;None;None;[];127.71028360002674;None;"['7', '7', '7']";"[0.3580867999698967, 0.8536718999966979, 1.2302030000137165]";127.71028360002674;None;;;;S11829;2022_Oct_28_1613;VideoMask;2021.1.2;119.94952524642753;
2.0;f;012_o_f_h_a.jpg;happy;9.0;happy_27.1ns.avi;happy;9.0;congruent;120.0;150.0;146.44967055810616;h_h;;;;;0;7;7;7;;;;;;;130.7187649999978;None;132.14346549997572;132.46021140005905;133.63508939999156;133.65175429999363;136.0852221000241;None;None;0;136.0852221000241;None;;;;;;;;9;;;;;;;137.63515740004368;None;None;None;[];137.63515740004368;None;"['9', '9', '9', '9', '9', '9']";"[0.3928758999099955, 0.7450663999188691, 1.0646526999771595, 1.2806483999593183, 1.5926935999887064, 2.0327285999665037]";137.63515740004368;None;;;;S11829;2022_Oct_28_1613;VideoMask;2021.1.2;119.94952524642753;
8.0;f;028_y_f_h_a.jpg;happy;9.0;sad_119.1.wmv;sad;7.0;incongruent;120.0;160.0;148.71526953572538;h_s;;;;;0;8;8;8;;;;;;;140.64336290000938;None;142.09325230005197;142.40989490004722;143.5516074000625;143.5682604999747;145.60985640005674;None;None;0;145.60985640005674;None;;;;;;;;2;;;;;;;147.15985589998309;None;None;None;[];147.15985589998309;None;"['7', '7', '7']";"[0.4360994000453502, 0.7641099999891594, 1.0764526999555528]";147.15985589998309;None;;;;S11829;2022_Oct_28_1613;VideoMask;2021.1.2;119.94952524642753;
6.0;m;016_y_m_s_a.jpg;sad;7.0;happy_60.4ns.avi;happy;9.0;incongruent;130.0;150.0;126.02367393611817;s_h;;;;;0;9;9;9;;;;;;;150.15970339998603;None;151.44295000005513;151.7596104000695;153.0095923000481;153.02626710000914;158.6843839000212;None;None;0;158.6843839000212;None;;;;;;;;7;;;;;;;160.23424260003958;None;None;None;[];160.23424260003958;None;"['9', '9']";"[0.39376160001847893, 0.7937677999725565]";160.23424260003958;None;;;;S11829;2022_Oct_28_1613;VideoMask;2021.1.2;119.94952524642753;
9.0;f;019_m_f_s_a.jpg;sad;7.0;sad_8.4ns.avi;sad;7.0;congruent;130.0;160.0;171.6633093155257;s_s;;;;;0;10;10;10;;;;;;;163.2342965999851;None;164.91742429998703;165.23416330001783;166.4341328999726;166.45154410006944;174.52562460000627;None;None;0;174.52562460000627;None;;;;;;;;2;;;;;;;176.1672756000189;None;None;None;[];176.1672756000189;None;"['7', '7', '7', '7']";"[0.4608946000225842, 0.8127340000355616, 1.1725836000405252, 1.4366187000414357]";176.1672756000189;None;;;;S11829;2022_Oct_28_1613;VideoMask;2021.1.2;119.94952524642753;
4.0;m;004_o_m_h_a.jpg;happy;9.0;happy_1.1ns.avi;happy;9.0;congruent;120.0;150.0;203.50057144619865;h_h;;;;;0;11;11;11;;;;;;;179.17543619999196;None;181.191905100015;181.50874219997786;182.67533800005913;182.69184260000475;197.1250528000528;None;None;0;197.1250528000528;None;;;;;;;;6;;;;;;;198.6749065000331;None;None;None;[];198.6749065000331;None;"['9', '9']";"[0.5690198999363929, 1.2889255000045523]";198.6749065000331;None;;;;S11829;2022_Oct_28_1613;VideoMask;2021.1.2;119.94952524642753;
7.0;m;027_o_m_h_a.jpg;happy;9.0;happy_20.1ns.avi;happy;9.0;congruent;120.0;150.0;152.91127178874285;h_h;;;;;0;12;12;12;;;;;;;201.68328490003478;None;203.16634620004334;203.48295750003308;204.62472490000073;204.6413476000307;207.63297659996897;None;None;0;207.63297659996897;None;;;;;;;;8;;;;;;;209.182930400013;None;None;None;[];209.182930400013;None;"['9', '9', '9']";"[0.6932280999608338, 1.0209832999389619, 1.3250857000239193]";209.182930400013;None;;;;S11829;2022_Oct_28_1613;VideoMask;2021.1.2;119.94952524642753;
0.0;f;040_y_f_s_a.jpg;sad;7.0;sad_94.3ns.avi;sad;7.0;congruent;130.0;160.0;155.27414203894395;s_s;;;;;0;13;13;13;;;;;;;212.19108190003317;None;213.69099200004712;214.00765120005235;215.19906830007676;215.21586840006057;217.76604060002137;None;None;0;217.76604060002137;None;;;;;;;;1;;;;;;;219.43255050003063;None;None;None;[];219.43255050003063;None;"['7', '7', '7', '7']";"[0.3794257999397814, 0.7154891999671236, 1.0753435000078753, 1.347335199941881]";219.43255050003063;None;;;;S11829;2022_Oct_28_1613;VideoMask;2021.1.2;119.94952524642753;
0.0;f;030_o_f_s_a.jpg;sad;7.0;sad_68.1ns.avi;sad;7.0;congruent;130.0;160.0;158.9411396037211;s_s;;;;;0;14;14;14;;;;;;;222.44116479996592;None;223.99879430001602;224.31568500003777;225.52391190000344;225.5406947999727;232.87388389999978;None;7;0;232.87388389999978;None;;;;;;;;1;;;;;;;234.4235985999694;None;None;None;[];234.4235985999694;None;"['7', '7', '7', '7']";"[0.44435799994971603, 0.692350999917835, 0.9083476999076083, 1.116260499926284]";234.4235985999694;None;0.30608690006192774;;;S11829;2022_Oct_28_1613;VideoMask;2021.1.2;119.94952524642753;
0.0;f;030_o_f_h_a.jpg;happy;9.0;sad_127.1.wmv;sad;7.0;incongruent;120.0;160.0;180.59976631384873;h_s;;;;;0;15;15;15;;;;;;;237.4236169999931;None;239.14019740000367;239.45692430005874;240.58193210000172;240.5986348000588;242.59039849997498;None;None;0;242.59039849997498;None;;;;;;;;4;;;;;;;244.1482784000691;None;None;None;[];244.1482784000691;None;['7'];[0.42375709989573807];244.1482784000691;None;;;;S11829;2022_Oct_28_1613;VideoMask;2021.1.2;119.94952524642753;
8.0;m;008_y_m_s_a.jpg;sad;7.0;happy_133.3.wmv;happy;9.0;incongruent;130.0;150.0;152.577966552593;s_h;;;;;0;16;16;16;;;;;;;247.14838749996852;None;248.6315292000072;248.94826750003267;250.07331850007176;250.08988840004895;252.0814992999658;None;None;0;252.0814992999658;None;;;;;;;;6;;;;;;;253.63130560005084;None;None;None;[];253.63130560005084;None;['9'];[1.5248967999359593];253.63130560005084;None;;;;S11829;2022_Oct_28_1613;VideoMask;2021.1.2;119.94952524642753;
3.0;m;033_o_m_h_a.jpg;happy;9.0;sad_128.1.wmv;sad;7.0;incongruent;120.0;160.0;171.0492454518585;h_s;;;;;0;17;17;17;;;;;;;256.63156580005307;None;258.2812189999968;258.59792750002816;259.73955719999503;259.7563041000394;261.74022859998513;None;None;0;261.74022859998513;None;;;;;;;;1;;;;;;;263.47285720007494;None;None;None;[];263.47285720007494;None;"['7', '7', '7', '7', '7']";"[0.4670539000071585, 0.7391341000329703, 1.123297500074841, 1.4191285000415519, 1.874960400047712]";263.47285720007494;None;;;;S11829;2022_Oct_28_1613;VideoMask;2021.1.2;119.94952524642753;
1.0;f;021_o_f_h_a.jpg;happy;9.0;sad_116.1.wmv;sad;7.0;incongruent;120.0;160.0;184.06847610053055;h_s;;;;;0;18;18;18;;;;;;;266.47275439999066;None;268.2225835999707;268.5392138999887;269.67267330002505;269.68927760003135;271.6725771999918;None;None;0;271.6725771999918;None;;;;;;;;4;;;;;;;273.22262690006755;None;None;None;[];273.22262690006755;None;"['9', '7', '7']";"[0.22925620002206415, 0.933530900045298, 1.2213975000195205]";273.22262690006755;None;;;;S11829;2022_Oct_28_1613;VideoMask;2021.1.2;119.94952524642753;
4.0;m;004_o_m_s_a.jpg;sad;7.0;happy_28.1ns.avi;happy;9.0;incongruent;130.0;150.0;157.40741103039684;s_h;;;;;0;19;19;19;;;;;;;276.2308702999726;None;277.7640577000566;278.08064070006367;279.25540680007543;279.2721365999896;283.6055756000569;None;None;0;283.6055756000569;None;;;;;;;;7;;;;;;;285.15555570006836;None;None;None;[];285.15555570006836;None;"['9', '9']";"[0.8404995000455528, 1.4164443999761716]";285.15555570006836;None;;;;S11829;2022_Oct_28_1613;VideoMask;2021.1.2;119.94952524642753;
8.0;f;028_y_f_s_a.jpg;sad;7.0;happy_122.3.wmv;happy;9.0;incongruent;130.0;150.0;171.8670540936116;s_h;;;;;0;20;20;20;;;;;;;288.1554046999663;None;289.80524929997046;290.12196220003534;291.2553368000081;291.271977800061;293.25523130001966;None;None;0;293.25523130001966;None;;;;;;;;9;;;;;;;294.80501340003684;None;None;None;[];294.80501340003684;None;"['9', '9', '9', '9']";"[0.383022699970752, 0.67884900001809, 0.9191278999205679, 1.751215299940668]";294.80501340003684;None;;;;S11829;2022_Oct_28_1613;VideoMask;2021.1.2;119.94952524642753;
8.0;m;008_y_m_s_a.jpg;sad;7.0;sad_6.5ns.avi;sad;7.0;congruent;130.0;160.0;170.39333839271438;s_s;;;;;0;21;21;21;;;;;;;297.8135839999886;None;299.45493800006807;299.77169460000005;300.94660470006056;300.9632973000407;305.92152269999497;None;None;0;305.92152269999497;None;;;;;;;;2;;;;;;;307.4712709999876;None;None;None;[];307.4712709999876;None;"['7', '7', '7']";"[0.4049297000747174, 0.7807748999912292, 1.876685000024736]";307.4712709999876;None;;;;S11829;2022_Oct_28_1613;VideoMask;2021.1.2;119.94952524642753;
8.0;f;028_y_f_h_a.jpg;happy;9.0;happy_23.1ns.avi;happy;9.0;congruent;120.0;150.0;225.70986890587952;h_h;;;;;0;22;22;22;;;;;;;310.47985390003305;None;312.57133379997686;312.88789170002565;314.02127570006996;314.03790410002694;318.5961836000206;None;None;0;318.5961836000206;None;;;;;;;;7;;;;;;;320.14583659998607;None;None;None;[];320.14583659998607;None;"['9', '9']";"[0.7780640000710264, 1.29034840001259]";320.14583659998607;None;;;;S11829;2022_Oct_28_1613;VideoMask;2021.1.2;119.94952524642753;
8.0;m;008_y_m_h_a.jpg;happy;9.0;sad_111.1.wmv;sad;7.0;incongruent;120.0;160.0;152.63076835312847;h_s;;;;;0;23;23;23;;;;;;;323.1542861000635;None;324.62911209999584;324.945818600012;326.0791921999771;326.09586630004924;328.0791726000607;None;None;0;328.0791726000607;None;;;;;;;;2;;;;;;;329.6457924999995;None;None;None;[];329.6457924999995;None;"['7', '7', '7']";"[0.34218420006800443, 0.7263280999613926, 1.1743463999591768]";329.6457924999995;None;;;;S11829;2022_Oct_28_1613;VideoMask;2021.1.2;119.94952524642753;
0.0;f;040_y_f_s_a.jpg;sad;7.0;sad_67.2ns.avi;sad;7.0;congruent;130.0;160.0;220.9892697323079;s_s;;;;;0;24;24;24;;;;;;;332.6540603999747;None;334.7457429000642;335.0621127000777;336.2954699000111;336.3121797000058;345.4369844000321;None;None;0;345.4369844000321;None;;;;;;;;2;;;;;;;346.97847249999177;None;None;None;[];346.97847249999177;None;"['7', '7', '7', '7']";"[0.9374853000044823, 1.2818413999630138, 1.5776453000726178, 2.0016008999664336]";346.97847249999177;None;;;;S11829;2022_Oct_28_1613;VideoMask;2021.1.2;119.94952524642753;
8.0;m;008_y_m_s_a.jpg;sad;7.0;happy_29.1ns.avi;happy;9.0;incongruent;130.0;150.0;120.0316142834122;s_h;;;;;0;25;25;25;;;;;;;349.98679660004564;None;351.2032462999923;351.52003490005154;352.6540163999889;352.6866222000681;355.34493969997857;None;9;0;355.34493969997857;None;;;;;;;;6;;;;;;;356.89491560007446;None;None;None;[];356.89491560007446;None;"['9', '9']";"[1.0932170000160113, 2.7651487999828532]";356.89491560007446;None;0.387126800022088;;;S11829;2022_Oct_28_1613;VideoMask;2021.1.2;119.94952524642753;
6.0;m;016_y_m_s_a.jpg;sad;7.0;sad_8.3ns.avi;sad;7.0;congruent;130.0;160.0;152.85371098242734;s_s;;;;;0;26;26;26;;;;;;;359.89505200006533;None;361.41144509997685;361.72802420007065;362.87785080005415;362.8945321000647;370.61947470007;None;None;0;370.61947470007;None;;;;;;;;3;;;;;;;372.1693918000674;None;None;None;[];372.1693918000674;None;"['7', '7', '7']";"[0.3867413999978453, 0.7786818000022322, 1.1545637999661267]";372.1693918000674;None;;;;S11829;2022_Oct_28_1613;VideoMask;2021.1.2;119.94952524642753;
6.0;m;016_y_m_h_a.jpg;happy;9.0;sad_114.1.wmv;sad;7.0;incongruent;120.0;160.0;136.20550699298644;h_s;;;;;0;27;27;27;;;;;;;375.17765850003343;None;376.52754879998975;376.8441900999751;377.96932270005345;377.9866502999794;379.97751630004495;None;None;0;379.97751630004495;None;;;;;;;;2;;;;;;;381.527297200053;None;None;None;[];381.527297200053;None;"['7', '7', '7', '7', '7', '7']";"[0.2608449999243021, 0.5565901999361813, 0.8606704999692738, 1.0686720999656245, 1.3167413999326527, 1.7488378999987617]";381.527297200053;None;;;;S11829;2022_Oct_28_1613;VideoMask;2021.1.2;119.94952524642753;
7.0;m;027_o_m_s_a.jpg;sad;7.0;happy_117.3.wmv;happy;9.0;incongruent;130.0;150.0;215.61964028550614;s_h;;;;;0;28;28;28;;;;;;;384.5274107999867;None;386.5438462999882;386.86063070001546;387.9856612000149;388.0022599999793;389.99393710005097;None;9;0;389.99393710005097;None;;;;;;;;8;;;;;;;391.5438005999895;None;None;None;[];391.5438005999895;None;"['9', '9', '9']";"[0.788230000063777, 1.1321869000094011, 2.5164870000444353]";391.5438005999895;None;0.5300267999991775;;;S11829;2022_Oct_28_1613;VideoMask;2021.1.2;119.94952524642753;
6.0;m;016_y_m_h_a.jpg;happy;9.0;happy_9.2ns.avi;happy;9.0;congruent;120.0;150.0;130.52042428082717;h_h;;;;;0;29;29;29;;;;;;;394.543761500041;None;395.87704100005794;396.1935688999947;397.3602347000269;397.3769585000118;403.2519757000264;None;None;0;403.2519757000264;None;;;;;;;;6;;;;;;;404.8018006000202;None;None;None;[];404.8018006000202;None;['9'];[0.8983734999783337];404.8018006000202;None;;;;S11829;2022_Oct_28_1613;VideoMask;2021.1.2;119.94952524642753;
0.0;f;040_y_f_s_a.jpg;sad;7.0;happy_127.3.wmv;happy;9.0;incongruent;130.0;150.0;131.7195455720239;s_h;;;;;0;30;30;30;;;;;;;407.8016803000355;None;409.1181804999942;409.43479179998394;410.55997750000097;410.57655470003374;412.6515669999644;None;None;0;412.6515669999644;None;;;;;;;;7;;;;;;;414.20130209997296;None;None;None;[];414.20130209997296;None;"['9', '9']";"[0.29881900001782924, 0.7306401000823826]";414.20130209997296;None;;;;S11829;2022_Oct_28_1613;VideoMask;2021.1.2;119.94952524642753;
0.0;f;030_o_f_s_a.jpg;sad;7.0;happy_125.3.wmv;happy;9.0;incongruent;130.0;150.0;220.51454909128134;s_h;;;;;0;31;31;31;;;;;;;417.2013701000251;None;419.25951900007203;419.57618029997684;420.71857580007054;420.7510109000141;422.7095101000741;None;9;0;422.7095101000741;None;;;;;;;;7;;;;;;;424.2511474000057;None;None;None;[];424.2511474000057;None;"['9', '9', '9']";"[0.5689240000210702, 0.9688457000302151, 1.464964000042528]";424.2511474000057;None;0.43080339999869466;;;S11829;2022_Oct_28_1613;VideoMask;2021.1.2;119.94952524642753;
0.0;f;030_o_f_s_a.jpg;sad;7.0;sad_64.3ns.avi;sad;7.0;congruent;130.0;160.0;165.78667874766072;s_s;;;;;0;32;32;32;;;;;;;427.25106530007906;None;428.8593540000729;429.1759387999773;430.3257982999785;430.3425883000018;435.3092557999771;None;None;0;435.3092557999771;None;;;;;;;;3;;;;;;;436.85889879998285;None;None;None;[];436.85889879998285;None;"['7', '7', '7']";"[0.5852065000217408, 1.0092595000751317, 1.745215000002645]";436.85889879998285;None;;;;S11829;2022_Oct_28_1613;VideoMask;2021.1.2;119.94952524642753;
3.0;m;013_y_m_s_a.jpg;sad;7.0;sad_7.7ns.avi;sad;7.0;congruent;130.0;160.0;196.24182255763262;s_s;;;;;0;33;33;33;;;;;;;439.8674969000276;None;441.7504698999692;442.06716340000276;443.25868690002244;443.27545060007833;449.20036740007345;None;None;0;449.20036740007345;None;;;;;;;;1;;;;;;;450.75031550007407;None;None;None;[];450.75031550007407;None;"['7', '7', '7', '7', '7', '7', '7', '7', '7']";"[0.701832800055854, 0.9738305000355467, 1.2456425999989733, 1.4696180000901222, 1.6697431000648066, 1.877773700049147, 2.1176657000323758, 2.485607600072399, 2.9338728000875562]";450.75031550007407;None;;;;S11829;2022_Oct_28_1613;VideoMask;2021.1.2;119.94952524642753;
3.0;m;013_y_m_h_a.jpg;happy;9.0;happy_9.1ns.avi;happy;9.0;congruent;120.0;150.0;165.1890303600433;h_h;;;;;0;34;34;34;;;;;;;453.75021199998446;None;455.35854869999457;455.6750785000622;456.80843890004326;456.82515569997486;460.0331085000653;None;None;0;460.0331085000653;None;;;;;;;;7;;;;;;;461.58312219998334;None;None;None;[];461.58312219998334;None;"['9', '9']";"[0.48491500003729016, 0.9489959999918938]";461.58312219998334;None;;;;S11829;2022_Oct_28_1613;VideoMask;2021.1.2;119.94952524642753;
4.0;m;004_o_m_h_a.jpg;happy;9.0;sad_95.1ns.avi;sad;7.0;incongruent;120.0;160.0;152.68270002069931;h_s;;;;;0;35;35;35;;;;;;;464.59167930006515;None;466.13312680006493;466.4497386000585;467.58298920001835;467.60004879999906;476.37452920002397;None;None;0;476.37452920002397;None;;;;;;;;1;;;;;;;477.9826423000777;None;None;None;[];477.9826423000777;None;"['7', '7', '7', '7']";"[0.6455966000212356, 1.2134334000293165, 1.9333951000589877, 2.2614387000212446]";477.9826423000777;None;;;;S11829;2022_Oct_28_1613;VideoMask;2021.1.2;119.94952524642753;
3.0;m;013_y_m_h_a.jpg;happy;9.0;sad_113.2.wmv;sad;7.0;incongruent;120.0;160.0;217.4973891947951;h_s;;;;;0;36;36;36;;;;;;;480.98264609999023;None;483.1492915999843;483.4657723000273;484.5993157000048;484.61591549997684;486.59916009998415;None;None;0;486.59916009998415;None;;;;;;;;5;;;;;;;488.1491672999691;None;None;None;[];488.1491672999691;None;None;;488.1491672999691;None;;;;S11829;2022_Oct_28_1613;VideoMask;2021.1.2;119.94952524642753;
4.0;m;004_o_m_h_a.jpg;happy;9.0;happy_25.1ns.avi;happy;9.0;congruent;120.0;150.0;216.63044503818386;h_h;;;;;0;37;37;37;;;;;;;491.16557459998876;None;493.5989201000193;493.91553480003495;495.04886320000514;495.06590729998425;498.7406110999873;None;None;0;498.7406110999873;None;;;;;;;;9;;;;;;;500.29855840001255;None;None;None;[];500.29855840001255;None;"['9', '9', '9', '9', '9', '9']";"[0.44956009997986257, 0.7934521000133827, 1.153514500008896, 1.449442800018005, 1.6974473999580368, 1.8814055999973789]";500.29855840001255;None;;;;S11829;2022_Oct_28_1613;VideoMask;2021.1.2;119.94952524642753;
4.0;m;004_o_m_s_a.jpg;sad;7.0;happy_131.2.wmv;happy;9.0;incongruent;130.0;150.0;181.38407540847405;s_h;;;;;0;38;38;38;;;;;;;503.29880910005886;None;505.07343830005266;505.3901890000561;506.56507530005183;506.5819010999985;508.5234284000471;None;9;0;508.5234284000471;None;;;;;;;;6;;;;;;;510.0901113;None;None;None;[];510.0901113;None;['9'];[1.1460781000787392];510.0901113;None;0.4247119000647217;;;S11829;2022_Oct_28_1613;VideoMask;2021.1.2;119.94952524642753;
0.0;f;040_y_f_h_a.jpg;happy;9.0;happy_24.3ns.avi;happy;9.0;congruent;120.0;150.0;213.25460698950434;h_h;;;;;0;39;39;39;;;;;;;513.0900215000147;None;515.1982836000388;515.5148598999949;516.6649427000666;516.6815255000256;518.5731446000282;None;None;0;518.5731446000282;None;;;;;;;;7;;;;;;;520.1229105000384;None;None;None;[];520.1229105000384;None;"['9', '9', '9']";"[0.4573924000142142, 0.9533310999395326, 1.5052253999747336]";520.1229105000384;None;;;;S11829;2022_Oct_28_1613;VideoMask;2021.1.2;119.94952524642753;
2.0;f;012_o_f_s_a.jpg;sad;7.0;happy_139.1.wmv;happy;9.0;incongruent;130.0;150.0;162.31500468041804;s_h;;;;;0;40;40;40;;;;;;;523.1230566999875;None;524.7563397000777;525.0730958000058;526.2151100999909;526.2313678000355;528.206312000053;None;None;0;528.206312000053;None;;;;;;;;9;;;;;;;529.7561699000653;None;None;None;[];529.7561699000653;None;"['9', '9', '9', '9']";"[0.43202059995383024, 0.8159096000017598, 1.119851699913852, 1.5757922999328002]";529.7561699000653;None;;;;S11829;2022_Oct_28_1613;VideoMask;2021.1.2;119.94952524642753;
0.0;f;030_o_f_h_a.jpg;happy;9.0;happy_24.1ns.avi;happy;9.0;congruent;120.0;150.0;168.36256624020774;h_h;;;;;0;41;41;41;;;;;;;532.7559950000141;None;534.6893399000401;535.005914599984;536.1475127000595;536.1641788000707;539.4642901000334;None;None;0;539.4642901000334;None;;;;;;;;9;;;;;;;541.0139312000247;None;None;None;[];541.0139312000247;None;"['9', '9', '9', '9']";"[0.32609869993757457, 0.5902929999865592, 0.8141581999370828, 1.2061820999952033]";541.0139312000247;None;;;;S11829;2022_Oct_28_1613;VideoMask;2021.1.2;119.94952524642753;
2.0;f;012_o_f_h_a.jpg;happy;9.0;sad_113.1.wmv;sad;7.0;incongruent;120.0;160.0;177.44551734737394;h_s;;;;;0;42;42;42;;;;;;;544.0141118000029;None;545.7305472000735;546.0472364000743;547.1805354000535;547.1973313000053;549.1805269999895;None;None;0;549.1805269999895;None;;;;;;;;5;;;;;;;550.7303449000465;None;None;None;[];550.7303449000465;None;None;;550.7303449000465;None;;;;S11829;2022_Oct_28_1613;VideoMask;2021.1.2;119.94952524642753;
3.0;m;033_o_m_s_a.jpg;sad;7.0;sad_64.5ns.avi;sad;7.0;congruent;130.0;160.0;130.55717223801247;s_s;;;;;0;43;43;43;;;;;;;553.7637009000173;None;555.6719952999847;555.9887010999955;557.138650799985;557.1553375000367;563.7133725000313;None;7;0;563.7133725000313;None;;;;;;;;1;;;;;;;565.2631580000743;None;None;None;[];565.2631580000743;None;"['7', '7', '7', '7']";"[0.3090486000292003, 0.5328724000137299, 0.7249344999436289, 0.9169188999803737]";565.2631580000743;None;0.8748265999602154;;;S11829;2022_Oct_28_1613;VideoMask;2021.1.2;119.94952524642753;
7.0;m;027_o_m_h_a.jpg;happy;9.0;sad_117.1.wmv;sad;7.0;incongruent;120.0;160.0;181.28665202824095;h_s;;;;;0;44;44;44;;;;;;;568.2633927999996;None;570.0381279999856;570.3548164999811;571.4887819000287;571.5132864000043;573.5048208000371;None;None;0;573.5048208000371;None;;;;;;;;4;;;;;;;575.0547753999708;None;None;None;[];575.0547753999708;None;['7'];[0.4056015000678599];575.0547753999708;None;;;;S11829;2022_Oct_28_1613;VideoMask;2021.1.2;119.94952524642753;
3.0;m;033_o_m_s_a.jpg;sad;7.0;happy_126.3.wmv;happy;9.0;incongruent;130.0;150.0;198.85252030535366;s_h;;;;;0;45;45;45;;;;;;;578.0546277000103;None;580.0046122999629;580.3211669999873;581.4628155999817;581.479525999981;583.4634825000539;None;None;0;583.4634825000539;None;;;;;;;;6;;;;;;;585.1628310000524;None;None;None;[];585.1628310000524;None;['9'];[0.537302500102669];585.1628310000524;None;;;;S11829;2022_Oct_28_1613;VideoMask;2021.1.2;119.94952524642753;
3.0;m;033_o_m_h_a.jpg;happy;9.0;sad_136.1.wmv;sad;7.0;incongruent;120.0;160.0;176.97002883463455;h_s;;;;;0;46;46;46;;;;;;;588.1710675000213;None;589.879192900029;590.19577510003;591.3209521999815;591.3375229999656;593.3290800000541;None;None;0;593.3290800000541;None;;;;;;;;3;;;;;;;594.8955895999679;None;None;None;[];594.8955895999679;None;"['7', '7']";"[0.34045150002930313, 0.612549600074999]";594.8955895999679;None;;;;S11829;2022_Oct_28_1613;VideoMask;2021.1.2;119.94952524642753;
9.0;f;019_m_f_h_a.jpg;happy;9.0;happy_10.1ns.avi;happy;9.0;congruent;120.0;150.0;157.2463435658512;h_h;;;;;0;47;47;47;;;;;;;597.8956545999972;None;599.970608600066;600.2872644000454;601.4205763000064;601.4379426999949;608.870466500055;None;None;0;608.870466500055;None;;;;;;;;7;;;;;;;610.4201063000364;None;None;None;[];610.4201063000364;None;"['9', '9']";"[0.2720614999998361, 0.7279198999749497]";610.4201063000364;None;;;;S11829;2022_Oct_28_1613;VideoMask;2021.1.2;119.94952524642753;
2.0;f;012_o_f_h_a.jpg;happy;9.0;happy_2.2ns.avi;happy;9.0;congruent;120.0;150.0;206.34800317295262;h_h;;;;;0;48;48;48;;;;;;;613.4285545999883;None;615.4032587000402;615.7200604999671;616.8870270000771;616.90325079998;629.0532457999652;None;None;0;629.0532457999652;None;;;;;;;;7;;;;;;;630.6195065999636;None;None;None;[];630.6195065999636;None;"['9', '9', '9']";"[0.3767892000032589, 0.9445854999357834, 1.4007087999489158]";630.6195065999636;None;;;;S11829;2022_Oct_28_1613;VideoMask;2021.1.2;119.94952524642753;
3.0;m;033_o_m_h_a.jpg;happy;9.0;happy_24.2ns.avi;happy;9.0;congruent;120.0;150.0;167.9423847659953;h_h;;;;;0;49;49;49;;;;;;;633.6280860999832;None;635.6943850000389;636.011089400039;637.1444646000164;637.1611139000161;640.8694630999817;None;None;0;640.8694630999817;None;;;;;;;;8;;;;;;;642.4191090000095;None;None;None;[];642.4191090000095;None;"['9', '9', '9', '9']";"[0.49745529994834214, 0.7849941999884322, 1.2170239000115544, 1.817338600056246]";642.4191090000095;None;;;;S11829;2022_Oct_28_1613;VideoMask;2021.1.2;119.94952524642753;
1.0;f;021_o_f_s_a.jpg;sad;7.0;happy_61.2ns.avi;happy;9.0;incongruent;130.0;150.0;210.94664004826666;s_h;;;;;0;50;50;50;;;;;;;645.4275199000258;None;647.9358124000719;648.2523382999934;649.3861306000035;649.410645200056;653.9106364999898;None;None;0;653.9106364999898;None;;;;;;;;8;;;;;;;655.4605645000702;None;None;None;[];655.4605645000702;None;"['9', '9', '9', '9']";"[0.45571629994083196, 0.7514988998882473, 1.183909099898301, 1.8634248999878764]";655.4605645000702;None;;;;S11829;2022_Oct_28_1613;VideoMask;2021.1.2;119.94952524642753;
4.0;m;004_o_m_s_a.jpg;sad;7.0;sad_2.4ns.avi;sad;7.0;congruent;130.0;160.0;153.02079367163634;s_s;;;;;0;51;51;51;;;;;;;658.4605531999841;None;660.0437670999672;660.360324600013;661.5437149000354;661.5603172000265;669.460252400022;None;None;0;669.460252400022;None;;;;;;;;3;;;;;;;671.0182289000368;None;None;None;[];671.0182289000368;None;"['7', '7']";"[0.47408099996391684, 0.834071799996309]";671.0182289000368;None;;;;S11829;2022_Oct_28_1613;VideoMask;2021.1.2;119.94952524642753;
8.0;m;008_y_m_h_a.jpg;happy;9.0;happy_1.2ns.avi;happy;9.0;congruent;120.0;150.0;210.98946429383824;h_h;;;;;0;52;52;52;;;;;;;674.0266741999658;None;676.5930284999777;676.9098364000674;678.1515152000356;678.1681763000088;690.8343506000238;None;None;0;690.8343506000238;None;;;;;;;;8;;;;;;;692.3843274000101;None;None;None;[];692.3843274000101;None;"['9', '9', '9', '9']";"[0.5558515000157058, 1.0196942000184208, 1.516028800047934, 2.219974600011483]";692.3843274000101;None;;;;S11829;2022_Oct_28_1613;VideoMask;2021.1.2;119.94952524642753;
2.0;f;012_o_f_s_a.jpg;sad;7.0;happy_52.2ns.avi;happy;9.0;incongruent;130.0;150.0;172.57202848318138;s_h;;;;;0;53;53;53;;;;;;;695.3843057000777;None;697.2009281000355;697.5175038999878;698.7008634000085;698.7175591000123;702.2007444000337;None;None;0;702.2007444000337;None;;;;;;;;7;;;;;;;703.7505279000616;None;None;None;[];703.7505279000616;None;"['9', '9']";"[0.9898335000034422, 1.4135642999317497]";703.7505279000616;None;;;;S11829;2022_Oct_28_1613;VideoMask;2021.1.2;119.94952524642753;
9.0;f;019_m_f_s_a.jpg;sad;7.0;happy_61.1ns.avi;happy;9.0;incongruent;130.0;150.0;181.3003220572762;s_h;;;;;0;54;54;54;;;;;;;706.7507736000698;None;709.2255556000164;709.5421093000332;710.7008958000224;710.7261435000692;718.0671253000619;None;9;0;718.0671253000619;None;;;;;;;;7;;;;;;;719.6251978999935;None;None;None;[];719.6251978999935;None;"['9', '9']";"[0.658907400094904, 0.9148373000789434]";719.6251978999935;None;0.8329368000850081;;;S11829;2022_Oct_28_1613;VideoMask;2021.1.2;119.94952524642753;
0.0;f;030_o_f_h_a.jpg;happy;9.0;sad_133.1.wmv;sad;7.0;incongruent;120.0;160.0;198.86251500867985;h_s;;;;;0;55;55;55;;;;;;;722.6252866999712;None;724.5332420000341;724.849965200061;725.9749945000513;725.9915927000111;727.9831788999727;None;None;0;727.9831788999727;None;;;;;;;;3;;;;;;;729.5330454000505;None;None;None;[];729.5330454000505;None;"['7', '7', '7']";"[0.535130099975504, 0.8791335999267176, 1.5355578999733552]";729.5330454000505;None;;;;S11829;2022_Oct_28_1613;VideoMask;2021.1.2;119.94952524642753;
0.0;f;040_y_f_h_a.jpg;happy;9.0;sad_128.2.wmv;sad;7.0;incongruent;120.0;160.0;206.10005857915363;h_s;;;;;0;56;56;56;;;;;;;732.5332328999648;None;734.5162427000469;734.8330235000467;735.9744366999948;735.9913419999648;737.9746505999938;None;None;0;737.9746505999938;None;;;;;;;;3;;;;;;;739.5244362000376;None;None;None;[];739.5244362000376;None;"['7', '7']";"[0.559860699926503, 1.0878343000076711]";739.5244362000376;None;;;;S11829;2022_Oct_28_1613;VideoMask;2021.1.2;119.94952524642753;
1.0;f;021_o_f_s_a.jpg;sad;7.0;sad_9.5ns.avi;sad;7.0;congruent;130.0;160.0;206.16642757875042;s_s;;;;;0;57;57;57;;;;;;;742.5245192999719;None;744.4744267000351;744.7910368000157;745.9324312000535;745.9493532000342;751.6491613000399;None;None;0;751.6491613000399;None;;;;;;;;2;;;;;;;753.1906336999964;None;None;None;[];753.1906336999964;None;"['7', '7', '7']";"[0.461557500064373, 0.7414294000482187, 0.9574821999995038]";753.1906336999964;None;;;;S11829;2022_Oct_28_1613;VideoMask;2021.1.2;119.94952524642753;
1.0;f;021_o_f_h_a.jpg;happy;9.0;happy_12.1ns.avi;happy;9.0;congruent;120.0;150.0;132.59080005900228;h_h;;;;;0;58;58;58;;;;;;;756.2074848000193;None;757.9323250000598;758.2489904999966;759.4073029999854;759.423912600032;766.9987154999981;None;None;0;766.9987154999981;None;;;;;;;;7;;;;;;;768.6068130000494;None;None;None;[];768.6068130000494;None;"['9', '9']";"[1.733313399949111, 2.16559300001245]";768.6068130000494;None;;;;S11829;2022_Oct_28_1613;VideoMask;2021.1.2;119.94952524642753;
3.0;m;013_y_m_s_a.jpg;sad;7.0;happy_56.2ns.avi;happy;9.0;incongruent;130.0;150.0;163.39234110935848;s_h;;;;;0;59;59;59;;;;;;;771.615302799968;None;773.5651255999692;773.8817922000308;775.0820651999675;775.1065635000123;780.0400870000012;None;9;0;780.0400870000012;None;;;;;;;;9;;;;;;;781.5899378000759;None;None;None;[];781.5899378000759;None;"['9', '9', '9', '9']";"[0.4064134999644011, 0.6461691999575123, 0.8462135000154376, 1.0221280999248847]";781.5899378000759;None;1.2919637000886723;;;S11829;2022_Oct_28_1613;VideoMask;2021.1.2;119.94952524642753;
;;;;;;;;;;;;;;;;;;;;;;;;;;;;;;;;;;;;;;;;;;;;;;;;;;;;;;;;;;;;;;;;;784.5982174000237;None;;;;;;
