primePerson;primeGender;prime;primeEmotion;corrAnsPrime;target;targetEmotion;corrAnsTar;Cond;ID_Primer;ID_Target;JitterTime;Condition;example.thisRepN;example.thisTrialN;example.thisN;example.thisIndex;study.thisRepN;study.thisTrialN;study.thisN;study.thisIndex;MR_trigger_time;MR_trigger_number;text_intro.started;text_intro.stopped;text_probe.started;text_probe.stopped;polygon_ISI.started;polygon_ISI.stopped;polygon.started;polygon.stopped;primerImage.started;primerImage.stopped;response.started;response.stopped;key_resp.keys;key_resp.corr;key_resp.rt;key_resp.started;key_resp.stopped;slider_Text.started;slider_Text.stopped;slider_ex.response;slider_ex.rt;slider_ex.history;slider_ex.started;slider_ex.stopped;Rating;slider_resp_response.keys;slider_resp_response.started;slider_resp_response.stopped;text_start.started;text_start.stopped;text_slider.started;text_slider.stopped;slider_stud.response;slider_stud.rt;slider_stud.history;slider_stud.started;slider_stud.stopped;slider_resp_study.keys;slider_resp_study.rt;slider_resp_study.started;slider_resp_study.stopped;text_ende.started;text_ende.stopped;participant;date;expName;psychopyVersion;frameRate;
1111;m;1111_m_m_h_a.jpg;happy;9;example_30.4ns.avi;neutral;7;incongruent;120.0;170.0;189.5874364012288;;0;0;0;0;;;;;31.754102900000362;1;31.831561400000282;33.83184919999985;33.83184919999985;None;35.86507400000119;None;37.79858080000122;38.123403900000994;39.28989340000044;39.306589600000734;43.58975570000075;None;8;0;1.2659910999991553;43.58975570000075;None;45.18142369999987;None;None;None;[];45.18142369999987;None;5;None;45.18142369999987;None;;;;;;;;;;;;;;;;S11597;2022_Jul_20_1726;VideoMask;2021.1.2;120.03288901136962;
1113;f;1113_y_f_s_a.jpg;sad;7;example_30.3ns.avi;neutral;7;incongruent;130.0;170.0;229.02432995836998;;0;1;1;1;;;;;;;;;;;48.206264100001135;None;50.32275380000101;50.64801950000037;51.79787469999974;51.814512200000536;53.772824100000435;None;8;0;1.122809700000289;53.772824100000435;None;55.322649400000955;None;None;None;[];55.322649400000955;None;5;None;55.322649400000955;None;;;;;;;;;;;;;;;;S11597;2022_Jul_20_1726;VideoMask;2021.1.2;120.03288901136962;
9.0;f;019_m_f_h_a.jpg;happy;9.0;sad_115.1.wmv;sad;7.0;incongruent;120.0;160.0;128.09063432376465;h_s;;;;;0;0;0;0;;;;;;;59.35594820000006;None;60.639080500001;60.955848000001424;62.08902670000134;62.10578739999983;64.08907550000004;None;7;0;0.9588220000005094;64.08907550000004;None;;;;;;;;4;;;;58.35594240000137;None;65.64766190000046;None;None;None;[];65.64766190000046;None;['7'];[1.0881530000006023];65.64766190000046;None;;;S11597;2022_Jul_20_1726;VideoMask;2021.1.2;120.03288901136962;
3.0;m;033_o_m_s_a.jpg;sad;7.0;sad_94.2ns.avi;sad;7.0;congruent;130.0;160.0;182.29120173647655;s_s;;;;;0;1;1;1;;;;;;;68.65580380000029;None;70.39699010000004;70.71380640000098;71.9138165000004;71.93086010000115;74.53878630000145;None;7;0;0.9809349999995902;74.53878630000145;None;;;;;;;;5;;;;;;76.09704290000082;None;None;None;[];76.09704290000082;None;"['7', '7']";"[1.078629899999214, 2.094649999999092]";76.09704290000082;None;;;S11597;2022_Jul_20_1726;VideoMask;2021.1.2;120.03288901136962;
8.0;m;008_y_m_h_a.jpg;happy;9.0;happy_26.1ns.avi;happy;9.0;congruent;120.0;150.0;155.9437854594882;h_h;;;;;0;2;2;2;;;;;;;79.09707239999989;None;80.60509300000012;80.92175940000016;82.13853190000009;82.1551754000011;84.04685510000127;None;9;0;0.9608219000001554;84.04685510000127;None;;;;;;;;6;;;;;;85.60505410000042;None;None;None;[];85.60505410000042;None;['9'];[0.9146366000004491];85.60505410000042;None;;;S11597;2022_Jul_20_1726;VideoMask;2021.1.2;120.03288901136962;
0.0;f;040_y_f_h_a.jpg;happy;9.0;sad_138.1.wmv;sad;7.0;incongruent;120.0;160.0;133.99071306426532;h_s;;;;;0;3;3;3;;;;;;;88.60493830000087;None;89.94646260000081;90.26328790000116;91.3882709999998;91.4048528000003;93.39643369999976;None;None;0;;93.39643369999976;None;;;;;;;;5;;;;;;94.94623339999998;None;None;None;[];94.94623339999998;None;None;;94.94623339999998;None;;;S11597;2022_Jul_20_1726;VideoMask;2021.1.2;120.03288901136962;
8.0;f;028_y_f_s_a.jpg;sad;7.0;sad_64.2ns.avi;sad;7.0;congruent;130.0;160.0;229.88540597086478;s_s;;;;;0;4;4;4;;;;;;;97.96283390000099;None;100.19621390000066;100.51302840000062;101.67118339999979;101.68785970000135;112.64583140000104;None;7;0;0.8418946999991022;112.64583140000104;None;;;;;;;;4;;;;;;114.23744050000096;None;None;None;[];114.23744050000096;None;['7'];[0.6261561999999685];114.23744050000096;None;;;S11597;2022_Jul_20_1726;VideoMask;2021.1.2;120.03288901136962;
7.0;m;027_o_m_s_a.jpg;sad;7.0;sad_10.4ns.avi;sad;7.0;congruent;130.0;160.0;185.20129417468752;s_s;;;;;0;5;5;5;;;;;;;117.23738860000049;None;119.0038280000008;119.32053009999981;120.47926139999981;120.49581990000115;123.6204644999998;None;7;0;0.8591415999999299;123.6204644999998;None;;;;;;;;3;;;;;;125.17034460000104;None;None;None;[];125.17034460000104;None;"['7', '7']";"[0.8533397000010154, 1.2372512000001734]";125.17034460000104;None;;;S11597;2022_Jul_20_1726;VideoMask;2021.1.2;120.03288901136962;
2.0;f;012_o_f_s_a.jpg;sad;7.0;sad_7.5ns.avi;sad;7.0;congruent;130.0;160.0;220.27842655424388;s_s;;;;;0;6;6;6;;;;;;;128.17041489999974;None;130.21167570000034;130.52848360000098;131.71166840000114;131.72855730000083;134.45382830000017;None;7;0;0.5700450000003912;134.45382830000017;None;;;;;;;;4;;;;;;136.29502839999986;None;None;None;[];136.29502839999986;None;['7'];[0.6408289999999397];136.29502839999986;None;;;S11597;2022_Jul_20_1726;VideoMask;2021.1.2;120.03288901136962;
2.0;f;012_o_f_h_a.jpg;happy;9.0;happy_27.1ns.avi;happy;9.0;congruent;120.0;150.0;146.44967055810616;h_h;;;;;0;7;7;7;;;;;;;139.29497300000003;None;140.73646120000012;141.05318310000075;142.2363034000009;142.25309730000117;144.67814720000024;None;9;0;0.8173959999985527;144.67814720000024;None;;;;;;;;6;;;;;;146.22805049999988;None;None;None;[];146.22805049999988;None;"['9', '9']";"[0.6275440999997954, 1.2838515999992524]";146.22805049999988;None;;;S11597;2022_Jul_20_1726;VideoMask;2021.1.2;120.03288901136962;
8.0;f;028_y_f_h_a.jpg;happy;9.0;sad_119.1.wmv;sad;7.0;incongruent;120.0;160.0;148.71526953572538;h_s;;;;;0;8;8;8;;;;;;;149.22812460000023;None;150.6777705000004;150.99448010000015;152.1278559000002;152.14449260000038;154.19441840000036;None;7;0;0.7810774999998102;154.19441840000036;None;;;;;;;;3;;;;;;155.74435280000034;None;None;None;[];155.74435280000034;None;"['7', '7', '7']";"[0.8155148999994708, 1.727429000000484, 2.159111099999791]";155.74435280000034;None;;;S11597;2022_Jul_20_1726;VideoMask;2021.1.2;120.03288901136962;
6.0;m;016_y_m_s_a.jpg;sad;7.0;happy_60.4ns.avi;happy;9.0;incongruent;130.0;150.0;126.02367393611817;s_h;;;;;0;9;9;9;;;;;;;158.75260290000006;None;160.0525705;160.36917189999986;161.52753630000007;161.5441862000007;167.2941389000007;None;9;0;1.0654164999996283;167.2941389000007;None;;;;;;;;5;;;;;;168.87730120000015;None;None;None;[];168.87730120000015;None;None;;168.87730120000015;None;;;S11597;2022_Jul_20_1726;VideoMask;2021.1.2;120.03288901136962;
9.0;f;019_m_f_s_a.jpg;sad;7.0;sad_8.4ns.avi;sad;7.0;congruent;130.0;160.0;171.6633093155257;s_s;;;;;0;10;10;10;;;;;;;171.9019958000008;None;173.59391740000137;173.91038720000142;175.110397800001;175.1277499000007;183.17681850000008;None;7;0;0.846935300000041;183.17681850000008;None;;;;;;;;4;;;;;;184.7267640000009;None;None;None;[];184.7267640000009;None;['7'];[0.8086961000008159];184.7267640000009;None;;;S11597;2022_Jul_20_1726;VideoMask;2021.1.2;120.03288901136962;
4.0;m;004_o_m_h_a.jpg;happy;9.0;happy_1.1ns.avi;happy;9.0;congruent;120.0;150.0;203.50057144619865;h_h;;;;;0;11;11;11;;;;;;;187.72667809999984;None;189.70964650000133;190.0266343000003;191.2265124000005;191.24309710000125;205.64268850000008;None;9;0;0.7408250000007683;205.64268850000008;None;;;;;;;;6;;;;;;207.1927013000004;None;None;None;[];207.1927013000004;None;['9'];[0.7269752999982302];207.1927013000004;None;;;S11597;2022_Jul_20_1726;VideoMask;2021.1.2;120.03288901136962;
7.0;m;027_o_m_h_a.jpg;happy;9.0;happy_20.1ns.avi;happy;9.0;congruent;120.0;150.0;152.91127178874285;h_h;;;;;0;12;12;12;;;;;;;210.19254290000026;None;211.7007334000009;212.0175089000004;213.15918229999988;213.17577429999983;216.1674034000007;None;9;0;1.0319719999988592;216.1674034000007;None;;;;;;;;5;;;;;;217.71734660000038;None;None;None;[];217.71734660000038;None;None;;217.71734660000038;None;;;S11597;2022_Jul_20_1726;VideoMask;2021.1.2;120.03288901136962;
0.0;f;040_y_f_s_a.jpg;sad;7.0;sad_94.3ns.avi;sad;7.0;congruent;130.0;160.0;155.27414203894395;s_s;;;;;0;13;13;13;;;;;;;220.75061840000126;None;222.28385470000103;222.6004513000007;223.82525739999983;223.84193960000084;226.35879370000112;None;7;0;0.7846150999994279;226.35879370000112;None;;;;;;;;4;;;;;;227.90870330000143;None;None;None;[];227.90870330000143;None;['7'];[0.47470590000011725];227.90870330000143;None;;;S11597;2022_Jul_20_1726;VideoMask;2021.1.2;120.03288901136962;
0.0;f;030_o_f_s_a.jpg;sad;7.0;sad_68.1ns.avi;sad;7.0;congruent;130.0;160.0;158.9411396037211;s_s;;;;;0;14;14;14;;;;;;;230.90871739999966;None;232.49180650000017;232.80847600000016;234.04160159999992;234.05827280000085;241.36663550000048;None;7;0;1.096989499999836;241.36663550000048;None;;;;;;;;5;;;;;;242.91651740000088;None;None;None;[];242.91651740000088;None;None;;242.91651740000088;None;;;S11597;2022_Jul_20_1726;VideoMask;2021.1.2;120.03288901136962;
0.0;f;030_o_f_h_a.jpg;happy;9.0;sad_127.1.wmv;sad;7.0;incongruent;120.0;160.0;180.59976631384873;h_s;;;;;0;15;15;15;;;;;;;245.9328882000009;None;247.6495816000006;247.9662397000011;249.09970969999995;249.11629710000125;251.099610700001;None;7;0;1.4597972000010486;251.099610700001;None;;;;;;;;4;;;;;;252.64953349999996;None;None;None;[];252.64953349999996;None;['7'];[1.4698599000003014];252.64953349999996;None;;;S11597;2022_Jul_20_1726;VideoMask;2021.1.2;120.03288901136962;
8.0;m;008_y_m_s_a.jpg;sad;7.0;happy_133.3.wmv;happy;9.0;incongruent;130.0;150.0;152.577966552593;s_h;;;;;0;16;16;16;;;;;;;255.6578141000009;None;257.15762970000105;257.47430840000015;258.5993930000004;258.6159464000011;260.6076138999997;None;9;0;0.8158743000003597;260.6076138999997;None;;;;;;;;6;;;;;;262.1575384000007;None;None;None;[];262.1575384000007;None;['9'];[0.8979146000001492];262.1575384000007;None;;;S11597;2022_Jul_20_1726;VideoMask;2021.1.2;120.03288901136962;
3.0;m;033_o_m_h_a.jpg;happy;9.0;sad_128.1.wmv;sad;7.0;incongruent;120.0;160.0;171.0492454518585;h_s;;;;;0;17;17;17;;;;;;;265.15756110000075;None;266.8072398000004;267.12397919999967;268.2906253000001;268.30714480000097;270.257283500001;None;None;0;;270.257283500001;None;;;;;;;;4;;;;;;271.8237509999999;None;None;None;[];271.8237509999999;None;['7'];[9.601680700001452];271.8237509999999;None;;;S11597;2022_Jul_20_1726;VideoMask;2021.1.2;120.03288901136962;
1.0;f;021_o_f_h_a.jpg;happy;9.0;sad_116.1.wmv;sad;7.0;incongruent;120.0;160.0;184.06847610053055;h_s;;;;;0;18;18;18;;;;;;;274.7989643000001;None;276.56525690000126;276.88197560000117;278.0234704000013;278.04033119999986;280.02369980000003;None;7;0;0.8156698000002507;280.02369980000003;None;;;;;;;;5;;;;;;281.5735616000002;None;None;None;[];281.5735616000002;None;None;;281.5735616000002;None;;;S11597;2022_Jul_20_1726;VideoMask;2021.1.2;120.03288901136962;
4.0;m;004_o_m_s_a.jpg;sad;7.0;happy_28.1ns.avi;happy;9.0;incongruent;130.0;150.0;157.40741103039684;s_h;;;;;0;19;19;19;;;;;;;284.59006580000096;None;286.13176960000055;286.4483446000013;287.67323639999995;287.69005540000035;291.9732378000008;None;9;0;1.2261024999988877;291.9732378000008;None;;;;;;;;5;;;;;;293.52312040000106;None;None;None;[];293.52312040000106;None;None;;293.52312040000106;None;;;S11597;2022_Jul_20_1726;VideoMask;2021.1.2;120.03288901136962;
8.0;f;028_y_f_s_a.jpg;sad;7.0;happy_122.3.wmv;happy;9.0;incongruent;130.0;150.0;171.8670540936116;s_h;;;;;0;20;20;20;;;;;;;296.54810759999964;None;298.21456659999967;298.53127959999983;299.66464480000104;299.681279800001;301.66455769999993;None;9;0;0.6947594000012032;301.66455769999993;None;;;;;;;;6;;;;;;303.2061867000011;None;None;None;[];303.2061867000011;None;['9'];[0.8971371999996336];303.2061867000011;None;;;S11597;2022_Jul_20_1726;VideoMask;2021.1.2;120.03288901136962;
8.0;m;008_y_m_s_a.jpg;sad;7.0;sad_6.5ns.avi;sad;7.0;congruent;130.0;160.0;170.39333839271438;s_s;;;;;0;21;21;21;;;;;;;306.20613220000087;None;307.8642662000002;308.1809745999999;309.3556965000007;309.3726708000013;314.31414270000096;None;7;0;0.8210976000009396;314.31414270000096;None;;;;;;;;4;;;;;;315.86405730000115;None;None;None;[];315.86405730000115;None;"['7', '7']";"[0.44722879999972065, 0.9192903000002843]";315.86405730000115;None;;;S11597;2022_Jul_20_1726;VideoMask;2021.1.2;120.03288901136962;
8.0;f;028_y_f_h_a.jpg;happy;9.0;happy_23.1ns.avi;happy;9.0;congruent;120.0;150.0;225.70986890587952;h_h;;;;;0;22;22;22;;;;;;;318.86417600000095;None;320.96383120000064;321.2805024999998;322.4144879000014;322.44722040000124;326.9887273000004;None;9;0;0.8265362000001915;326.9887273000004;None;;;;;;;;5;;;;;;328.53036000000066;None;None;None;[];328.53036000000066;None;None;;328.53036000000066;None;;;S11597;2022_Jul_20_1726;VideoMask;2021.1.2;120.03288901136962;
8.0;m;008_y_m_h_a.jpg;happy;9.0;sad_111.1.wmv;sad;7.0;incongruent;120.0;160.0;152.63076835312847;h_s;;;;;0;23;23;23;;;;;;;331.5468931000014;None;333.03841699999975;333.35518500000035;334.49685110000064;334.51347520000127;336.48839899999984;None;7;0;1.1827441999994335;336.48839899999984;None;;;;;;;;4;;;;;;338.03839060000064;None;None;None;[];338.03839060000064;None;['7'];[1.6330342999990535];338.03839060000064;None;;;S11597;2022_Jul_20_1726;VideoMask;2021.1.2;120.03288901136962;
0.0;f;040_y_f_s_a.jpg;sad;7.0;sad_67.2ns.avi;sad;7.0;congruent;130.0;160.0;220.9892697323079;s_s;;;;;0;24;24;24;;;;;;;341.03822410000066;None;343.13823890000094;343.4547101999997;344.6381715000007;344.6548261000007;353.81296160000056;None;7;0;0.842307200000505;353.81296160000056;None;;;;;;;;2;;;;;;355.3627352000003;None;None;None;[];355.3627352000003;None;"['7', '7', '7']";"[0.5645096999996895, 0.9003658000001451, 1.1965464999993856]";355.3627352000003;None;;;S11597;2022_Jul_20_1726;VideoMask;2021.1.2;120.03288901136962;
8.0;m;008_y_m_s_a.jpg;sad;7.0;happy_29.1ns.avi;happy;9.0;incongruent;130.0;150.0;120.0316142834122;s_h;;;;;0;25;25;25;;;;;;;358.36271040000065;None;359.5875295000005;359.9042504000008;361.07064549999996;361.0874190000013;363.7291574999999;None;9;0;0.8621801000008418;363.7291574999999;None;;;;;;;;5;;;;;;365.2791448000007;None;None;None;[];365.2791448000007;None;None;;365.2791448000007;None;;;S11597;2022_Jul_20_1726;VideoMask;2021.1.2;120.03288901136962;
6.0;m;016_y_m_s_a.jpg;sad;7.0;sad_8.3ns.avi;sad;7.0;congruent;130.0;160.0;152.85371098242734;s_s;;;;;0;26;26;26;;;;;;;368.3124095000003;None;369.8372532000012;370.15387999999984;371.32048290000057;371.33712730000116;379.04551119999996;None;7;0;1.2896873999998206;379.04551119999996;None;;;;;;;;4;;;;;;380.59531590000006;None;None;None;[];380.59531590000006;None;['7'];[2.403822099999161];380.59531590000006;None;;;S11597;2022_Jul_20_1726;VideoMask;2021.1.2;120.03288901136962;
6.0;m;016_y_m_h_a.jpg;happy;9.0;sad_114.1.wmv;sad;7.0;incongruent;120.0;160.0;136.20550699298644;h_s;;;;;0;27;27;27;;;;;;;383.595261800001;None;384.9450188999999;385.26167429999987;386.4207701000014;386.44538980000107;388.39513500000066;None;7;0;0.7960584000011295;388.39513500000066;None;;;;;;;;3;;;;;;389.94500490000064;None;None;None;[];389.94500490000064;None;"['7', '7']";"[1.142389099999491, 1.41412180000043]";389.94500490000064;None;;;S11597;2022_Jul_20_1726;VideoMask;2021.1.2;120.03288901136962;
7.0;m;027_o_m_s_a.jpg;sad;7.0;happy_117.3.wmv;happy;9.0;incongruent;130.0;150.0;215.61964028550614;s_h;;;;;0;28;28;28;;;;;;;392.9532453000011;None;394.9613824999997;395.2780769000001;396.4114043999998;396.42810029999964;398.41136630000074;None;9;0;0.9797523999986879;398.41136630000074;None;;;;;;;;5;;;;;;399.96132150000085;None;None;None;[];399.96132150000085;None;None;;399.96132150000085;None;;;S11597;2022_Jul_20_1726;VideoMask;2021.1.2;120.03288901136962;
6.0;m;016_y_m_h_a.jpg;happy;9.0;happy_9.2ns.avi;happy;9.0;congruent;120.0;150.0;130.52042428082717;h_h;;;;;0;29;29;29;;;;;;;402.9945920000009;None;404.32778599999983;404.64444560000084;405.794597600001;405.81110700000136;411.7025377000009;None;9;0;0.7926152000000002;411.7025377000009;None;;;;;;;;5;;;;;;413.25251390000085;None;None;None;[];413.25251390000085;None;None;;413.25251390000085;None;;;S11597;2022_Jul_20_1726;VideoMask;2021.1.2;120.03288901136962;
0.0;f;040_y_f_s_a.jpg;sad;7.0;happy_127.3.wmv;happy;9.0;incongruent;130.0;150.0;131.7195455720239;s_h;;;;;0;30;30;30;;;;;;;416.2690324000014;None;417.58562730000085;417.9023199000003;419.0356700000011;419.05235040000116;421.1024140999998;None;9;0;0.6646313000001101;421.1024140999998;None;;;;;;;;6;;;;;;422.6522667999998;None;None;None;[];422.6522667999998;None;['9'];[0.4667451000004803];422.6522667999998;None;;;S11597;2022_Jul_20_1726;VideoMask;2021.1.2;120.03288901136962;
0.0;f;030_o_f_s_a.jpg;sad;7.0;happy_125.3.wmv;happy;9.0;incongruent;130.0;150.0;220.51454909128134;s_h;;;;;0;31;31;31;;;;;;;425.65231550000135;None;427.72704350000095;428.0436690000006;429.1774519999999;429.2020138000007;431.1769682000013;None;9;0;0.5900751000008313;431.1769682000013;None;;;;;;;;5;;;;;;432.72692220000135;None;None;None;[];432.72692220000135;None;None;;432.72692220000135;None;;;S11597;2022_Jul_20_1726;VideoMask;2021.1.2;120.03288901136962;
0.0;f;030_o_f_s_a.jpg;sad;7.0;sad_64.3ns.avi;sad;7.0;congruent;130.0;160.0;165.78667874766072;s_s;;;;;0;32;32;32;;;;;;;435.751760000001;None;437.35159790000034;437.67725470000005;438.84342260000085;438.86006460000135;443.80987090000053;None;7;0;0.877406499999779;443.80987090000053;None;;;;;;;;4;;;;;;445.35979000000043;None;None;None;[];445.35979000000043;None;"['7', '7']";"[1.3271867999992537, 2.1274766999995336]";445.35979000000043;None;;;S11597;2022_Jul_20_1726;VideoMask;2021.1.2;120.03288901136962;
3.0;m;013_y_m_s_a.jpg;sad;7.0;sad_7.7ns.avi;sad;7.0;congruent;130.0;160.0;196.24182255763262;s_s;;;;;0;33;33;33;;;;;;;448.3597421000013;None;450.22621590000017;450.54289770000105;451.74294139999984;451.7596513999997;457.68511300000137;None;7;0;0.8419044999991456;457.68511300000137;None;;;;;;;;5;;;;;;459.2593996000014;None;None;None;[];459.2593996000014;None;None;;459.2593996000014;None;;;S11597;2022_Jul_20_1726;VideoMask;2021.1.2;120.03288901136962;
3.0;m;013_y_m_h_a.jpg;happy;9.0;happy_9.1ns.avi;happy;9.0;congruent;120.0;150.0;165.1890303600433;h_h;;;;;0;34;34;34;;;;;;;462.2841574000013;None;463.8839927000008;464.2008654000001;465.33417949999966;465.35078950000025;468.55910740000036;None;9;0;0.8641060999998444;468.55910740000036;None;;;;;;;;5;;;;;;470.10901920000106;None;None;None;[];470.10901920000106;None;None;;470.10901920000106;None;;;S11597;2022_Jul_20_1726;VideoMask;2021.1.2;120.03288901136962;
4.0;m;004_o_m_h_a.jpg;happy;9.0;sad_95.1ns.avi;sad;7.0;incongruent;120.0;160.0;152.68270002069931;h_s;;;;;0;35;35;35;;;;;;;473.1337968000007;None;474.675465100001;474.9920739999998;476.2259800000011;476.24234070000057;484.9169692000014;None;7;0;0.8339703000001464;484.9169692000014;None;;;;;;;;2;;;;;;486.4668070000007;None;None;None;[];486.4668070000007;None;"['7', '7', '7']";"[0.4122807000003377, 0.7401303999995434, 1.0602381999997306]";486.4668070000007;None;;;S11597;2022_Jul_20_1726;VideoMask;2021.1.2;120.03288901136962;
3.0;m;013_y_m_h_a.jpg;happy;9.0;sad_113.2.wmv;sad;7.0;incongruent;120.0;160.0;217.4973891947951;h_s;;;;;0;36;36;36;;;;;;;489.46687010000096;None;491.5331657000006;491.84989040000073;492.9749850999997;492.99155640000026;494.9831344000013;None;None;0;;494.9831344000013;None;;;;;;;;5;;;;;;496.5331117000005;None;None;None;[];496.5331117000005;None;None;;496.5331117000005;None;;;S11597;2022_Jul_20_1726;VideoMask;2021.1.2;120.03288901136962;
4.0;m;004_o_m_h_a.jpg;happy;9.0;happy_25.1ns.avi;happy;9.0;congruent;120.0;150.0;216.63044503818386;h_h;;;;;0;37;37;37;;;;;;;499.56638700000076;None;501.59948890000123;501.91624430000047;503.08284260000073;503.09956260000035;506.74132120000104;None;9;0;0.8416914999997971;506.74132120000104;None;;;;;;;;5;;;;;;508.29942760000085;None;None;None;[];508.29942760000085;None;None;;508.29942760000085;None;;;S11597;2022_Jul_20_1726;VideoMask;2021.1.2;120.03288901136962;
4.0;m;004_o_m_s_a.jpg;sad;7.0;happy_131.2.wmv;happy;9.0;incongruent;130.0;150.0;181.38407540847405;s_h;;;;;0;38;38;38;;;;;;;511.32432750000044;None;513.0491235999998;513.3659107000003;514.4991752000005;514.5157761999999;516.4991253999997;None;9;0;0.875845799999297;516.4991253999997;None;;;;;;;;5;;;;;;518.0491008999998;None;None;None;[];518.0491008999998;None;None;;518.0491008999998;None;;;S11597;2022_Jul_20_1726;VideoMask;2021.1.2;120.03288901136962;
0.0;f;040_y_f_h_a.jpg;happy;9.0;happy_24.3ns.avi;happy;9.0;congruent;120.0;150.0;213.25460698950434;h_h;;;;;0;39;39;39;;;;;;;521.0655631000009;None;523.0571672000005;523.3738566000011;524.5655686000009;524.5823219000013;526.4321787000008;None;9;0;0.8948466000001645;526.4321787000008;None;;;;;;;;5;;;;;;527.9820436000009;None;None;None;[];527.9820436000009;None;None;;527.9820436000009;None;;;S11597;2022_Jul_20_1726;VideoMask;2021.1.2;120.03288901136962;
2.0;f;012_o_f_s_a.jpg;sad;7.0;happy_139.1.wmv;happy;9.0;incongruent;130.0;150.0;162.31500468041804;s_h;;;;;0;40;40;40;;;;;;;530.9985214000008;None;532.5817920999998;532.8984912000014;534.0400726999997;534.0568954000009;536.0401973000007;None;9;0;0.5349158999997599;536.0401973000007;None;;;;;;;;5;;;;;;537.5983845999999;None;None;None;[];537.5983845999999;None;None;;537.5983845999999;None;;;S11597;2022_Jul_20_1726;VideoMask;2021.1.2;120.03288901136962;
0.0;f;030_o_f_h_a.jpg;happy;9.0;happy_24.1ns.avi;happy;9.0;congruent;120.0;150.0;168.36256624020774;h_h;;;;;0;41;41;41;;;;;;;540.6231715000013;None;542.2565150999999;542.5731174000011;543.773097700001;543.7896711000012;547.0315860999999;None;9;0;0.6871922999998787;547.0315860999999;None;;;;;;;;5;;;;;;548.5814090000003;None;None;None;[];548.5814090000003;None;None;;548.5814090000003;None;;;S11597;2022_Jul_20_1726;VideoMask;2021.1.2;120.03288901136962;
2.0;f;012_o_f_h_a.jpg;happy;9.0;sad_113.1.wmv;sad;7.0;incongruent;120.0;160.0;177.44551734737394;h_s;;;;;0;42;42;42;;;;;;;551.6062426999997;None;553.2894464000001;553.6061418999998;554.7393515000003;554.7562307999997;556.7394679999998;None;7;0;0.9154782000005071;556.7394679999998;None;;;;;;;;3;;;;;;558.289471;None;None;None;[];558.289471;None;"['7', '7']";"[0.7253865000002406, 1.5174709000002622]";558.289471;None;;;S11597;2022_Jul_20_1726;VideoMask;2021.1.2;120.03288901136962;
3.0;m;033_o_m_s_a.jpg;sad;7.0;sad_64.5ns.avi;sad;7.0;congruent;130.0;160.0;130.55717223801247;s_s;;;;;0;43;43;43;;;;;;;561.297774300001;None;562.6476918000008;562.9641248999997;564.1725977000006;564.1897865999999;570.6891503000006;None;7;0;0.82980249999855;570.6891503000006;None;;;;;;;;3;;;;;;572.2389625000014;None;None;None;[];572.2389625000014;None;"['7', '7']";"[0.3758527000009053, 0.6397993000009592]";572.2389625000014;None;;;S11597;2022_Jul_20_1726;VideoMask;2021.1.2;120.03288901136962;
7.0;m;027_o_m_h_a.jpg;happy;9.0;sad_117.1.wmv;sad;7.0;incongruent;120.0;160.0;181.28665202824095;h_s;;;;;0;44;44;44;;;;;;;575.2473710000013;None;576.9888444999997;577.3052882000011;578.463972900001;578.4802666000014;580.4386979999999;None;7;0;0.6321895999990375;580.4386979999999;None;;;;;;;;4;;;;;;581.9886423000007;None;None;None;[];581.9886423000007;None;['7'];[0.4981272999993962];581.9886423000007;None;;;S11597;2022_Jul_20_1726;VideoMask;2021.1.2;120.03288901136962;
3.0;m;033_o_m_s_a.jpg;sad;7.0;happy_126.3.wmv;happy;9.0;incongruent;130.0;150.0;198.85252030535366;s_h;;;;;0;45;45;45;;;;;;;584.9886263000008;None;586.8716796999997;587.1884066000002;588.3215540000001;588.3384487000003;590.3216732000001;None;9;0;0.6770722000001115;590.3216732000001;None;;;;;;;;6;;;;;;591.8716729000007;None;None;None;[];591.8716729000007;None;['9'];[0.5511334999991959];591.8716729000007;None;;;S11597;2022_Jul_20_1726;VideoMask;2021.1.2;120.03288901136962;
3.0;m;033_o_m_h_a.jpg;happy;9.0;sad_136.1.wmv;sad;7.0;incongruent;120.0;160.0;176.97002883463455;h_s;;;;;0;46;46;46;;;;;;;594.8717367999998;None;596.5547125000012;596.8714197999998;597.9965127000014;598.013105;600.0047412000004;None;None;0;;600.0047412000004;None;;;;;;;;4;;;;;;601.5545101999996;None;None;None;[];601.5545101999996;None;['7'];[0.08436630000142031];601.5545101999996;None;;;S11597;2022_Jul_20_1726;VideoMask;2021.1.2;120.03288901136962;
9.0;f;019_m_f_h_a.jpg;happy;9.0;happy_10.1ns.avi;happy;9.0;congruent;120.0;150.0;157.2463435658512;h_h;;;;;0;47;47;47;;;;;;;604.5546501000008;None;606.1379032000004;606.4544920999997;607.6299359000004;607.6551072000002;615.0293317000014;None;9;0;0.8813821000003372;615.0293317000014;None;;;;;;;;5;;;;;;616.5791664000008;None;None;None;[];616.5791664000008;None;None;;616.5791664000008;None;;;S11597;2022_Jul_20_1726;VideoMask;2021.1.2;120.03288901136962;
2.0;f;012_o_f_h_a.jpg;happy;9.0;happy_2.2ns.avi;happy;9.0;congruent;120.0;150.0;206.34800317295262;h_h;;;;;0;48;48;48;;;;;;;619.5956094000012;None;621.5622140000014;621.8789343999997;623.0122938000004;623.028951100001;635.2203113000014;None;9;0;0.7624489999998332;635.2203113000014;None;;;;;;;;6;;;;;;636.7701603000005;None;None;None;[];636.7701603000005;None;['9'];[0.42076000000088243];636.7701603000005;None;;;S11597;2022_Jul_20_1726;VideoMask;2021.1.2;120.03288901136962;
3.0;m;033_o_m_h_a.jpg;happy;9.0;happy_24.2ns.avi;happy;9.0;congruent;120.0;150.0;167.9423847659953;h_h;;;;;0;49;49;49;;;;;;;639.7700306000006;None;641.3867217000006;641.7032334000014;642.8700544000003;642.8866267000012;646.5616547000009;None;9;0;1.0691122999996878;646.5616547000009;None;;;;;;;;5;;;;;;648.1114365000012;None;None;None;[];648.1114365000012;None;None;;648.1114365000012;None;;;S11597;2022_Jul_20_1726;VideoMask;2021.1.2;120.03288901136962;
1.0;f;021_o_f_s_a.jpg;sad;7.0;happy_61.2ns.avi;happy;9.0;incongruent;130.0;150.0;210.94664004826666;s_h;;;;;0;50;50;50;;;;;;;651.1362617000013;None;653.1362386000001;653.452801200001;654.6611618000006;654.6778812000011;659.1112186000009;None;9;0;0.7354188000008435;659.1112186000009;None;;;;;;;;6;;;;;;660.6610070000006;None;None;None;[];660.6610070000006;None;"['9', '9']";"[0.3777829999999085, 0.9299751999988075]";660.6610070000006;None;;;S11597;2022_Jul_20_1726;VideoMask;2021.1.2;120.03288901136962;
4.0;m;004_o_m_s_a.jpg;sad;7.0;sad_2.4ns.avi;sad;7.0;congruent;130.0;160.0;153.02079367163634;s_s;;;;;0;51;51;51;;;;;;;663.6692877000005;None;665.1857066000011;665.5026792999997;666.6774865000007;666.6941787000014;674.5942454000015;None;7;0;0.4205913000005239;674.5942454000015;None;;;;;;;;3;;;;;;676.5271501000007;None;None;None;[];676.5271501000007;None;"['7', '7', '7']";"[0.35948499999904016, 0.7996524999998655, 1.223565199999939]";676.5271501000007;None;;;S11597;2022_Jul_20_1726;VideoMask;2021.1.2;120.03288901136962;
8.0;m;008_y_m_h_a.jpg;happy;9.0;happy_1.2ns.avi;happy;9.0;congruent;120.0;150.0;210.98946429383824;h_h;;;;;0;52;52;52;;;;;;;679.5272620000014;None;681.5770580999997;681.8936207000006;683.0603449999999;683.0768161000015;695.8181987999997;None;9;0;0.7244843999997101;695.8181987999997;None;;;;;;;;5;;;;;;697.3681646000005;None;None;None;[];697.3681646000005;None;None;;697.3681646000005;None;;;S11597;2022_Jul_20_1726;VideoMask;2021.1.2;120.03288901136962;
2.0;f;012_o_f_s_a.jpg;sad;7.0;happy_52.2ns.avi;happy;9.0;incongruent;130.0;150.0;172.57202848318138;s_h;;;;;0;53;53;53;;;;;;;700.384670200001;None;702.0678578000006;702.3846819000009;703.6183493000008;703.6430101000005;707.0762472000006;None;9;0;0.8022964000010688;707.0762472000006;None;;;;;;;;6;;;;;;708.6261325000014;None;None;None;[];708.6261325000014;None;['9'];[0.6365607000007003];708.6261325000014;None;;;S11597;2022_Jul_20_1726;VideoMask;2021.1.2;120.03288901136962;
9.0;f;019_m_f_s_a.jpg;sad;7.0;happy_61.1ns.avi;happy;9.0;incongruent;130.0;150.0;181.3003220572762;s_h;;;;;0;54;54;54;;;;;;;711.6261477999997;None;713.4009403;713.7175062000006;714.8847332000005;714.9092622000007;722.2424897000001;None;9;0;0.4921288999994431;722.2424897000001;None;;;;;;;;6;;;;;;723.8754320999997;None;None;None;[];723.8754320999997;None;['9'];[0.5472720999987359];723.8754320999997;None;;;S11597;2022_Jul_20_1726;VideoMask;2021.1.2;120.03288901136962;
0.0;f;030_o_f_h_a.jpg;happy;9.0;sad_133.1.wmv;sad;7.0;incongruent;120.0;160.0;198.86251500867985;h_s;;;;;0;55;55;55;;;;;;;726.883925600001;None;728.7670042000009;729.0837146000013;730.2087888000005;730.2253676;732.217153900001;None;7;0;0.7734779999991588;732.217153900001;None;;;;;;;;4;;;;;;733.7669655000009;None;None;None;[];733.7669655000009;None;['7'];[0.3836706000001868];733.7669655000009;None;;;S11597;2022_Jul_20_1726;VideoMask;2021.1.2;120.03288901136962;
0.0;f;040_y_f_h_a.jpg;happy;9.0;sad_128.2.wmv;sad;7.0;incongruent;120.0;160.0;206.10005857915363;h_s;;;;;0;56;56;56;;;;;;;736.7752267000014;None;738.6999969000008;739.0167913000005;740.1583066000003;740.1751038000002;742.1499897000012;None;7;0;0.584589899999628;742.1499897000012;None;;;;;;;;4;;;;;;743.6999291000011;None;None;None;[];743.6999291000011;None;['7'];[0.46700679999958083];743.6999291000011;None;;;S11597;2022_Jul_20_1726;VideoMask;2021.1.2;120.03288901136962;
1.0;f;021_o_f_s_a.jpg;sad;7.0;sad_9.5ns.avi;sad;7.0;congruent;130.0;160.0;206.16642757875042;s_s;;;;;0;57;57;57;;;;;;;746.6999719000014;None;748.6495854000004;748.9664201000014;750.1412204999997;750.1578527000001;755.8246902999999;None;7;0;0.5581764999988081;755.8246902999999;None;;;;;;;;4;;;;;;757.3745381999997;None;None;None;[];757.3745381999997;None;['7'];[0.4321639999998297];757.3745381999997;None;;;S11597;2022_Jul_20_1726;VideoMask;2021.1.2;120.03288901136962;
1.0;f;021_o_f_h_a.jpg;happy;9.0;happy_12.1ns.avi;happy;9.0;congruent;120.0;150.0;132.59080005900228;h_h;;;;;0;58;58;58;;;;;;;760.3826961000013;None;761.7492450999998;762.0659676000014;763.2076780000007;763.2243307999997;770.8157710000014;None;9;0;0.6787558000014542;770.8157710000014;None;;;;;;;;5;;;;;;772.3656853000011;None;None;None;[];772.3656853000011;None;None;;772.3656853000011;None;;;S11597;2022_Jul_20_1726;VideoMask;2021.1.2;120.03288901136962;
3.0;m;013_y_m_s_a.jpg;sad;7.0;happy_56.2ns.avi;happy;9.0;incongruent;130.0;150.0;163.39234110935848;s_h;;;;;0;59;59;59;;;;;;;775.3905758000001;None;776.9904273000011;777.3071158000002;778.524429000001;778.5488925999998;783.4743677000006;None;9;0;0.6360827000007703;783.4743677000006;None;;;;;;;;6;;;;;;785.0986033999998;None;None;None;[];785.0986033999998;None;"['9', '9']";"[0.43589410000095086, 1.0280650000004243]";785.0986033999998;None;;;S11597;2022_Jul_20_1726;VideoMask;2021.1.2;120.03288901136962;
;;;;;;;;;;;;;;;;;;;;;;;;;;;;;;;;;;;;;;;;;;;;;;;;;;;;;;;;;;;;;;;;788.0985419000008;None;;;;;;
