primePerson;primeGender;prime;primeEmotion;corrAnsPrime;target;targetEmotion;corrAnsTar;Cond;ID_Primer;ID_Target;JitterTime;example.thisRepN;example.thisTrialN;example.thisN;example.thisIndex;study.thisRepN;study.thisTrialN;study.thisN;study.thisIndex;MR_trigger_time;MR_trigger_number;text_intro.started;text_intro.stopped;text_probe.started;text_probe.stopped;polygon_ISI.started;polygon_ISI.stopped;polygon.started;polygon.stopped;primerImage.started;primerImage.stopped;response.started;response.stopped;key_resp.keys;key_resp.corr;key_resp.started;key_resp.stopped;slider_Text.started;slider_Text.stopped;slider_ex.response;slider_ex.rt;slider_ex.history;slider_ex.started;slider_ex.stopped;Rating;slider_resp_response.keys;slider_resp_response.rt;slider_resp_response.started;slider_resp_response.stopped;text_start.started;text_start.stopped;text_slider.started;text_slider.stopped;slider_stud.response;slider_stud.rt;slider_stud.history;slider_stud.started;slider_stud.stopped;slider_resp_study.keys;slider_resp_study.rt;slider_resp_study.started;slider_resp_study.stopped;key_resp.rt;text_ende.started;text_ende.stopped;participant;date;expName;psychopyVersion;frameRate;
1111;m;1111_m_m_h_a.jpg;happy;9;example_30.4ns.avi;neutral;7;incongruent;120.0;170.0;189.5874364012288;0;0;0;0;;;;;98.81582759995945;1;98.89323329995386;100.89350789994933;100.89350789994933;None;102.91003090003505;None;105.07657160004601;105.41000299993902;106.55145399994217;106.56820109998807;110.86890030000359;None;None;0;110.86890030000359;None;112.58476520003751;None;None;None;[];112.58476520003751;None;7;"['9', '9']";"[0.11749000009149313, 1.7175136001314968]";112.58476520003751;None;;;;;;;;;;;;;;;;;S10718;2021_Jul_02_1553;VideoMask;2021.1.2;119.1872384111576;
1113;f;1113_y_f_s_a.jpg;sad;7;example_30.3ns.avi;neutral;7;incongruent;130.0;170.0;229.02432995836998;0;1;1;1;;;;;;;;;;;114.57624630001374;None;116.70952229993418;117.0261470999103;118.20121619990095;118.21784819988534;120.15960530005395;None;None;0;120.15960530005395;None;121.70924920006655;None;None;None;[];121.70924920006655;None;6;['9'];[0.673029099823907];121.70924920006655;None;;;;;;;;;;;;;;;;;S10718;2021_Jul_02_1553;VideoMask;2021.1.2;119.1872384111576;
3.0;m;033_o_m_s_a.jpg;sad;7.0;sad_94.2ns.avi;sad;7.0;congruent;130.0;160.0;228.63582583242618;;;;;0;0;0;0;;;;;;;124.74278889992274;None;126.89265620009974;127.20917239994742;128.34231149987318;128.35924370004795;131.03419480007142;None;None;0;131.03419480007142;None;;;;;;;;4;;;;;123.70932370005175;None;132.69224209990352;None;None;None;[];132.69224209990352;None;"['7', '7']";"[0.425915100146085, 1.1940924001391977]";132.69224209990352;None;;;;S10718;2021_Jul_02_1553;VideoMask;2021.1.2;119.1872384111576;
0.0;f;030_o_f_s_a.jpg;sad;7.0;sad_68.1ns.avi;sad;7.0;congruent;130.0;160.0;163.14738846961149;;;;;0;1;1;1;;;;;;;134.692601100076;None;136.32565120002255;136.6422067999374;137.80882909987122;137.82563439989462;145.2004116999451;None;None;0;145.2004116999451;None;;;;;;;;2;;;;;;;146.75098700006492;None;None;None;[];146.75098700006492;None;"['7', '7', '7']";"[0.2713119999971241, 0.7752372999675572, 1.5112641998566687]";146.75098700006492;None;;;;S10718;2021_Jul_02_1553;VideoMask;2021.1.2;119.1872384111576;
8.0;m;008_y_m_h_a.jpg;happy;9.0;happy_26.1ns.avi;happy;9.0;congruent;140.0;150.0;184.58211837191982;;;;;0;2;2;2;;;;;;;148.75876079988666;None;150.5257359999232;150.8418006999418;151.9834267999977;152.00020190002397;153.96682520001195;None;None;0;153.96682520001195;None;;;;;;;;6;;;;;;;155.6417753000278;None;None;None;[];155.6417753000278;None;['9'];[0.364347199909389];155.6417753000278;None;;;;S10718;2021_Jul_02_1553;VideoMask;2021.1.2;119.1872384111576;
0.0;f;030_o_f_s_a.jpg;sad;7.0;happy_125.3.wmv;happy;9.0;incongruent;130.0;150.0;189.50417957278896;;;;;0;3;3;3;;;;;;;157.6498910000082;None;159.45827890001237;159.77490870002657;160.90862390003167;160.93329559988342;162.90845029987395;None;None;0;162.90845029987395;None;;;;;;;;5;;;;;;;164.4579495000653;None;None;None;[];164.4579495000653;None;None;;164.4579495000653;None;;;;S10718;2021_Jul_02_1553;VideoMask;2021.1.2;119.1872384111576;
1.0;f;021_o_f_s_a.jpg;sad;7.0;sad_9.5ns.avi;sad;7.0;congruent;130.0;160.0;156.55128602613038;;;;;0;4;4;4;;;;;;;166.47471540002152;None;167.99951240001246;168.31629900005646;169.541165899951;169.55787070002407;175.1910989000462;None;None;0;175.1910989000462;None;;;;;;;;4;;;;;;;176.74115899996832;None;None;None;[];176.74115899996832;None;['7'];[0.36106880009174347];176.74115899996832;None;;;;S10718;2021_Jul_02_1553;VideoMask;2021.1.2;119.1872384111576;
4.0;m;004_o_m_s_a.jpg;sad;7.0;happy_28.1ns.avi;happy;9.0;incongruent;130.0;150.0;219.83540383939274;;;;;0;5;5;5;;;;;;;178.74934270000085;None;180.80746329994872;181.12453490006737;182.26567339990288;182.28258150001056;186.6490120999515;None;9;0;186.6490120999515;None;;;;;;;;9;;;;;;;188.19906329992227;None;None;None;[];188.19906329992227;None;"['9', '9', '9', '9']";"[0.3271196000277996, 0.6390914001967758, 0.9750244000460953, 1.2791522000916302]";188.19906329992227;None;0.3651752001605928;;;S10718;2021_Jul_02_1553;VideoMask;2021.1.2;119.1872384111576;
2.0;f;012_o_f_s_a.jpg;sad;7.0;sad_7.5ns.avi;sad;7.0;congruent;130.0;160.0;147.95125229894379;;;;;0;6;6;6;;;;;;;190.1990652999375;None;191.64887119992636;191.9655599000398;193.1322427999694;193.1489041999448;195.89071949990466;None;None;0;195.89071949990466;None;;;;;;;;5;;;;;;;198.08206739998423;None;None;None;[];198.08206739998423;None;None;;198.08206739998423;None;;;;S10718;2021_Jul_02_1553;VideoMask;2021.1.2;119.1872384111576;
2.0;f;012_o_f_s_a.jpg;sad;7.0;happy_52.2ns.avi;happy;9.0;incongruent;130.0;150.0;144.3898903070799;;;;;0;7;7;7;;;;;;;200.0986230999697;None;201.54069459997118;201.85688779992051;203.02366310008802;203.04022479988635;206.54057339997962;None;None;0;206.54057339997962;None;;;;;;;;5;;;;;;;208.32332079997286;None;None;None;[];208.32332079997286;None;None;;208.32332079997286;None;;;;S10718;2021_Jul_02_1553;VideoMask;2021.1.2;119.1872384111576;
0.0;f;040_y_f_s_a.jpg;sad;7.0;sad_67.2ns.avi;sad;7.0;congruent;130.0;160.0;192.80086779892653;;;;;0;8;8;8;;;;;;;210.34834009991027;None;212.2316473000683;212.5482530000154;213.714925999986;213.73226760001853;222.90645090001635;None;None;0;222.90645090001635;None;;;;;;;;2;;;;;;;224.45639949990436;None;None;None;[];224.45639949990436;None;"['7', '7', '7', '7']";"[0.36602670000866055, 0.7656963001936674, 1.1496251001954079, 1.4939026001375169]";224.45639949990436;None;;;;S10718;2021_Jul_02_1553;VideoMask;2021.1.2;119.1872384111576;
3.0;m;013_y_m_s_a.jpg;sad;7.0;happy_56.2ns.avi;happy;9.0;incongruent;130.0;150.0;134.62621969351147;;;;;0;9;9;9;;;;;;;226.46460919990204;None;227.82290180004202;228.13954110001214;229.2979174000211;229.31450189999305;234.29766479996033;None;None;0;234.29766479996033;None;;;;;;;;7;;;;;;;235.8476915000938;None;None;None;[];235.8476915000938;None;"['9', '9', '9']";"[0.30242960015311837, 0.7745056001003832, 1.2544772999826819]";235.8476915000938;None;;;;S10718;2021_Jul_02_1553;VideoMask;2021.1.2;119.1872384111576;
0.0;f;030_o_f_h_a.jpg;happy;9.0;sad_133.1.wmv;sad;7.0;incongruent;120.0;160.0;238.4103736452693;;;;;0;10;10;10;;;;;;;237.84755939990282;None;240.07235529995523;240.38910349993967;241.52247010008432;241.53905960009433;243.5224395999685;None;None;0;243.5224395999685;None;;;;;;;;5;;;;;;;245.0722262999043;None;None;None;[];245.0722262999043;None;None;;245.0722262999043;None;;;;S10718;2021_Jul_02_1553;VideoMask;2021.1.2;119.1872384111576;
2.0;f;012_o_f_h_a.jpg;happy;9.0;happy_2.2ns.avi;happy;9.0;congruent;140.0;150.0;120.08648649110712;;;;;0;11;11;11;;;;;;;247.0889087000396;None;248.37222860008478;248.6888572999742;249.8719756999053;249.88887359993532;262.0220520000439;None;None;0;262.0220520000439;None;;;;;;;;5;;;;;;;263.5718119998928;None;None;None;[];263.5718119998928;None;None;;263.5718119998928;None;;;;S10718;2021_Jul_02_1553;VideoMask;2021.1.2;119.1872384111576;
9.0;f;019_m_f_s_a.jpg;sad;7.0;sad_8.4ns.avi;sad;7.0;congruent;130.0;160.0;169.3395974323834;;;;;0;12;12;12;;;;;;;265.59680980001576;None;267.2800080999732;267.59638289990835;268.7298787999898;268.7466492000967;276.86315430002287;None;None;0;276.86315430002287;None;;;;;;;;3;;;;;;;278.41309090005234;None;None;None;[];278.41309090005234;None;"['7', '7']";"[0.3930073000956327, 0.8410496001597494]";278.41309090005234;None;;;;S10718;2021_Jul_02_1553;VideoMask;2021.1.2;119.1872384111576;
8.0;m;008_y_m_s_a.jpg;sad;7.0;sad_6.5ns.avi;sad;7.0;congruent;130.0;160.0;124.24628091899196;;;;;0;13;13;13;;;;;;;280.4130071999971;None;281.70458559994586;282.02113649994135;283.2297378999647;283.24652389995754;288.1545418999158;None;None;0;288.1545418999158;None;;;;;;;;5;;;;;;;289.7043294000905;None;None;None;[];289.7043294000905;None;None;;289.7043294000905;None;;;;S10718;2021_Jul_02_1553;VideoMask;2021.1.2;119.1872384111576;
1.0;f;021_o_f_h_a.jpg;happy;9.0;happy_12.1ns.avi;happy;9.0;congruent;140.0;150.0;236.6487020138435;;;;;0;14;14;14;;;;;;;291.7291047000326;None;293.9707315999549;294.2874634999316;295.46252229996026;295.4791649999097;303.03727509989403;None;None;0;303.03727509989403;None;;;;;;;;8;;;;;;;304.58706899988465;None;None;None;[];304.58706899988465;None;"['9', '9', '9']";"[0.3390009000431746, 0.786892700009048, 1.867124899988994]";304.58706899988465;None;;;;S10718;2021_Jul_02_1553;VideoMask;2021.1.2;119.1872384111576;
8.0;f;028_y_f_s_a.jpg;sad;7.0;sad_64.2ns.avi;sad;7.0;congruent;130.0;160.0;238.8507440172915;;;;;0;15;15;15;;;;;;;306.5955284999218;None;308.88715950003825;309.20396289997734;310.38686889992096;310.4037488999311;321.33686030004174;None;None;0;321.33686030004174;None;;;;;;;;3;;;;;;;322.96150920004584;None;None;None;[];322.96150920004584;None;"['7', '7']";"[0.3165394999086857, 0.64461539988406]";322.96150920004584;None;;;;S10718;2021_Jul_02_1553;VideoMask;2021.1.2;119.1872384111576;
2.0;f;012_o_f_s_a.jpg;sad;7.0;happy_139.1.wmv;happy;9.0;incongruent;130.0;150.0;185.59030554143408;;;;;0;16;16;16;;;;;;;324.97007020004094;None;326.74475449998863;327.06152749992907;328.19530669995584;328.2197433998808;330.20317659992725;None;None;0;330.20317659992725;None;;;;;;;;7;;;;;;;331.9864145000465;None;None;None;[];331.9864145000465;None;"['9', '9']";"[0.29165150015614927, 0.6837820999789983]";331.9864145000465;None;;;;S10718;2021_Jul_02_1553;VideoMask;2021.1.2;119.1872384111576;
3.0;m;033_o_m_s_a.jpg;sad;7.0;sad_64.5ns.avi;sad;7.0;congruent;130.0;160.0;159.52646627166388;;;;;0;17;17;17;;;;;;;333.98642969992943;None;335.5779714998789;335.8945237000007;337.0283091000747;337.0536203000229;343.6276938000228;None;None;0;343.6276938000228;None;;;;;;;;3;;;;;;;345.17797839990817;None;None;None;[];345.17797839990817;None;"['7', '7']";"[0.3081348000559956, 0.6119113001041114]";345.17797839990817;None;;;;S10718;2021_Jul_02_1553;VideoMask;2021.1.2;119.1872384111576;
0.0;f;040_y_f_s_a.jpg;sad;7.0;happy_127.3.wmv;happy;9.0;incongruent;130.0;150.0;131.0431594605889;;;;;0;18;18;18;;;;;;;347.1777888000943;None;348.4941076000687;348.8112256999593;349.9440299998969;349.9607756000478;352.0107138999738;None;None;0;352.0107138999738;None;;;;;;;;6;;;;;;;353.5606579000596;None;None;None;[];353.5606579000596;None;['9'];[0.21345009980723262];353.5606579000596;None;;;;S10718;2021_Jul_02_1553;VideoMask;2021.1.2;119.1872384111576;
3.0;m;033_o_m_h_a.jpg;happy;9.0;sad_128.1.wmv;sad;7.0;incongruent;120.0;160.0;168.97426303437265;;;;;0;19;19;19;;;;;;;355.56902029993944;None;357.2104758999776;357.52719089994207;358.6605777000077;358.6775972000323;360.6606391000096;None;None;0;360.6606391000096;None;;;;;;;;1;;;;;;;362.29363540001214;None;None;None;[];362.29363540001214;None;"['7', '7', '7', '7']";"[0.2084244000725448, 0.45628949999809265, 0.9204093001317233, 1.2563875000923872]";362.29363540001214;None;;;;S10718;2021_Jul_02_1553;VideoMask;2021.1.2;119.1872384111576;
9.0;f;019_m_f_h_a.jpg;happy;9.0;sad_115.1.wmv;sad;7.0;incongruent;120.0;160.0;202.13700247699333;;;;;0;20;20;20;;;;;;;364.3021996000316;None;366.2102502998896;366.52700749994256;367.6604198999703;367.67701600003056;369.6686491998844;None;None;0;369.6686491998844;None;;;;;;;;5;;;;;;;371.2183620999567;None;None;None;[];371.2183620999567;None;"['7', '9']";"[0.8359755999408662, 1.5877280998975039]";371.2183620999567;None;;;;S10718;2021_Jul_02_1553;VideoMask;2021.1.2;119.1872384111576;
8.0;m;008_y_m_h_a.jpg;happy;9.0;happy_1.2ns.avi;happy;9.0;congruent;140.0;150.0;155.22310421045015;;;;;0;21;21;21;;;;;;;373.2185078000184;None;374.8017726999242;375.1184022000525;376.2850800000597;376.30173139995895;389.0432458000723;None;None;0;389.0432458000723;None;;;;;;;;7;;;;;;;391.4100363999605;None;None;None;[];391.4100363999605;None;"['9', '9', '9']";"[0.2759103998541832, 0.6838812998030335, 1.1159377999138087]";391.4100363999605;None;;;;S10718;2021_Jul_02_1553;VideoMask;2021.1.2;119.1872384111576;
0.0;f;040_y_f_s_a.jpg;sad;7.0;sad_94.3ns.avi;sad;7.0;congruent;130.0;160.0;157.18644691248227;;;;;0;22;22;22;;;;;;;393.4269419000484;None;394.96762420004234;395.2844149998855;396.49287989991717;396.5094413999468;399.04270630003884;None;None;0;399.04270630003884;None;;;;;;;;3;;;;;;;400.7424868999515;None;None;None;[];400.7424868999515;None;"['7', '7']";"[0.287534800125286, 0.6474347000475973]";400.7424868999515;None;;;;S10718;2021_Jul_02_1553;VideoMask;2021.1.2;119.1872384111576;
6.0;m;016_y_m_s_a.jpg;sad;7.0;happy_60.4ns.avi;happy;9.0;incongruent;130.0;150.0;135.96622391936876;;;;;0;23;23;23;;;;;;;402.75097579997964;None;404.1425703999121;404.4590451999102;405.60915370006114;405.62590199988335;411.400573000079;None;9;0;411.400573000079;None;;;;;;;;6;;;;;;;412.95052620000206;None;None;None;[];412.95052620000206;None;['9'];[0.26340409996919334];412.95052620000206;None;0.3896297998726368;;;S10718;2021_Jul_02_1553;VideoMask;2021.1.2;119.1872384111576;
0.0;f;030_o_f_h_a.jpg;happy;9.0;happy_24.1ns.avi;happy;9.0;congruent;140.0;150.0;187.2363405679046;;;;;0;24;24;24;;;;;;;414.95051459991373;None;416.74187020002864;417.0587712000124;418.27539979992434;418.29210139997303;421.5253612000961;None;None;0;421.5253612000961;None;;;;;;;;5;;;;;;;423.0753158000298;None;None;None;[];423.0753158000298;None;None;;423.0753158000298;None;;;;S10718;2021_Jul_02_1553;VideoMask;2021.1.2;119.1872384111576;
8.0;m;008_y_m_s_a.jpg;sad;7.0;happy_133.3.wmv;happy;9.0;incongruent;130.0;150.0;151.65964880545846;;;;;0;25;25;25;;;;;;;425.1002203999087;None;426.59190570004284;426.9085089999717;428.0417798999697;428.0587681999896;430.0423455000855;None;None;0;430.0423455000855;None;;;;;;;;5;;;;;;;431.85836840001866;None;None;None;[];431.85836840001866;None;None;;431.85836840001866;None;;;;S10718;2021_Jul_02_1553;VideoMask;2021.1.2;119.1872384111576;
1.0;f;021_o_f_s_a.jpg;sad;7.0;happy_61.2ns.avi;happy;9.0;incongruent;130.0;150.0;146.79956415721207;;;;;0;26;26;26;;;;;;;433.88337559998035;None;435.3414578998927;435.6583582998719;436.80823519988917;436.8249444998801;441.32468930003233;None;None;0;441.32468930003233;None;;;;;;;;5;;;;;;;442.874818299897;None;None;None;[];442.874818299897;None;None;;442.874818299897;None;;;;S10718;2021_Jul_02_1553;VideoMask;2021.1.2;119.1872384111576;
1.0;f;021_o_f_h_a.jpg;happy;9.0;sad_116.1.wmv;sad;7.0;incongruent;120.0;160.0;205.93899364307754;;;;;0;27;27;27;;;;;;;444.89960259990767;None;446.8494520999957;447.16614230000414;448.29985329997726;448.3160168000031;450.2997025998775;None;None;0;450.2997025998775;None;;;;;;;;4;;;;;;;451.85769520001486;None;None;None;[];451.85769520001486;None;['7'];[0.4201996000483632];451.85769520001486;None;;;;S10718;2021_Jul_02_1553;VideoMask;2021.1.2;119.1872384111576;
7.0;m;027_o_m_h_a.jpg;happy;9.0;happy_20.1ns.avi;happy;9.0;congruent;140.0;150.0;145.4488529976734;;;;;0;28;28;28;;;;;;;453.8663717000745;None;455.315966400085;455.6325224000029;456.76593349990435;456.78252590005286;459.79920549993403;None;None;0;459.79920549993403;None;;;;;;;;7;;;;;;;461.4824292000849;None;None;None;[];461.4824292000849;None;"['9', '9', '9', '9']";"[0.2355080998968333, 0.6273010999429971, 1.0674016999546438, 1.5234675998799503]";461.4824292000849;None;;;;S10718;2021_Jul_02_1553;VideoMask;2021.1.2;119.1872384111576;
3.0;m;033_o_m_s_a.jpg;sad;7.0;happy_126.3.wmv;happy;9.0;incongruent;130.0;150.0;220.47504181707743;;;;;0;29;29;29;;;;;;;463.48238090006635;None;465.5488911999855;465.8656043000519;467.01624580007046;467.04877080000006;469.00725269992836;None;None;0;469.00725269992836;None;;;;;;;;5;;;;;;;470.55704850004986;None;None;None;[];470.55704850004986;None;None;;470.55704850004986;None;;;;S10718;2021_Jul_02_1553;VideoMask;2021.1.2;119.1872384111576;
4.0;m;004_o_m_s_a.jpg;sad;7.0;sad_2.4ns.avi;sad;7.0;congruent;130.0;160.0;153.9424691910033;;;;;0;30;30;30;;;;;;;472.5738013999071;None;474.09027409995906;474.4070452998858;475.6070771999657;475.6243614999112;483.5068318999838;None;None;0;483.5068318999838;None;;;;;;;;3;;;;;;;485.0483198999427;None;None;None;[];485.0483198999427;None;"['7', '7']";"[0.309544799849391, 0.6855107999872416]";485.0483198999427;None;;;;S10718;2021_Jul_02_1553;VideoMask;2021.1.2;119.1872384111576;
8.0;m;008_y_m_h_a.jpg;happy;9.0;sad_111.1.wmv;sad;7.0;incongruent;120.0;160.0;182.0123397825363;;;;;0;31;31;31;;;;;;;487.0567433000542;None;488.8148807999678;489.1316066000145;490.2566804999951;490.2733489999082;492.264989499934;None;None;0;492.264989499934;None;;;;;;;;5;;;;;;;493.8064770998899;None;None;None;[];493.8064770998899;None;None;;493.8064770998899;None;;;;S10718;2021_Jul_02_1553;VideoMask;2021.1.2;119.1872384111576;
4.0;m;004_o_m_h_a.jpg;happy;9.0;happy_1.1ns.avi;happy;9.0;congruent;140.0;150.0;145.41905773865074;;;;;0;32;32;32;;;;;;;495.8312607000116;None;497.34785560006276;497.6652104000095;498.83946070005186;498.8561525999103;513.2808974999934;None;None;0;513.2808974999934;None;;;;;;;;3;;;;;;;514.8315498000011;None;None;None;[];514.8315498000011;None;"['7', '7']";"[0.39856179989874363, 0.638196500018239]";514.8315498000011;None;;;;S10718;2021_Jul_02_1553;VideoMask;2021.1.2;119.1872384111576;
4.0;m;004_o_m_s_a.jpg;sad;7.0;happy_131.2.wmv;happy;9.0;incongruent;130.0;150.0;163.9874412082805;;;;;0;33;33;33;;;;;;;516.8308329000138;None;518.4306302000768;518.7473482000642;519.8977673999034;519.9222182000522;521.8806986999698;None;None;0;521.8806986999698;None;;;;;;;;5;;;;;;;523.9556781998836;None;None;None;[];523.9556781998836;None;None;;523.9556781998836;None;;;;S10718;2021_Jul_02_1553;VideoMask;2021.1.2;119.1872384111576;
2.0;f;012_o_f_h_a.jpg;happy;9.0;happy_27.1ns.avi;happy;9.0;congruent;140.0;150.0;207.9053492649655;;;;;0;34;34;34;;;;;;;525.9722666000016;None;527.9303552999627;528.247044299962;529.4138547000475;529.4304343999829;531.8808359999675;None;None;0;531.8808359999675;None;;;;;;;;5;;;;;;;533.8385244000237;None;None;None;[];533.8385244000237;None;None;;533.8385244000237;None;;;;S10718;2021_Jul_02_1553;VideoMask;2021.1.2;119.1872384111576;
7.0;m;027_o_m_s_a.jpg;sad;7.0;happy_117.3.wmv;happy;9.0;incongruent;130.0;150.0;218.0520785974414;;;;;0;35;35;35;;;;;;;535.8635356000159;None;537.9216958999168;538.2383536999114;539.3635344000068;539.3800744998734;541.3717451998964;None;None;0;541.3717451998964;None;;;;;;;;8;;;;;;;543.0137543000747;None;None;None;[];543.0137543000747;None;"['9', '9', '9']";"[0.25601199991069734, 0.568165399832651, 0.8800984998233616]";543.0137543000747;None;;;;S10718;2021_Jul_02_1553;VideoMask;2021.1.2;119.1872384111576;
2.0;f;012_o_f_h_a.jpg;happy;9.0;sad_113.1.wmv;sad;7.0;incongruent;120.0;160.0;192.53137802384992;;;;;0;36;36;36;;;;;;;545.0217663000803;None;546.8631084000226;547.1798531000968;548.304949299898;548.3214509000536;550.3132418000605;None;None;0;550.3132418000605;None;;;;;;;;5;;;;;;;551.8631492001005;None;None;None;[];551.8631492001005;None;None;;551.8631492001005;None;;;;S10718;2021_Jul_02_1553;VideoMask;2021.1.2;119.1872384111576;
8.0;f;028_y_f_h_a.jpg;happy;9.0;happy_23.1ns.avi;happy;9.0;congruent;140.0;150.0;159.76384515822056;;;;;0;37;37;37;;;;;;;553.8964064000174;None;555.4628564000595;555.7795124000404;556.9462705000769;556.9629160000477;561.487784500001;None;None;0;561.487784500001;None;;;;;;;;8;;;;;;;563.204233400058;None;None;None;[];563.204233400058;None;"['9', '9', '9', '9', '9']";"[0.22581530013121665, 0.4893227000720799, 1.009505100082606, 1.3534604001324624, 1.8015131000429392]";563.204233400058;None;;;;S10718;2021_Jul_02_1553;VideoMask;2021.1.2;119.1872384111576;
0.0;f;030_o_f_s_a.jpg;sad;7.0;sad_64.3ns.avi;sad;7.0;congruent;130.0;160.0;172.91738127163183;;;;;0;38;38;38;;;;;;;565.2044045999646;None;566.8959715000819;567.2125317000318;568.395868799882;568.412659100024;573.3458227999508;None;None;0;573.3458227999508;None;;;;;;;;5;;;;;;;574.8955651998986;None;None;None;[];574.8955651998986;None;None;;574.8955651998986;None;;;;S10718;2021_Jul_02_1553;VideoMask;2021.1.2;119.1872384111576;
6.0;m;016_y_m_h_a.jpg;happy;9.0;sad_114.1.wmv;sad;7.0;incongruent;120.0;160.0;196.03539454983184;;;;;0;39;39;39;;;;;;;576.9205437998753;None;578.7961418998893;579.1122832999099;580.2458075000905;580.2622664999217;582.2456326999236;None;None;0;582.2456326999236;None;;;;;;;;2;;;;;;;583.8121491000056;None;None;None;[];583.8121491000056;None;"['7', '7', '7', '7']";"[0.5375644001178443, 0.7857473001349717, 1.0664378001820296, 1.4015571000054479]";583.8121491000056;None;;;;S10718;2021_Jul_02_1553;VideoMask;2021.1.2;119.1872384111576;
6.0;m;016_y_m_s_a.jpg;sad;7.0;sad_8.3ns.avi;sad;7.0;congruent;130.0;160.0;139.87174075953956;;;;;0;40;40;40;;;;;;;585.8121034000069;None;587.237016600091;587.5535335000604;588.720351499971;588.7375707000028;596.4451367000584;None;None;0;596.4451367000584;None;;;;;;;;3;;;;;;;598.2531715999357;None;None;None;[];598.2531715999357;None;"['7', '7']";"[0.1924892000388354, 0.5124936001375318]";598.2531715999357;None;;;;S10718;2021_Jul_02_1553;VideoMask;2021.1.2;119.1872384111576;
7.0;m;027_o_m_s_a.jpg;sad;7.0;sad_10.4ns.avi;sad;7.0;congruent;130.0;160.0;163.89298117292617;;;;;0;41;41;41;;;;;;;600.2617172000464;None;601.8697587000206;602.1864906998817;603.3448433000594;603.3615153999999;606.4865450998768;None;None;0;606.4865450998768;None;;;;;;;;3;;;;;;;608.0278672000859;None;None;None;[];608.0278672000859;None;"['7', '7']";"[0.2178931999951601, 1.0018496999982744]";608.0278672000859;None;;;;S10718;2021_Jul_02_1553;VideoMask;2021.1.2;119.1872384111576;
3.0;m;013_y_m_h_a.jpg;happy;9.0;happy_9.1ns.avi;happy;9.0;congruent;140.0;150.0;128.37211756912527;;;;;0;42;42;42;;;;;;;610.0364345998969;None;611.3528199999128;611.6695198998787;612.8111745000351;612.8278985999059;616.0444668999407;None;None;0;616.0444668999407;None;;;;;;;;7;;;;;;;617.5944256000221;None;None;None;[];617.5944256000221;None;"['9', '9']";"[0.17942179995588958, 0.5472408998757601]";617.5944256000221;None;;;;S10718;2021_Jul_02_1553;VideoMask;2021.1.2;119.1872384111576;
7.0;m;027_o_m_h_a.jpg;happy;9.0;sad_117.1.wmv;sad;7.0;incongruent;120.0;160.0;163.19466748508617;;;;;0;43;43;43;;;;;;;619.5944022999611;None;621.1942310000304;621.5108453999273;622.6360728000291;622.6524308999069;624.6443209999707;None;None;0;624.6443209999707;None;;;;;;;;3;;;;;;;626.2275499999523;None;None;None;[];626.2275499999523;None;"['7', '7']";"[0.29016319988295436, 0.5782651999033988]";626.2275499999523;None;;;;S10718;2021_Jul_02_1553;VideoMask;2021.1.2;119.1872384111576;
4.0;m;004_o_m_h_a.jpg;happy;9.0;sad_95.1ns.avi;sad;7.0;incongruent;120.0;160.0;162.95060606286506;;;;;0;44;44;44;;;;;;;628.2358587998897;None;629.8772301001009;630.1939691000152;631.3605758000631;631.3773115000222;640.118901199894;None;None;0;640.118901199894;None;;;;;;;;3;;;;;;;641.6685319000389;None;None;None;[];641.6685319000389;None;"['7', '7']";"[0.22540049999952316, 0.5291840999852866]";641.6685319000389;None;;;;S10718;2021_Jul_02_1553;VideoMask;2021.1.2;119.1872384111576;
0.0;f;040_y_f_h_a.jpg;happy;9.0;sad_128.2.wmv;sad;7.0;incongruent;120.0;160.0;121.98396994352893;;;;;0;45;45;45;;;;;;;643.6770830999594;None;644.9186911999714;645.2352511999197;646.3933641999029;646.4100848999806;648.3684731998947;None;None;0;648.3684731998947;None;;;;;;;;5;;;;;;;649.9516241999809;None;None;None;[];649.9516241999809;None;None;;649.9516241999809;None;;;;S10718;2021_Jul_02_1553;VideoMask;2021.1.2;119.1872384111576;
0.0;f;040_y_f_h_a.jpg;happy;9.0;sad_138.1.wmv;sad;7.0;incongruent;120.0;160.0;195.60264978061832;;;;;0;46;46;46;;;;;;;651.9767189999111;None;653.8348300000653;654.1515720000025;655.276727899909;655.2931832999457;657.2848869999871;None;None;0;657.2848869999871;None;;;;;;;;5;;;;;;;658.8346927999519;None;None;None;[];658.8346927999519;None;None;;658.8346927999519;None;;;;S10718;2021_Jul_02_1553;VideoMask;2021.1.2;119.1872384111576;
8.0;m;008_y_m_s_a.jpg;sad;7.0;happy_29.1ns.avi;happy;9.0;incongruent;130.0;150.0;212.92407054126133;;;;;0;47;47;47;;;;;;;660.8512089001015;None;662.8513766999822;663.1679843999445;664.3096692999825;664.3263610000722;666.9929986000061;None;None;0;666.9929986000061;None;;;;;;;;7;;;;;;;668.5434165000916;None;None;None;[];668.5434165000916;None;"['9', '9']";"[0.1263044998049736, 0.4701324999332428]";668.5434165000916;None;;;;S10718;2021_Jul_02_1553;VideoMask;2021.1.2;119.1872384111576;
0.0;f;040_y_f_h_a.jpg;happy;9.0;happy_24.3ns.avi;happy;9.0;congruent;140.0;150.0;190.23859628619445;;;;;0;48;48;48;;;;;;;670.55121649988;None;672.3592870999128;672.676013499964;673.8675667999778;673.884449099889;675.7343587998766;None;None;0;675.7343587998766;None;;;;;;;;5;;;;;;;677.284143100027;None;None;None;[];677.284143100027;None;None;;677.284143100027;None;;;;S10718;2021_Jul_02_1553;VideoMask;2021.1.2;119.1872384111576;
3.0;m;033_o_m_h_a.jpg;happy;9.0;happy_24.2ns.avi;happy;9.0;congruent;140.0;150.0;127.28107088671867;;;;;0;49;49;49;;;;;;;679.3092485000379;None;680.6173672999721;680.9342012999114;682.093153799884;682.1176026999019;685.8092251000926;None;None;0;685.8092251000926;None;;;;;;;;5;;;;;;;687.3673628999386;None;None;None;[];687.3673628999386;None;None;;687.3673628999386;None;;;;S10718;2021_Jul_02_1553;VideoMask;2021.1.2;119.1872384111576;
9.0;f;019_m_f_s_a.jpg;sad;7.0;happy_61.1ns.avi;happy;9.0;incongruent;130.0;150.0;190.9434091532566;;;;;0;50;50;50;;;;;;;689.3923829998821;None;691.2505238000304;691.567110999953;692.7253745000344;692.7422430000734;700.0919959999155;None;None;0;700.0919959999155;None;;;;;;;;6;;;;;;;701.6419281000271;None;None;None;[];701.6419281000271;None;['9'];[0.2757153999991715];701.6419281000271;None;;;;S10718;2021_Jul_02_1553;VideoMask;2021.1.2;119.1872384111576;
8.0;f;028_y_f_h_a.jpg;happy;9.0;sad_119.1.wmv;sad;7.0;incongruent;120.0;160.0;178.10396226647933;;;;;0;51;51;51;;;;;;;703.6419349000789;None;705.3667969999369;705.6832888000645;706.8333856998943;706.8501514000818;708.8833745999727;None;None;0;708.8833745999727;None;;;;;;;;4;;;;;;;710.4333172000479;None;None;None;[];710.4333172000479;None;['7'];[0.49229169986210763];710.4333172000479;None;;;;S10718;2021_Jul_02_1553;VideoMask;2021.1.2;119.1872384111576;
3.0;m;033_o_m_h_a.jpg;happy;9.0;sad_136.1.wmv;sad;7.0;incongruent;120.0;160.0;206.04367658109783;;;;;0;52;52;52;;;;;;;712.4417749999557;None;714.3829439000692;714.6996988998726;715.8331120000221;715.8495978999417;717.833072300069;None;None;0;717.833072300069;None;;;;;;;;3;;;;;;;719.383404900087;None;None;None;[];719.383404900087;None;"['7', '7', '7']";"[0.3181994999758899, 0.622074699960649, 0.9662437001243234]";719.383404900087;None;;;;S10718;2021_Jul_02_1553;VideoMask;2021.1.2;119.1872384111576;
6.0;m;016_y_m_h_a.jpg;happy;9.0;happy_9.2ns.avi;happy;9.0;congruent;140.0;150.0;136.52220806776708;;;;;0;53;53;53;;;;;;;721.3914355998859;None;722.7743708000053;723.0912013000343;724.2829541000538;724.2995116999373;730.1494577000849;None;None;0;730.1494577000849;None;;;;;;;;6;;;;;;;731.6993231999222;None;None;None;[];731.6993231999222;None;['9'];[0.34623109991662204];731.6993231999222;None;;;;S10718;2021_Jul_02_1553;VideoMask;2021.1.2;119.1872384111576;
9.0;f;019_m_f_h_a.jpg;happy;9.0;happy_10.1ns.avi;happy;9.0;congruent;140.0;150.0;180.35091595488527;;;;;0;54;54;54;;;;;;;733.6993348000105;None;735.4740271000192;735.790724700084;736.9325292001013;736.9490553999785;744.3738855998963;None;None;0;744.3738855998963;None;;;;;;;;5;;;;;;;745.9239419999067;None;None;None;[];745.9239419999067;None;None;;745.9239419999067;None;;;;S10718;2021_Jul_02_1553;VideoMask;2021.1.2;119.1872384111576;
8.0;f;028_y_f_s_a.jpg;sad;7.0;happy_122.3.wmv;happy;9.0;incongruent;130.0;150.0;204.27932588393085;;;;;0;55;55;55;;;;;;;747.9488133999985;None;749.8985202000476;750.215195500059;751.3486878999975;751.3653885000385;753.3487525000237;None;None;0;753.3487525000237;None;;;;;;;;6;;;;;;;754.8984352999832;None;None;None;[];754.8984352999832;None;"['9', '9']";"[0.24321960005909204, 0.7791885999031365]";754.8984352999832;None;;;;S10718;2021_Jul_02_1553;VideoMask;2021.1.2;119.1872384111576;
3.0;m;013_y_m_s_a.jpg;sad;7.0;sad_7.7ns.avi;sad;7.0;congruent;130.0;160.0;192.40728800739942;;;;;0;56;56;56;;;;;;;756.8986670000013;None;758.7650786999147;759.0817740000784;760.2484440000262;760.2651305999607;766.2155166000593;None;None;0;766.2155166000593;None;;;;;;;;3;;;;;;;767.7647873000242;None;None;None;[];767.7647873000242;None;"['7', '7']";"[0.2969081001356244, 0.6646918000187725]";767.7647873000242;None;;;;S10718;2021_Jul_02_1553;VideoMask;2021.1.2;119.1872384111576;
3.0;m;013_y_m_h_a.jpg;happy;9.0;sad_113.2.wmv;sad;7.0;incongruent;120.0;160.0;219.6544115751568;;;;;0;57;57;57;;;;;;;769.7648948000278;None;771.8483176999725;772.1647077000234;773.2987379000988;773.3314658999443;775.2980734000448;None;None;0;775.2980734000448;None;;;;;;;;4;;;;;;;776.8480056999251;None;None;None;[];776.8480056999251;None;['7'];[0.23749359999783337];776.8480056999251;None;;;;S10718;2021_Jul_02_1553;VideoMask;2021.1.2;119.1872384111576;
4.0;m;004_o_m_h_a.jpg;happy;9.0;happy_25.1ns.avi;happy;9.0;congruent;140.0;150.0;237.98255695511958;;;;;0;58;58;58;;;;;;;778.8478437000886;None;781.0642635999247;781.380940000061;782.5977413998917;782.614366899943;786.2060030999128;None;None;0;786.2060030999128;None;;;;;;;;5;;;;;;;787.7558571998961;None;None;None;[];787.7558571998961;None;None;;787.7558571998961;None;;;;S10718;2021_Jul_02_1553;VideoMask;2021.1.2;119.1872384111576;
0.0;f;030_o_f_h_a.jpg;happy;9.0;sad_127.1.wmv;sad;7.0;incongruent;120.0;160.0;231.85538291836468;;;;;0;59;59;59;;;;;;;789.7807215999346;None;791.9473532000557;792.2641247999854;793.3891886000056;793.4057978000492;795.3979354999028;None;None;0;795.3979354999028;None;;;;;;;;5;;;;;;;797.0554881000426;None;None;None;[];797.0554881000426;None;None;;797.0554881000426;None;;;;S10718;2021_Jul_02_1553;VideoMask;2021.1.2;119.1872384111576;
;;;;;;;;;;;;;;;;;;;;;;;;;;;;;;;;;;;;;;;;;;;;;;;;;;;;;;;;;;;;;;;;799.0806199000217;None;;;;;;
