primePerson;primeGender;prime;primeEmotion;corrAnsPrime;target;targetEmotion;corrAnsTar;Cond;ID_Primer;ID_Target;JitterTime;example.thisRepN;example.thisTrialN;example.thisN;example.thisIndex;study.thisRepN;study.thisTrialN;study.thisN;study.thisIndex;MR_trigger_time;MR_trigger_number;text_intro.started;text_intro.stopped;text_probe.started;text_probe.stopped;polygon_ISI.started;polygon_ISI.stopped;polygon.started;polygon.stopped;primerImage.started;primerImage.stopped;response.started;response.stopped;key_resp.keys;key_resp.corr;key_resp.started;key_resp.stopped;slider_Text.started;slider_Text.stopped;slider_ex.response;slider_ex.rt;slider_ex.history;slider_ex.started;slider_ex.stopped;Rating;slider_resp_response.keys;slider_resp_response.started;slider_resp_response.stopped;text_start.started;text_start.stopped;text_slider.started;text_slider.stopped;slider_stud.response;slider_stud.rt;slider_stud.history;slider_stud.started;slider_stud.stopped;slider_resp_study.keys;slider_resp_study.started;slider_resp_study.stopped;text_ende.started;text_ende.stopped;participant;date;expName;psychopyVersion;frameRate;
1111;m;1111_m_m_h_a.jpg;happy;9;example_30.4ns.avi;neutral;7;incongruent;120.0;170.0;189.5874364012288;0;0;0;0;;;;;33.619886700063944;1;33.69735919998493;35.69754060008563;35.69754060008563;None;37.714739500079304;None;41.45614190003835;41.77219699998386;42.97233500005677;42.989667500020005;47.2472676000325;None;None;0;47.2472676000325;None;48.79706970008556;None;None;None;[];48.79706970008556;None;5;None;48.79706970008556;None;;;;;;;;;;;;;;;EmoCon004;2021_Jun_18_1330;VideoMask;2021.1.2;119.97902772973748;
1113;f;1113_y_f_s_a.jpg;sad;7;example_30.3ns.avi;neutral;7;incongruent;130.0;170.0;229.02432995836998;0;1;1;1;;;;;;;;;;;50.82187280000653;None;52.95511570002418;53.27203220000956;54.5303450000938;54.54693810001481;56.405231500044465;None;None;0;56.405231500044465;None;57.963761100079864;None;None;None;[];57.963761100079864;None;5;None;57.963761100079864;None;;;;;;;;;;;;;;;EmoCon004;2021_Jun_18_1330;VideoMask;2021.1.2;119.97902772973748;
3.0;m;033_o_m_s_a.jpg;sad;7.0;sad_94.2ns.avi;sad;7.0;congruent;130.0;160.0;228.63582583242618;;;;;0;0;0;0;;;;;;;60.99676120001823;None;63.113229500013404;63.429910400067456;64.62976759998128;64.6463902000105;67.25571300007869;None;None;0;67.25571300007869;None;;;;;;;;5;;;;59.98864740005229;None;68.81355590000749;None;None;None;[];68.81355590000749;None;None;68.81355590000749;None;;;EmoCon004;2021_Jun_18_1330;VideoMask;2021.1.2;119.97902772973748;
0.0;f;030_o_f_s_a.jpg;sad;7.0;sad_68.1ns.avi;sad;7.0;congruent;130.0;160.0;163.14738846961149;;;;;0;1;1;1;;;;;;;70.83813950000331;None;72.43793290003669;72.75462999998126;73.95507989998441;73.9797856999794;81.31276720005553;None;None;0;81.31276720005553;None;;;;;;;;5;;;;;;82.86301680002362;None;None;None;[];82.86301680002362;None;None;82.86301680002362;None;;;EmoCon004;2021_Jun_18_1330;VideoMask;2021.1.2;119.97902772973748;
8.0;m;008_y_m_h_a.jpg;happy;9.0;happy_26.1ns.avi;happy;9.0;congruent;140.0;150.0;184.58211837191982;;;;;0;2;2;2;;;;;;;84.89607290003914;None;86.63749710004777;86.95439070009161;88.17093520006165;88.18758939998224;90.07919220009353;None;None;0;90.07919220009353;None;;;;;;;;5;;;;;;91.62919050001074;None;None;None;[];91.62919050001074;None;None;91.62919050001074;None;;;EmoCon004;2021_Jun_18_1330;VideoMask;2021.1.2;119.97902772973748;
0.0;f;030_o_f_s_a.jpg;sad;7.0;happy_125.3.wmv;happy;9.0;incongruent;130.0;150.0;189.50417957278896;;;;;0;3;3;3;;;;;;;93.64572690008208;None;95.45389060000889;95.77064570004586;96.90438160009217;96.92932750005275;98.90394109999761;None;None;0;98.90394109999761;None;;;;;;;;5;;;;;;100.45394630008377;None;None;None;[];100.45394630008377;None;None;100.45394630008377;None;;;EmoCon004;2021_Jun_18_1330;VideoMask;2021.1.2;119.97902772973748;
1.0;f;021_o_f_s_a.jpg;sad;7.0;sad_9.5ns.avi;sad;7.0;congruent;130.0;160.0;156.55128602613038;;;;;0;4;4;4;;;;;;;102.4869725999888;None;104.01200470002368;104.3286805000389;105.52032460004557;105.53692099999171;111.18695010000374;None;None;0;111.18695010000374;None;;;;;;;;5;;;;;;112.73666799999774;None;None;None;[];112.73666799999774;None;None;112.73666799999774;None;;;EmoCon004;2021_Jun_18_1330;VideoMask;2021.1.2;119.97902772973748;
4.0;m;004_o_m_s_a.jpg;sad;7.0;happy_28.1ns.avi;happy;9.0;incongruent;130.0;150.0;219.83540383939274;;;;;0;5;5;5;;;;;;;114.75334689998999;None;116.80342630005907;117.11997260001954;118.31998510006815;118.3366666000802;122.64495520002674;None;None;0;122.64495520002674;None;;;;;;;;5;;;;;;124.20320009998977;None;None;None;[];124.20320009998977;None;None;124.20320009998977;None;;;EmoCon004;2021_Jun_18_1330;VideoMask;2021.1.2;119.97902772973748;
2.0;f;012_o_f_s_a.jpg;sad;7.0;sad_7.5ns.avi;sad;7.0;congruent;130.0;160.0;147.95125229894379;;;;;0;6;6;6;;;;;;;126.2197135000024;None;127.65289740008302;127.96960940002464;129.17796610004734;129.19474569999147;131.8947623000713;None;None;0;131.8947623000713;None;;;;;;;;5;;;;;;133.45324780000374;None;None;None;[];133.45324780000374;None;None;133.45324780000374;None;;;EmoCon004;2021_Jun_18_1330;VideoMask;2021.1.2;119.97902772973748;
2.0;f;012_o_f_s_a.jpg;sad;7.0;happy_52.2ns.avi;happy;9.0;incongruent;130.0;150.0;144.3898903070799;;;;;0;7;7;7;;;;;;;135.47765970008913;None;136.89433190005366;137.21101760002784;138.41942450008355;138.43669010000303;141.90330480004195;None;None;0;141.90330480004195;None;;;;;;;;5;;;;;;143.4607952000806;None;None;None;[];143.4607952000806;None;None;143.4607952000806;None;;;EmoCon004;2021_Jun_18_1330;VideoMask;2021.1.2;119.97902772973748;
0.0;f;040_y_f_s_a.jpg;sad;7.0;sad_67.2ns.avi;sad;7.0;congruent;130.0;160.0;192.80086779892653;;;;;0;8;8;8;;;;;;;145.4858922000276;None;147.32727190002333;147.6441657000687;148.85227450006641;148.86910110001918;158.0022504000226;None;None;0;158.0022504000226;None;;;;;;;;5;;;;;;159.55199509998783;None;None;None;[];159.55199509998783;None;None;159.55199509998783;None;;;EmoCon004;2021_Jun_18_1330;VideoMask;2021.1.2;119.97902772973748;
3.0;m;013_y_m_s_a.jpg;sad;7.0;happy_56.2ns.avi;happy;9.0;incongruent;130.0;150.0;134.62621969351147;;;;;0;9;9;9;;;;;;;161.57709120004438;None;162.91856430005282;163.24387270002626;164.43529380008113;164.45197330007795;169.39356470003258;None;None;0;169.39356470003258;None;;;;;;;;5;;;;;;170.9432783999946;None;None;None;[];170.9432783999946;None;None;170.9432783999946;None;;;EmoCon004;2021_Jun_18_1330;VideoMask;2021.1.2;119.97902772973748;
0.0;f;030_o_f_h_a.jpg;happy;9.0;sad_133.1.wmv;sad;7.0;incongruent;120.0;160.0;238.4103736452693;;;;;0;10;10;10;;;;;;;172.95982870005537;None;175.17662400007248;175.4936991999857;176.62704170006327;176.65157630003523;178.6267045000568;None;None;0;178.6267045000568;None;;;;;;;;5;;;;;;180.17632990004495;None;None;None;[];180.17632990004495;None;None;180.17632990004495;None;;;EmoCon004;2021_Jun_18_1330;VideoMask;2021.1.2;119.97902772973748;
2.0;f;012_o_f_h_a.jpg;happy;9.0;happy_2.2ns.avi;happy;9.0;congruent;140.0;150.0;120.08648649110712;;;;;0;11;11;11;;;;;;;182.1929646000499;None;183.45120360003784;183.7679287000792;184.9511018000776;184.97675780009013;197.10114859999157;None;None;0;197.10114859999157;None;;;;;;;;5;;;;;;198.65927000006195;None;None;None;[];198.65927000006195;None;None;198.65927000006195;None;;;EmoCon004;2021_Jun_18_1330;VideoMask;2021.1.2;119.97902772973748;
9.0;f;019_m_f_s_a.jpg;sad;7.0;sad_8.4ns.avi;sad;7.0;congruent;130.0;160.0;169.3395974323834;;;;;0;12;12;12;;;;;;;200.69263740000315;None;202.35086180001963;202.66737590008415;203.87555270001758;203.89221570000518;211.94285140000284;None;None;0;211.94285140000284;None;;;;;;;;5;;;;;;213.51764340000227;None;None;None;[];213.51764340000227;None;None;213.51764340000227;None;;;EmoCon004;2021_Jun_18_1330;VideoMask;2021.1.2;119.97902772973748;
8.0;m;008_y_m_s_a.jpg;sad;7.0;sad_6.5ns.avi;sad;7.0;congruent;130.0;160.0;124.24628091899196;;;;;0;13;13;13;;;;;;;215.54212100000586;None;216.81683000002522;217.13377050007693;218.29208789998665;218.30857910006307;223.26684810000006;None;None;0;223.26684810000006;None;;;;;;;;5;;;;;;224.81687500001863;None;None;None;[];224.81687500001863;None;None;224.81687500001863;None;;;EmoCon004;2021_Jun_18_1330;VideoMask;2021.1.2;119.97902772973748;
1.0;f;021_o_f_h_a.jpg;happy;9.0;happy_12.1ns.avi;happy;9.0;congruent;140.0;150.0;236.6487020138435;;;;;0;14;14;14;;;;;;;226.84179000009317;None;229.06670450000092;229.3832780000521;230.5250139000127;230.54165280004963;238.13309080002364;None;None;0;238.13309080002364;None;;;;;;;;5;;;;;;239.68314830004238;None;None;None;[];239.68314830004238;None;None;239.68314830004238;None;;;EmoCon004;2021_Jun_18_1330;VideoMask;2021.1.2;119.97902772973748;
8.0;f;028_y_f_s_a.jpg;sad;7.0;sad_64.2ns.avi;sad;7.0;congruent;130.0;160.0;238.8507440172915;;;;;0;15;15;15;;;;;;;241.6994849999901;None;243.93270000000484;244.24947670008987;245.4159657000564;245.43292920000385;256.3824913999997;None;None;0;256.3824913999997;None;;;;;;;;5;;;;;;257.9327364000492;None;None;None;[];257.9327364000492;None;None;257.9327364000492;None;;;EmoCon004;2021_Jun_18_1330;VideoMask;2021.1.2;119.97902772973748;
2.0;f;012_o_f_s_a.jpg;sad;7.0;happy_139.1.wmv;happy;9.0;incongruent;130.0;150.0;185.59030554143408;;;;;0;16;16;16;;;;;;;259.94896820001304;None;261.71559160004836;262.0329682000447;263.1660897000693;263.19070080004167;265.1656057999935;None;None;0;265.1656057999935;None;;;;;;;;5;;;;;;266.71560039999895;None;None;None;[];266.71560039999895;None;None;266.71560039999895;None;;;EmoCon004;2021_Jun_18_1330;VideoMask;2021.1.2;119.97902772973748;
3.0;m;033_o_m_s_a.jpg;sad;7.0;sad_64.5ns.avi;sad;7.0;congruent;130.0;160.0;159.52646627166388;;;;;0;17;17;17;;;;;;;268.7488471000688;None;270.2987898000283;270.61536340008024;271.7733909999952;271.7904271000298;278.3318100000033;None;None;0;278.3318100000033;None;;;;;;;;5;;;;;;279.88210919999983;None;None;None;[];279.88210919999983;None;None;279.88210919999983;None;;;EmoCon004;2021_Jun_18_1330;VideoMask;2021.1.2;119.97902772973748;
0.0;f;040_y_f_s_a.jpg;sad;7.0;happy_127.3.wmv;happy;9.0;incongruent;130.0;150.0;131.0431594605889;;;;;0;18;18;18;;;;;;;281.9065845999867;None;283.22327550000045;283.539947799989;284.6650969000766;284.6823742000852;286.74009760003537;None;None;0;286.74009760003537;None;;;;;;;;5;;;;;;288.2899861000478;None;None;None;[];288.2899861000478;None;None;288.2899861000478;None;;;EmoCon004;2021_Jun_18_1330;VideoMask;2021.1.2;119.97902772973748;
3.0;m;033_o_m_h_a.jpg;happy;9.0;sad_128.1.wmv;sad;7.0;incongruent;120.0;160.0;168.97426303437265;;;;;0;19;19;19;;;;;;;290.31486410007346;None;291.9480429000687;292.2647528999951;293.3897519999882;293.4063212000765;295.39801590004936;None;None;0;295.39801590004936;None;;;;;;;;5;;;;;;296.9480358000146;None;None;None;[];296.9480358000146;None;None;296.9480358000146;None;;;EmoCon004;2021_Jun_18_1330;VideoMask;2021.1.2;119.97902772973748;
9.0;f;019_m_f_h_a.jpg;happy;9.0;sad_115.1.wmv;sad;7.0;incongruent;120.0;160.0;202.13700247699333;;;;;0;20;20;20;;;;;;;298.9812049000757;None;300.88940650003497;301.2060962000396;302.3312186000403;302.34771460003685;304.33123610005714;None;None;0;304.33123610005714;None;;;;;;;;5;;;;;;305.88088379998226;None;None;None;[];305.88088379998226;None;None;305.88088379998226;None;;;EmoCon004;2021_Jun_18_1330;VideoMask;2021.1.2;119.97902772973748;
8.0;m;008_y_m_h_a.jpg;happy;9.0;happy_1.2ns.avi;happy;9.0;congruent;140.0;150.0;155.22310421045015;;;;;0;21;21;21;;;;;;;307.8976500000572;None;309.44742410001345;309.7642075000331;310.8891871999949;310.90596090001054;323.6890019000275;None;None;0;323.6890019000275;None;;;;;;;;5;;;;;;325.23924570006784;None;None;None;[];325.23924570006784;None;None;325.23924570006784;None;;;EmoCon004;2021_Jun_18_1330;VideoMask;2021.1.2;119.97902772973748;
0.0;f;040_y_f_s_a.jpg;sad;7.0;sad_94.3ns.avi;sad;7.0;congruent;130.0;160.0;157.18644691248227;;;;;0;22;22;22;;;;;;;327.27208580006845;None;328.7886051000096;329.10528420004994;330.28865830006544;330.3052985999966;332.8635762000922;None;None;0;332.8635762000922;None;;;;;;;;5;;;;;;334.4135655000573;None;None;None;[];334.4135655000573;None;None;334.4135655000573;None;;;EmoCon004;2021_Jun_18_1330;VideoMask;2021.1.2;119.97902772973748;
6.0;m;016_y_m_s_a.jpg;sad;7.0;happy_60.4ns.avi;happy;9.0;incongruent;130.0;150.0;135.96622391936876;;;;;0;23;23;23;;;;;;;336.438410700066;None;337.7882652999833;338.10499150003307;339.29672770004254;339.31341940001585;345.0297478000866;None;None;0;345.0297478000866;None;;;;;;;;5;;;;;;346.57975100004114;None;None;None;[];346.57975100004114;None;None;346.57975100004114;None;;;EmoCon004;2021_Jun_18_1330;VideoMask;2021.1.2;119.97902772973748;
0.0;f;030_o_f_h_a.jpg;happy;9.0;happy_24.1ns.avi;happy;9.0;congruent;140.0;150.0;187.2363405679046;;;;;0;24;24;24;;;;;;;348.604603099986;None;350.3879558000481;350.704612200032;351.94610180007294;351.9627713999944;355.1629757999908;None;None;0;355.1629757999908;None;;;;;;;;5;;;;;;356.71268690004945;None;None;None;[];356.71268690004945;None;None;356.71268690004945;None;;;EmoCon004;2021_Jun_18_1330;VideoMask;2021.1.2;119.97902772973748;
8.0;m;008_y_m_s_a.jpg;sad;7.0;happy_133.3.wmv;happy;9.0;incongruent;130.0;150.0;151.65964880545846;;;;;0;25;25;25;;;;;;;358.7377768000588;None;360.22931990004145;360.546004600008;361.6710980000207;361.68773220002186;363.67931949999183;None;None;0;363.67931949999183;None;;;;;;;;5;;;;;;365.2291597999865;None;None;None;[];365.2291597999865;None;None;365.2291597999865;None;;;EmoCon004;2021_Jun_18_1330;VideoMask;2021.1.2;119.97902772973748;
1.0;f;021_o_f_s_a.jpg;sad;7.0;happy_61.2ns.avi;happy;9.0;incongruent;130.0;150.0;146.79956415721207;;;;;0;26;26;26;;;;;;;367.2456984000746;None;368.6791289000539;369.004317700048;370.1873432000866;370.2041749000782;374.6540808000136;None;None;0;374.6540808000136;None;;;;;;;;5;;;;;;376.20397690008394;None;None;None;[];376.20397690008394;None;None;376.20397690008394;None;;;EmoCon004;2021_Jun_18_1330;VideoMask;2021.1.2;119.97902772973748;
1.0;f;021_o_f_h_a.jpg;happy;9.0;sad_116.1.wmv;sad;7.0;incongruent;120.0;160.0;205.93899364307754;;;;;0;27;27;27;;;;;;;378.22042310005054;None;380.1536974000046;380.4704325000057;381.60416460002307;381.6290969999973;383.6042882000329;None;None;0;383.6042882000329;None;;;;;;;;5;;;;;;385.16219489998184;None;None;None;[];385.16219489998184;None;None;385.16219489998184;None;;;EmoCon004;2021_Jun_18_1330;VideoMask;2021.1.2;119.97902772973748;
7.0;m;027_o_m_h_a.jpg;happy;9.0;happy_20.1ns.avi;happy;9.0;congruent;140.0;150.0;145.4488529976734;;;;;0;28;28;28;;;;;;;387.1871160999872;None;388.620082700043;388.9367941999808;390.08687220001593;390.1034838000778;393.0867047000211;None;None;0;393.0867047000211;None;;;;;;;;5;;;;;;394.6370147999842;None;None;None;[];394.6370147999842;None;None;394.6370147999842;None;;;EmoCon004;2021_Jun_18_1330;VideoMask;2021.1.2;119.97902772973748;
3.0;m;033_o_m_s_a.jpg;sad;7.0;happy_126.3.wmv;happy;9.0;incongruent;130.0;150.0;220.47504181707743;;;;;0;29;29;29;;;;;;;396.6616649000207;None;398.7197213000618;399.03643109998666;400.16960300004575;400.1871918999823;402.1697987000225;None;None;0;402.1697987000225;None;;;;;;;;5;;;;;;403.719633800094;None;None;None;[];403.719633800094;None;None;403.719633800094;None;;;EmoCon004;2021_Jun_18_1330;VideoMask;2021.1.2;119.97902772973748;
4.0;m;004_o_m_s_a.jpg;sad;7.0;sad_2.4ns.avi;sad;7.0;congruent;130.0;160.0;153.9424691910033;;;;;0;30;30;30;;;;;;;405.74461779999547;None;407.2611582999816;407.58635420002975;408.76974430005066;408.78626760002226;416.67770580004435;None;None;0;416.67770580004435;None;;;;;;;;5;;;;;;418.2365427000914;None;None;None;[];418.2365427000914;None;None;418.2365427000914;None;;;EmoCon004;2021_Jun_18_1330;VideoMask;2021.1.2;119.97902772973748;
8.0;m;008_y_m_h_a.jpg;happy;9.0;sad_111.1.wmv;sad;7.0;incongruent;120.0;160.0;182.0123397825363;;;;;0;31;31;31;;;;;;;420.25240890006535;None;422.00243240001146;422.31911480007693;423.4441733000567;423.46080410003196;425.4526166000869;None;None;0;425.4526166000869;None;;;;;;;;5;;;;;;427.00223580002785;None;None;None;[];427.00223580002785;None;None;427.00223580002785;None;;;EmoCon004;2021_Jun_18_1330;VideoMask;2021.1.2;119.97902772973748;
4.0;m;004_o_m_h_a.jpg;happy;9.0;happy_1.1ns.avi;happy;9.0;congruent;140.0;150.0;145.41905773865074;;;;;0;32;32;32;;;;;;;429.03572170005646;None;430.51905970007647;430.83557960006874;432.03620860003866;432.05216219997965;446.4608231000602;None;None;0;446.4608231000602;None;;;;;;;;5;;;;;;448.0599472000031;None;None;None;[];448.0599472000031;None;None;448.0599472000031;None;;;EmoCon004;2021_Jun_18_1330;VideoMask;2021.1.2;119.97902772973748;
4.0;m;004_o_m_s_a.jpg;sad;7.0;happy_131.2.wmv;happy;9.0;incongruent;130.0;150.0;163.9874412082805;;;;;0;33;33;33;;;;;;;450.07655680004973;None;451.6764676000457;451.99323340004776;453.1263842000626;453.1430583000183;455.12654890003614;None;None;0;455.12654890003614;None;;;;;;;;5;;;;;;456.6767487000907;None;None;None;[];456.6767487000907;None;None;456.6767487000907;None;;;EmoCon004;2021_Jun_18_1330;VideoMask;2021.1.2;119.97902772973748;
2.0;f;012_o_f_h_a.jpg;happy;9.0;happy_27.1ns.avi;happy;9.0;congruent;140.0;150.0;207.9053492649655;;;;;0;34;34;34;;;;;;;458.69295440008864;None;460.6262541000033;460.9429751000134;462.1763957000803;462.1930073000258;464.5679662000621;None;None;0;464.5679662000621;None;;;;;;;;5;;;;;;466.117710200022;None;None;None;[];466.117710200022;None;None;466.117710200022;None;;;EmoCon004;2021_Jun_18_1330;VideoMask;2021.1.2;119.97902772973748;
7.0;m;027_o_m_s_a.jpg;sad;7.0;happy_117.3.wmv;happy;9.0;incongruent;130.0;150.0;218.0520785974414;;;;;0;35;35;35;;;;;;;468.15118400007486;None;470.1933182000648;470.50931090000086;471.6427991000237;471.65931300004013;473.642866600072;None;None;0;473.642866600072;None;;;;;;;;5;;;;;;475.19252120004967;None;None;None;[];475.19252120004967;None;None;475.19252120004967;None;;;EmoCon004;2021_Jun_18_1330;VideoMask;2021.1.2;119.97902772973748;
2.0;f;012_o_f_h_a.jpg;happy;9.0;sad_113.1.wmv;sad;7.0;incongruent;120.0;160.0;192.53137802384992;;;;;0;36;36;36;;;;;;;477.2173892999999;None;479.03395820001606;479.3507558000274;480.47581279999577;480.49238609999884;482.48423589998856;None;None;0;482.48423589998856;None;;;;;;;;5;;;;;;484.0338300000876;None;None;None;[];484.0338300000876;None;None;484.0338300000876;None;;;EmoCon004;2021_Jun_18_1330;VideoMask;2021.1.2;119.97902772973748;
8.0;f;028_y_f_h_a.jpg;happy;9.0;happy_23.1ns.avi;happy;9.0;congruent;140.0;150.0;159.76384515822056;;;;;0;37;37;37;;;;;;;486.0504783000797;None;487.6004583000904;487.91729800007306;489.0588820000412;489.0755078000948;493.63376420002896;None;None;0;493.63376420002896;None;;;;;;;;5;;;;;;495.18373819999397;None;None;None;[];495.18373819999397;None;None;495.18373819999397;None;;;EmoCon004;2021_Jun_18_1330;VideoMask;2021.1.2;119.97902772973748;
0.0;f;030_o_f_s_a.jpg;sad;7.0;sad_64.3ns.avi;sad;7.0;congruent;130.0;160.0;172.91738127163183;;;;;0;38;38;38;;;;;;;497.20866160001606;None;498.8667541000759;499.18355379998684;500.3418719000183;500.35849990008865;505.3168433000101;None;None;0;505.3168433000101;None;;;;;;;;5;;;;;;506.8666811999865;None;None;None;[];506.8666811999865;None;None;506.8666811999865;None;;;EmoCon004;2021_Jun_18_1330;VideoMask;2021.1.2;119.97902772973748;
6.0;m;016_y_m_h_a.jpg;happy;9.0;sad_114.1.wmv;sad;7.0;incongruent;120.0;160.0;196.03539454983184;;;;;0;39;39;39;;;;;;;508.8916115000611;None;510.7496583000757;511.06646250002086;512.1996215999825;512.2251520000864;514.199674100033;None;None;0;514.199674100033;None;;;;;;;;5;;;;;;516.1078476000112;None;None;None;[];516.1078476000112;None;None;516.1078476000112;None;;;EmoCon004;2021_Jun_18_1330;VideoMask;2021.1.2;119.97902772973748;
6.0;m;016_y_m_s_a.jpg;sad;7.0;sad_8.3ns.avi;sad;7.0;congruent;130.0;160.0;139.87174075953956;;;;;0;40;40;40;;;;;;;518.1328882999951;None;519.5328278000234;519.8496720000403;521.0162636000896;521.0329362000339;528.7410040000686;None;None;0;528.7410040000686;None;;;;;;;;5;;;;;;530.2912840000354;None;None;None;[];530.2912840000354;None;None;530.2912840000354;None;;;EmoCon004;2021_Jun_18_1330;VideoMask;2021.1.2;119.97902772973748;
7.0;m;027_o_m_s_a.jpg;sad;7.0;sad_10.4ns.avi;sad;7.0;congruent;130.0;160.0;163.89298117292617;;;;;0;41;41;41;;;;;;;532.3075082000578;None;533.8823921000585;534.1995989000425;535.349152800045;535.3657988000195;538.4991046000505;None;None;0;538.4991046000505;None;;;;;;;;5;;;;;;540.0489477000665;None;None;None;[];540.0489477000665;None;None;540.0489477000665;None;;;EmoCon004;2021_Jun_18_1330;VideoMask;2021.1.2;119.97902772973748;
3.0;m;013_y_m_h_a.jpg;happy;9.0;happy_9.1ns.avi;happy;9.0;congruent;140.0;150.0;128.37211756912527;;;;;0;42;42;42;;;;;;;542.07386210002;None;543.3570730000501;543.6738758999854;544.8405145000434;544.8572977000149;548.0488375000423;None;None;0;548.0488375000423;None;;;;;;;;5;;;;;;549.6070738000562;None;None;None;[];549.6070738000562;None;None;549.6070738000562;None;;;EmoCon004;2021_Jun_18_1330;VideoMask;2021.1.2;119.97902772973748;
7.0;m;027_o_m_h_a.jpg;happy;9.0;sad_117.1.wmv;sad;7.0;incongruent;120.0;160.0;163.19466748508617;;;;;0;43;43;43;;;;;;;551.623564700014;None;553.215103500057;553.5318740000948;554.6569852000102;554.673531300039;556.6652512000874;None;None;0;556.6652512000874;None;;;;;;;;5;;;;;;558.2151680000825;None;None;None;[];558.2151680000825;None;None;558.2151680000825;None;;;EmoCon004;2021_Jun_18_1330;VideoMask;2021.1.2;119.97902772973748;
4.0;m;004_o_m_h_a.jpg;happy;9.0;sad_95.1ns.avi;sad;7.0;incongruent;120.0;160.0;162.95060606286506;;;;;0;44;44;44;;;;;;;560.2316294000484;None;561.8231878000079;562.1399298000615;563.3732370000798;563.3899893000489;572.0646983000915;None;None;0;572.0646983000915;None;;;;;;;;5;;;;;;573.6145014000358;None;None;None;[];573.6145014000358;None;None;573.6145014000358;None;;;EmoCon004;2021_Jun_18_1330;VideoMask;2021.1.2;119.97902772973748;
0.0;f;040_y_f_h_a.jpg;happy;9.0;sad_128.2.wmv;sad;7.0;incongruent;120.0;160.0;121.98396994352893;;;;;0;45;45;45;;;;;;;575.6312270000344;None;576.8727787000826;577.1895006999839;578.3396242000163;578.356159200077;580.3317819000222;None;None;0;580.3317819000222;None;;;;;;;;5;;;;;;581.922562199994;None;None;None;[];581.922562199994;None;None;581.922562199994;None;;;EmoCon004;2021_Jun_18_1330;VideoMask;2021.1.2;119.97902772973748;
0.0;f;040_y_f_h_a.jpg;happy;9.0;sad_138.1.wmv;sad;7.0;incongruent;120.0;160.0;195.60264978061832;;;;;0;46;46;46;;;;;;;583.9392544000875;None;585.7891053000931;586.1058546000859;587.2309106000466;587.2474600999849;589.239065800095;None;None;0;589.239065800095;None;;;;;;;;5;;;;;;590.7889367000898;None;None;None;[];590.7889367000898;None;None;590.7889367000898;None;;;EmoCon004;2021_Jun_18_1330;VideoMask;2021.1.2;119.97902772973748;
8.0;m;008_y_m_s_a.jpg;sad;7.0;happy_29.1ns.avi;happy;9.0;incongruent;130.0;150.0;212.92407054126133;;;;;0;47;47;47;;;;;;;592.8055719999829;None;594.7888456000946;595.1056073000655;596.2476614000043;596.2641774000367;598.9306059000082;None;None;0;598.9306059000082;None;;;;;;;;5;;;;;;600.4808548000874;None;None;None;[];600.4808548000874;None;None;600.4808548000874;None;;;EmoCon004;2021_Jun_18_1330;VideoMask;2021.1.2;119.97902772973748;
0.0;f;040_y_f_h_a.jpg;happy;9.0;happy_24.3ns.avi;happy;9.0;congruent;140.0;150.0;190.23859628619445;;;;;0;48;48;48;;;;;;;602.5053761000745;None;604.2969841000158;604.6136063000886;605.8218143000267;605.8386630000314;607.6718425999861;None;None;0;607.6718425999861;None;;;;;;;;5;;;;;;609.2217423000839;None;None;None;[];609.2217423000839;None;None;609.2217423000839;None;;;EmoCon004;2021_Jun_18_1330;VideoMask;2021.1.2;119.97902772973748;
3.0;m;033_o_m_h_a.jpg;happy;9.0;happy_24.2ns.avi;happy;9.0;congruent;140.0;150.0;127.28107088671867;;;;;0;49;49;49;;;;;;;611.2550019000191;None;612.5216950000031;612.8383740000427;613.9968404000392;614.0134529999923;617.6965557000367;None;None;0;617.6965557000367;None;;;;;;;;5;;;;;;619.2464236000087;None;None;None;[];619.2464236000087;None;None;619.2464236000087;None;;;EmoCon004;2021_Jun_18_1330;VideoMask;2021.1.2;119.97902772973748;
9.0;f;019_m_f_s_a.jpg;sad;7.0;happy_61.1ns.avi;happy;9.0;incongruent;130.0;150.0;190.9434091532566;;;;;0;50;50;50;;;;;;;621.263148099999;None;623.0963724000612;623.4130701000104;624.6213006000035;624.6378755000187;631.9379528000718;None;None;0;631.9379528000718;None;;;;;;;;5;;;;;;633.4881138000637;None;None;None;[];633.4881138000637;None;None;633.4881138000637;None;;;EmoCon004;2021_Jun_18_1330;VideoMask;2021.1.2;119.97902772973748;
8.0;f;028_y_f_h_a.jpg;happy;9.0;sad_119.1.wmv;sad;7.0;incongruent;120.0;160.0;178.10396226647933;;;;;0;51;51;51;;;;;;;635.5211347000441;None;637.2459206000203;637.562646000064;638.695791300037;638.7214073000941;640.7627580000553;None;None;0;640.7627580000553;None;;;;;;;;5;;;;;;642.3126143000554;None;None;None;[];642.3126143000554;None;None;642.3126143000554;None;;;EmoCon004;2021_Jun_18_1330;VideoMask;2021.1.2;119.97902772973748;
3.0;m;033_o_m_h_a.jpg;happy;9.0;sad_136.1.wmv;sad;7.0;incongruent;120.0;160.0;206.04367658109783;;;;;0;52;52;52;;;;;;;644.3290147000225;None;646.2706555000041;646.5874261000426;647.7214054000797;647.7457547000377;649.7207842000062;None;None;0;649.7207842000062;None;;;;;;;;5;;;;;;651.2707812000299;None;None;None;[];651.2707812000299;None;None;651.2707812000299;None;;;EmoCon004;2021_Jun_18_1330;VideoMask;2021.1.2;119.97902772973748;
6.0;m;016_y_m_h_a.jpg;happy;9.0;happy_9.2ns.avi;happy;9.0;congruent;140.0;150.0;136.52220806776708;;;;;0;53;53;53;;;;;;;653.2954372999957;None;654.6625431000721;654.9789642000105;656.1456181000685;656.1624539000914;662.0370890999911;None;None;0;662.0370890999911;None;;;;;;;;5;;;;;;663.645128800068;None;None;None;[];663.645128800068;None;None;663.645128800068;None;;;EmoCon004;2021_Jun_18_1330;VideoMask;2021.1.2;119.97902772973748;
9.0;f;019_m_f_h_a.jpg;happy;9.0;happy_10.1ns.avi;happy;9.0;congruent;140.0;150.0;180.35091595488527;;;;;0;54;54;54;;;;;;;665.6702417000197;None;667.4116940000094;667.7288005000446;668.9035070000682;668.9201075000456;676.3115116000408;None;None;0;676.3115116000408;None;;;;;;;;5;;;;;;677.8615814000368;None;None;None;[];677.8615814000368;None;None;677.8615814000368;None;;;EmoCon004;2021_Jun_18_1330;VideoMask;2021.1.2;119.97902772973748;
8.0;f;028_y_f_s_a.jpg;sad;7.0;happy_122.3.wmv;happy;9.0;incongruent;130.0;150.0;204.27932588393085;;;;;0;55;55;55;;;;;;;679.894815800013;None;681.8196761000436;682.1448866000865;683.2779536000453;683.2947183999931;685.2696174000157;None;None;0;685.2696174000157;None;;;;;;;;5;;;;;;686.8201209000545;None;None;None;[];686.8201209000545;None;None;686.8201209000545;None;;;EmoCon004;2021_Jun_18_1330;VideoMask;2021.1.2;119.97902772973748;
3.0;m;013_y_m_s_a.jpg;sad;7.0;sad_7.7ns.avi;sad;7.0;congruent;130.0;160.0;192.40728800739942;;;;;0;56;56;56;;;;;;;688.8359739000443;None;690.6609717999818;690.9776906000916;692.1444832000416;692.1611497000558;698.1192291000625;None;None;0;698.1192291000625;None;;;;;;;;5;;;;;;699.6691276000347;None;None;None;[];699.6691276000347;None;None;699.6691276000347;None;;;EmoCon004;2021_Jun_18_1330;VideoMask;2021.1.2;119.97902772973748;
3.0;m;013_y_m_h_a.jpg;happy;9.0;sad_113.2.wmv;sad;7.0;incongruent;120.0;160.0;219.6544115751568;;;;;0;57;57;57;;;;;;;701.6856792999897;None;703.752249800018;704.0690863000927;705.2113435000647;705.2359443000751;707.202392200008;None;None;0;707.202392200008;None;;;;;;;;5;;;;;;708.7524519000435;None;None;None;[];708.7524519000435;None;None;708.7524519000435;None;;;EmoCon004;2021_Jun_18_1330;VideoMask;2021.1.2;119.97902772973748;
4.0;m;004_o_m_h_a.jpg;happy;9.0;happy_25.1ns.avi;happy;9.0;congruent;140.0;150.0;237.98255695511958;;;;;0;58;58;58;;;;;;;710.777005800046;None;712.9937171000056;713.3103646000382;714.4687913000816;714.485391800059;718.1354022000451;None;None;0;718.1354022000451;None;;;;;;;;5;;;;;;719.693544400041;None;None;None;[];719.693544400041;None;None;719.693544400041;None;;;EmoCon004;2021_Jun_18_1330;VideoMask;2021.1.2;119.97902772973748;
0.0;f;030_o_f_h_a.jpg;happy;9.0;sad_127.1.wmv;sad;7.0;incongruent;120.0;160.0;231.85538291836468;;;;;0;59;59;59;;;;;;;721.7100238000276;None;723.8599937000545;724.1767203999916;725.3101748999907;725.326734000002;727.310151200043;None;None;0;727.310151200043;None;;;;;;;;5;;;;;;728.8600407000631;None;None;None;[];728.8600407000631;None;None;728.8600407000631;None;;;EmoCon004;2021_Jun_18_1330;VideoMask;2021.1.2;119.97902772973748;
;;;;;;;;;;;;;;;;;;;;;;;;;;;;;;;;;;;;;;;;;;;;;;;;;;;;;;;;;;;;;730.8849367999937;None;;;;;;
