primePerson;primeGender;prime;primeEmotion;corrAnsPrime;target;targetEmotion;corrAnsTar;Cond;ID_Primer;ID_Target;JitterTime;Condition;example.thisRepN;example.thisTrialN;example.thisN;example.thisIndex;study.thisRepN;study.thisTrialN;study.thisN;study.thisIndex;MR_trigger_time;MR_trigger_number;text_intro.started;text_intro.stopped;text_probe.started;text_probe.stopped;polygon_ISI.started;polygon_ISI.stopped;polygon.started;polygon.stopped;primerImage.started;primerImage.stopped;response.started;response.stopped;key_resp.keys;key_resp.corr;key_resp.rt;key_resp.started;key_resp.stopped;slider_Text.started;slider_Text.stopped;slider_ex.response;slider_ex.rt;slider_ex.history;slider_ex.started;slider_ex.stopped;Rating;slider_resp_response.keys;slider_resp_response.rt;slider_resp_response.started;slider_resp_response.stopped;text_start.started;text_start.stopped;text_slider.started;text_slider.stopped;slider_stud.response;slider_stud.rt;slider_stud.history;slider_stud.started;slider_stud.stopped;slider_resp_study.keys;slider_resp_study.rt;slider_resp_study.started;slider_resp_study.stopped;text_ende.started;text_ende.stopped;participant;date;expName;psychopyVersion;frameRate;
1111;m;1111_m_m_h_a.jpg;happy;9;example_30.4ns.avi;neutral;7;incongruent;120.0;170.0;189.5874364012288;;0;0;0;0;;;;;24.063521999982186;1;24.14110980008263;26.141170100076124;26.141170100076124;None;28.157605900079943;None;30.124408400035463;30.449971899972297;31.590835500042886;31.607556200004183;35.91598030005116;None;9;0;1.055180300027132;35.91598030005116;None;37.482392900041305;None;None;None;[];37.482392900041305;None;6;['9'];[2.2570156999863684];37.482392900041305;None;;;;;;;;;;;;;;;;S11628;2022_Aug_01_1418;VideoMask;2021.1.2;119.93571452600642;
1113;f;1113_y_f_s_a.jpg;sad;7;example_30.3ns.avi;neutral;7;incongruent;130.0;170.0;229.02432995836998;;0;1;1;1;;;;;;;;;;;40.47407400002703;None;42.59877140005119;42.91555040003732;44.09875720005948;44.115503199980594;46.04884340008721;None;8;0;0.7623048999812454;46.04884340008721;None;47.59874769998714;None;None;None;[];47.59874769998714;None;5;None;;47.59874769998714;None;;;;;;;;;;;;;;;;S11628;2022_Aug_01_1418;VideoMask;2021.1.2;119.93571452600642;
9.0;f;019_m_f_h_a.jpg;happy;9.0;sad_115.1.wmv;sad;7.0;incongruent;120.0;160.0;128.09063432376465;h_s;;;;;0;0;0;0;;;;;;;51.64862330001779;None;52.9484285999788;53.26515640004072;54.39849330007564;54.415227900026366;56.406861199997365;None;7;0;0.6523618999635801;56.406861199997365;None;;;;;;;;4;;;;;50.61511960008647;None;57.9651043000631;None;None;None;[];57.9651043000631;None;['7'];[0.48630849993787706];57.9651043000631;None;;;S11628;2022_Aug_01_1418;VideoMask;2021.1.2;119.93571452600642;
3.0;m;033_o_m_s_a.jpg;sad;7.0;sad_94.2ns.avi;sad;7.0;congruent;130.0;160.0;182.29120173647655;s_s;;;;;0;1;1;1;;;;;;;60.965393500053324;None;62.70644320000429;63.02316400001291;64.19000220007729;64.20655290002469;66.84805320005398;None;7;0;0.451136099989526;66.84805320005398;None;;;;;;;;4;;;;;;;68.7145558000775;None;None;None;[];68.7145558000775;None;['7'];[0.4886913999216631];68.7145558000775;None;;;S11628;2022_Aug_01_1418;VideoMask;2021.1.2;119.93571452600642;
8.0;m;008_y_m_h_a.jpg;happy;9.0;happy_26.1ns.avi;happy;9.0;congruent;120.0;150.0;155.9437854594882;h_h;;;;;0;2;2;2;;;;;;;71.71463760000188;None;73.2144201999763;73.53118849999737;74.6562160999747;74.67281790007837;76.65620710002258;None;9;0;0.43514700001105666;76.65620710002258;None;;;;;;;;8;;;;;;;78.20608520007227;None;None;None;[];78.20608520007227;None;"['9', '9', '9']";"[0.43721779994666576, 0.6450942000374198, 0.9650473999790847]";78.20608520007227;None;;;S11628;2022_Aug_01_1418;VideoMask;2021.1.2;119.93571452600642;
0.0;f;040_y_f_h_a.jpg;happy;9.0;sad_138.1.wmv;sad;7.0;incongruent;120.0;160.0;133.99071306426532;h_s;;;;;0;3;3;3;;;;;;;81.21444720006548;None;82.56413249997422;82.88085030007642;84.00596570002381;84.02247339999303;86.0141221000813;None;8;0;0.48510890000034124;86.0141221000813;None;;;;;;;;5;;;;;;;87.70575770002324;None;None;None;[];87.70575770002324;None;None;;87.70575770002324;None;;;S11628;2022_Aug_01_1418;VideoMask;2021.1.2;119.93571452600642;
8.0;f;028_y_f_s_a.jpg;sad;7.0;sad_64.2ns.avi;sad;7.0;congruent;130.0;160.0;229.88540597086478;s_s;;;;;0;4;4;4;;;;;;;90.7306765000103;None;92.94728820002638;93.26383190008346;94.3975915000774;94.42224580002949;105.41371370002162;None;7;0;0.46970509993843734;105.41371370002162;None;;;;;;;;3;;;;;;;106.9634531000629;None;None;None;[];106.9634531000629;None;"['7', '7']";"[0.4077522000297904, 0.7836900999536738]";106.9634531000629;None;;;S11628;2022_Aug_01_1418;VideoMask;2021.1.2;119.93571452600642;
7.0;m;027_o_m_s_a.jpg;sad;7.0;sad_10.4ns.avi;sad;7.0;congruent;130.0;160.0;185.20129417468752;s_s;;;;;0;5;5;5;;;;;;;109.96349780005403;None;111.7299495000625;112.04648110002745;113.22140630008653;113.23811660008505;116.36328859999776;None;7;0;0.6958119999617338;116.36328859999776;None;;;;;;;;4;;;;;;;117.92143950005993;None;None;None;[];117.92143950005993;None;['7'];[0.6896687999833375];117.92143950005993;None;;;S11628;2022_Aug_01_1418;VideoMask;2021.1.2;119.93571452600642;
2.0;f;012_o_f_s_a.jpg;sad;7.0;sad_7.5ns.avi;sad;7.0;congruent;130.0;160.0;220.27842655424388;s_s;;;;;0;6;6;6;;;;;;;120.92134430003352;None;122.95450710004661;123.27119780005887;124.46269309998024;124.4795124999946;127.19635390001349;None;7;0;0.3507390999002382;127.19635390001349;None;;;;;;;;2;;;;;;;128.7710935000796;None;None;None;[];128.7710935000796;None;"['7', '7', '7']";"[0.3281550999963656, 0.5119646999519318, 0.6879557999782264]";128.7710935000796;None;;;S11628;2022_Aug_01_1418;VideoMask;2021.1.2;119.93571452600642;
2.0;f;012_o_f_h_a.jpg;happy;9.0;happy_27.1ns.avi;happy;9.0;congruent;120.0;150.0;146.44967055810616;h_h;;;;;0;7;7;7;;;;;;;131.77112250006758;None;133.19589770003222;133.51258049998432;134.67903050000314;134.69564749998972;137.13744429999497;None;9;0;0.3536372999660671;137.13744429999497;None;;;;;;;;8;;;;;;;138.679102800088;None;None;None;[];138.679102800088;None;"['9', '9', '9']";"[0.3721000000368804, 0.571838999981992, 0.7719265000196174]";138.679102800088;None;;;S11628;2022_Aug_01_1418;VideoMask;2021.1.2;119.93571452600642;
8.0;f;028_y_f_h_a.jpg;happy;9.0;sad_119.1.wmv;sad;7.0;incongruent;120.0;160.0;148.71526953572538;h_s;;;;;0;8;8;8;;;;;;;141.67899320006836;None;143.12880180007778;143.44552220008336;144.57886320003308;144.5955377999926;146.64550500002224;None;7;0;0.42977520008571446;146.64550500002224;None;;;;;;;;1;;;;;;;148.1954455000814;None;None;None;[];148.1954455000814;None;"['7', '7', '7', '7']";"[0.479670999920927, 0.6875427999766544, 0.8555613999487832, 1.0077565999235958]";148.1954455000814;None;;;S11628;2022_Aug_01_1418;VideoMask;2021.1.2;119.93571452600642;
6.0;m;016_y_m_s_a.jpg;sad;7.0;happy_60.4ns.avi;happy;9.0;incongruent;130.0;150.0;126.02367393611817;s_h;;;;;0;9;9;9;;;;;;;151.20357840007637;None;152.49522989999969;152.81188130006194;153.98757240001578;154.0205747000873;159.7367891999893;None;8;0;1.1543484999565408;159.7367891999893;None;;;;;;;;6;;;;;;;161.2866675000405;None;None;None;[];161.2866675000405;None;['9'];[0.40437020000535995];161.2866675000405;None;;;S11628;2022_Aug_01_1418;VideoMask;2021.1.2;119.93571452600642;
9.0;f;019_m_f_s_a.jpg;sad;7.0;sad_8.4ns.avi;sad;7.0;congruent;130.0;160.0;171.6633093155257;s_s;;;;;0;10;10;10;;;;;;;164.28656789998058;None;165.96970170002896;166.286438500043;167.42789779999293;167.4445865000598;175.5618951000506;None;7;0;1.2090911000268534;175.5618951000506;None;;;;;;;;4;;;;;;;177.21955250005703;None;None;None;[];177.21955250005703;None;['7'];[0.4876170000061393];177.21955250005703;None;;;S11628;2022_Aug_01_1418;VideoMask;2021.1.2;119.93571452600642;
4.0;m;004_o_m_h_a.jpg;happy;9.0;happy_1.1ns.avi;happy;9.0;congruent;120.0;150.0;203.50057144619865;h_h;;;;;0;11;11;11;;;;;;;180.21107449999545;None;182.20267809997313;182.51921970001422;183.68585110001732;183.70263429998886;198.13549280003645;None;9;0;0.4674604000756517;198.13549280003645;None;;;;;;;;6;;;;;;;199.6854174999753;None;None;None;[];199.6854174999753;None;['9'];[0.277584100025706];199.6854174999753;None;;;S11628;2022_Aug_01_1418;VideoMask;2021.1.2;119.93571452600642;
7.0;m;027_o_m_h_a.jpg;happy;9.0;happy_20.1ns.avi;happy;9.0;congruent;120.0;150.0;152.91127178874285;h_h;;;;;0;12;12;12;;;;;;;202.69367750000674;None;204.2018280000193;204.5185212000506;205.6684826000128;205.68519750004634;208.66843130008783;None;9;0;0.3826039000414312;208.66843130008783;None;;;;;;;;7;;;;;;;210.21838320000097;None;None;None;[];210.21838320000097;None;"['9', '9']";"[0.32072140008676797, 0.5205572000704706]";210.21838320000097;None;;;S11628;2022_Aug_01_1418;VideoMask;2021.1.2;119.93571452600642;
0.0;f;040_y_f_s_a.jpg;sad;7.0;sad_94.3ns.avi;sad;7.0;congruent;130.0;160.0;155.27414203894395;s_s;;;;;0;13;13;13;;;;;;;213.21835940005258;None;214.71827670000494;215.03482830000576;216.16798630007543;216.18485600000713;218.79293390002567;None;8;0;0.34630239999387413;218.79293390002567;None;;;;;;;;5;;;;;;;220.34308260004036;None;None;None;[];220.34308260004036;None;None;;220.34308260004036;None;;;S11628;2022_Aug_01_1418;VideoMask;2021.1.2;119.93571452600642;
0.0;f;030_o_f_s_a.jpg;sad;7.0;sad_68.1ns.avi;sad;7.0;congruent;130.0;160.0;158.9411396037211;s_s;;;;;0;14;14;14;;;;;;;223.36780310003087;None;224.92622969998047;225.24282310006674;226.41779820004012;226.43455630005337;233.8010043000104;None;7;0;0.42582820006646216;233.8010043000104;None;;;;;;;;3;;;;;;;235.35091160004959;None;None;None;[];235.35091160004959;None;"['7', '7', '7']";"[0.27608099998906255, 0.4679757000412792, 0.9560628000181168]";235.35091160004959;None;;;S11628;2022_Aug_01_1418;VideoMask;2021.1.2;119.93571452600642;
0.0;f;030_o_f_h_a.jpg;happy;9.0;sad_127.1.wmv;sad;7.0;incongruent;120.0;160.0;180.59976631384873;h_s;;;;;0;15;15;15;;;;;;;238.3509069000138;None;240.06730470003095;240.3840033999877;241.50912699999753;241.5256997999968;243.52569530007895;None;None;0;;243.52569530007895;None;;;;;;;;6;;;;;;;245.0754168999847;None;None;None;[];245.0754168999847;None;['9'];[0.07149320002645254];245.0754168999847;None;;;S11628;2022_Aug_01_1418;VideoMask;2021.1.2;119.93571452600642;
8.0;m;008_y_m_s_a.jpg;sad;7.0;happy_133.3.wmv;happy;9.0;incongruent;130.0;150.0;152.577966552593;s_h;;;;;0;16;16;16;;;;;;;248.0755102999974;None;249.56714599998668;249.88369500008412;251.0170916999923;251.03371820005123;253.01705640007276;None;9;0;0.36166319996118546;253.01705640007276;None;;;;;;;;7;;;;;;;254.5586314999964;None;None;None;[];254.5586314999964;None;"['9', '9']";"[0.29229879996273667, 0.5642650999361649]";254.5586314999964;None;;;S11628;2022_Aug_01_1418;VideoMask;2021.1.2;119.93571452600642;
3.0;m;033_o_m_h_a.jpg;happy;9.0;sad_128.1.wmv;sad;7.0;incongruent;120.0;160.0;171.0492454518585;h_s;;;;;0;17;17;17;;;;;;;257.5669714000542;None;259.21666690008715;259.53338330006227;260.67490460001864;260.69178850005846;262.66666880005505;None;7;0;0.5201958999969065;262.66666880005505;None;;;;;;;;3;;;;;;;264.2165663000196;None;None;None;[];264.2165663000196;None;"['7', '7']";"[0.24235200008843094, 0.4422224999871105]";264.2165663000196;None;;;S11628;2022_Aug_01_1418;VideoMask;2021.1.2;119.93571452600642;
1.0;f;021_o_f_h_a.jpg;happy;9.0;sad_116.1.wmv;sad;7.0;incongruent;120.0;160.0;184.06847610053055;h_s;;;;;0;18;18;18;;;;;;;267.2166122000199;None;268.96632070001215;269.2830587000353;270.41642919997685;270.4330714000389;272.41632910002954;None;7;0;0.49853310000617057;272.41632910002954;None;;;;;;;;3;;;;;;;273.9662958000554;None;None;None;[];273.9662958000554;None;"['7', '7']";"[0.33254269999451935, 0.5244865999557078]";273.9662958000554;None;;;S11628;2022_Aug_01_1418;VideoMask;2021.1.2;119.93571452600642;
4.0;m;004_o_m_s_a.jpg;sad;7.0;happy_28.1ns.avi;happy;9.0;incongruent;130.0;150.0;157.40741103039684;s_h;;;;;0;19;19;19;;;;;;;276.96629510005005;None;278.4993704999797;278.8160670000361;280.0326932000462;280.0492806000402;284.34098950005136;None;9;0;0.35784589999821037;284.34098950005136;None;;;;;;;;8;;;;;;;285.8909068000503;None;None;None;[];285.8909068000503;None;"['9', '9', '9']";"[0.26373730006162077, 0.46384850004687905, 0.871865599998273]";285.8909068000503;None;;;S11628;2022_Aug_01_1418;VideoMask;2021.1.2;119.93571452600642;
8.0;f;028_y_f_s_a.jpg;sad;7.0;happy_122.3.wmv;happy;9.0;incongruent;130.0;150.0;171.8670540936116;s_h;;;;;0;20;20;20;;;;;;;288.8909389000619;None;290.548964500078;290.86568390007596;291.99907000001986;292.01570119999815;293.9989719000878;None;9;0;0.24391299998387694;293.9989719000878;None;;;;;;;;7;;;;;;;295.5488866000669;None;None;None;[];295.5488866000669;None;"['9', '9', '9', '9']";"[0.28590449993498623, 0.48628519999329, 0.7978409000206739, 1.0778433999512345]";295.5488866000669;None;;;S11628;2022_Aug_01_1418;VideoMask;2021.1.2;119.93571452600642;
8.0;m;008_y_m_s_a.jpg;sad;7.0;sad_6.5ns.avi;sad;7.0;congruent;130.0;160.0;170.39333839271438;s_s;;;;;0;21;21;21;;;;;;;298.5487645000685;None;300.1903400000883;300.507033700007;301.6486835000105;301.66537830000743;306.64021920005325;None;7;0;0.35469099995680153;306.64021920005325;None;;;;;;;;4;;;;;;;308.1901701000752;None;None;None;[];308.1901701000752;None;"['7', '7']";"[0.3088528999360278, 1.0609177999431267]";308.1901701000752;None;;;S11628;2022_Aug_01_1418;VideoMask;2021.1.2;119.93571452600642;
8.0;f;028_y_f_h_a.jpg;happy;9.0;happy_23.1ns.avi;happy;9.0;congruent;120.0;150.0;225.70986890587952;h_h;;;;;0;22;22;22;;;;;;;311.198522199993;None;313.2982911000727;313.6149974000873;314.7565752000082;314.7732842999976;319.3231652000686;None;9;0;0.34350980003364384;319.3231652000686;None;;;;;;;;7;;;;;;;320.8731021999847;None;None;None;[];320.8731021999847;None;"['9', '9']";"[0.30566149996593595, 0.48967329994775355]";320.8731021999847;None;;;S11628;2022_Aug_01_1418;VideoMask;2021.1.2;119.93571452600642;
8.0;m;008_y_m_h_a.jpg;happy;9.0;sad_111.1.wmv;sad;7.0;incongruent;120.0;160.0;152.63076835312847;h_s;;;;;0;23;23;23;;;;;;;323.87296910001896;None;325.34776350005995;325.66457830008585;326.79776049999055;326.8143495999975;328.79786110005807;None;7;0;0.41316959995310754;328.79786110005807;None;;;;;;;;4;;;;;;;330.3476746000815;None;None;None;[];330.3476746000815;None;['7'];[0.26311509998049587];330.3476746000815;None;;;S11628;2022_Aug_01_1418;VideoMask;2021.1.2;119.93571452600642;
0.0;f;040_y_f_s_a.jpg;sad;7.0;sad_67.2ns.avi;sad;7.0;congruent;130.0;160.0;220.9892697323079;s_s;;;;;0;24;24;24;;;;;;;333.34766750002746;None;335.4393673000159;335.7558625000529;336.94752300006803;336.9642490000697;346.1306928000413;None;7;0;0.4480101999361068;346.1306928000413;None;;;;;;;;3;;;;;;;347.6805460000178;None;None;None;[];347.6805460000178;None;"['7', '7']";"[0.36212419997900724, 0.5380964999785647]";347.6805460000178;None;;;S11628;2022_Aug_01_1418;VideoMask;2021.1.2;119.93571452600642;
8.0;m;008_y_m_s_a.jpg;sad;7.0;happy_29.1ns.avi;happy;9.0;incongruent;130.0;150.0;120.0316142834122;s_h;;;;;0;25;25;25;;;;;;;350.68046100006904;None;351.89700120000634;352.2136591000017;353.41364090004936;353.4303618000122;356.03856740007177;None;9;0;0.4120825999416411;356.03856740007177;None;;;;;;;;7;;;;;;;357.5885519000003;None;None;None;[];357.5885519000003;None;"['9', '9']";"[0.2782641000812873, 0.6300645000301301]";357.5885519000003;None;;;S11628;2022_Aug_01_1418;VideoMask;2021.1.2;119.93571452600642;
6.0;m;016_y_m_s_a.jpg;sad;7.0;sad_8.3ns.avi;sad;7.0;congruent;130.0;160.0;152.85371098242734;s_s;;;;;0;26;26;26;;;;;;;360.60580989997834;None;362.1383801000193;362.45493300003;363.64648350002244;363.6633890999947;371.3465062000323;None;8;0;0.4242027000291273;371.3465062000323;None;;;;;;;;5;;;;;;;372.89640040008817;None;None;None;[];372.89640040008817;None;None;;372.89640040008817;None;;;S11628;2022_Aug_01_1418;VideoMask;2021.1.2;119.93571452600642;
6.0;m;016_y_m_h_a.jpg;happy;9.0;sad_114.1.wmv;sad;7.0;incongruent;120.0;160.0;136.20550699298644;h_s;;;;;0;27;27;27;;;;;;;375.9126801000675;None;377.2626891999971;377.579435700085;378.7045850000577;378.7212291000178;380.71287420007866;None;7;0;0.5140614999691024;380.71287420007866;None;;;;;;;;3;;;;;;;382.26273030007724;None;None;None;[];382.26273030007724;None;"['7', '7']";"[0.3002252000151202, 0.5159245999529958]";382.26273030007724;None;;;S11628;2022_Aug_01_1418;VideoMask;2021.1.2;119.93571452600642;
7.0;m;027_o_m_s_a.jpg;sad;7.0;happy_117.3.wmv;happy;9.0;incongruent;130.0;150.0;215.61964028550614;s_h;;;;;0;28;28;28;;;;;;;385.2626418999862;None;387.262422000058;387.5790629000403;388.71259690006264;388.72913770005107;390.7124593000626;None;9;0;1.0262900000670925;390.7124593000626;None;;;;;;;;6;;;;;;;392.2624204000458;None;None;None;[];392.2624204000458;None;"['9', '9']";"[0.2602203000569716, 0.932309600058943]";392.2624204000458;None;;;S11628;2022_Aug_01_1418;VideoMask;2021.1.2;119.93571452600642;
6.0;m;016_y_m_h_a.jpg;happy;9.0;happy_9.2ns.avi;happy;9.0;congruent;120.0;150.0;130.52042428082717;h_h;;;;;0;29;29;29;;;;;;;395.2707141999854;None;396.5954648000188;396.91214520006906;398.1455742000835;398.162263300037;403.98708630003966;None;9;0;0.3515792000107467;403.98708630003966;None;;;;;;;;7;;;;;;;405.545311300084;None;None;None;[];405.545311300084;None;"['9', '9']";"[0.28155359998345375, 0.4812176999403164]";405.545311300084;None;;;S11628;2022_Aug_01_1418;VideoMask;2021.1.2;119.93571452600642;
0.0;f;040_y_f_s_a.jpg;sad;7.0;happy_127.3.wmv;happy;9.0;incongruent;130.0;150.0;131.7195455720239;s_h;;;;;0;30;30;30;;;;;;;408.55358030006755;None;409.85335300001316;410.1700893000234;411.29520529997535;411.3118107999908;413.3701740000397;None;9;0;0.29647060006391257;413.3701740000397;None;;;;;;;;8;;;;;;;414.9200135000283;None;None;None;[];414.9200135000283;None;"['9', '9', '9', '9']";"[0.27459340007044375, 0.4667260000715032, 0.610502399969846, 0.9229535000631586]";414.9200135000283;None;;;S11628;2022_Aug_01_1418;VideoMask;2021.1.2;119.93571452600642;
0.0;f;030_o_f_s_a.jpg;sad;7.0;happy_125.3.wmv;happy;9.0;incongruent;130.0;150.0;220.51454909128134;s_h;;;;;0;31;31;31;;;;;;;417.9199680000311;None;419.9780421999749;420.29476060008164;421.4280847000191;421.4447890999727;423.4281240000855;None;9;0;0.398550899932161;423.4281240000855;None;;;;;;;;6;;;;;;;425.00281690002885;None;None;None;[];425.00281690002885;None;['9'];[0.23983730003237724];425.00281690002885;None;;;S11628;2022_Aug_01_1418;VideoMask;2021.1.2;119.93571452600642;
0.0;f;030_o_f_s_a.jpg;sad;7.0;sad_64.3ns.avi;sad;7.0;congruent;130.0;160.0;165.78667874766072;s_s;;;;;0;32;32;32;;;;;;;428.00291630008724;None;429.61122040008195;429.9277712000767;431.0611696999986;431.0778076000279;436.06922649999615;None;7;0;0.5573465999914333;436.06922649999615;None;;;;;;;;4;;;;;;;437.6192526000086;None;None;None;[];437.6192526000086;None;['7'];[0.44730230001732707];437.6192526000086;None;;;S11628;2022_Aug_01_1418;VideoMask;2021.1.2;119.93571452600642;
3.0;m;013_y_m_s_a.jpg;sad;7.0;sad_7.7ns.avi;sad;7.0;congruent;130.0;160.0;196.24182255763262;s_s;;;;;0;33;33;33;;;;;;;440.6190946000861;None;442.4771927000256;442.7940149999922;443.96041729999706;443.9772422000533;449.927100299974;None;8;0;0.4754088999470696;449.927100299974;None;;;;;;;;5;;;;;;;451.47709820000455;None;None;None;[];451.47709820000455;None;None;;451.47709820000455;None;;;S11628;2022_Aug_01_1418;VideoMask;2021.1.2;119.93571452600642;
3.0;m;013_y_m_h_a.jpg;happy;9.0;happy_9.1ns.avi;happy;9.0;congruent;120.0;150.0;165.1890303600433;h_h;;;;;0;34;34;34;;;;;;;454.5020644000033;None;456.11020700004883;456.4268133000005;457.56861770001706;457.5852563000517;460.7851438000798;None;9;0;0.4173995000310242;460.7851438000798;None;;;;;;;;6;;;;;;;462.33512210007757;None;None;None;[];462.33512210007757;None;['9'];[0.2595638999482617];462.33512210007757;None;;;S11628;2022_Aug_01_1418;VideoMask;2021.1.2;119.93571452600642;
4.0;m;004_o_m_h_a.jpg;happy;9.0;sad_95.1ns.avi;sad;7.0;incongruent;120.0;160.0;152.68270002069931;h_s;;;;;0;35;35;35;;;;;;;465.3351095999824;None;466.87651259999257;467.19321689999197;468.3516156000551;468.36824770004023;477.1180890999967;None;7;0;0.42069340008310974;477.1180890999967;None;;;;;;;;3;;;;;;;478.66790140001103;None;None;None;[];478.66790140001103;None;"['7', '7']";"[0.3585393000394106, 0.5505166000220925]";478.66790140001103;None;;;S11628;2022_Aug_01_1418;VideoMask;2021.1.2;119.93571452600642;
3.0;m;013_y_m_h_a.jpg;happy;9.0;sad_113.2.wmv;sad;7.0;incongruent;120.0;160.0;217.4973891947951;h_s;;;;;0;36;36;36;;;;;;;481.676236600033;None;483.7177588000195;484.03423250000924;485.15942729997914;485.17590450006537;487.1677454999881;None;8;0;0.7308170999167487;487.1677454999881;None;;;;;;;;5;;;;;;;488.71752479998395;None;None;None;[];488.71752479998395;None;None;;488.71752479998395;None;;;S11628;2022_Aug_01_1418;VideoMask;2021.1.2;119.93571452600642;
4.0;m;004_o_m_h_a.jpg;happy;9.0;happy_25.1ns.avi;happy;9.0;congruent;120.0;150.0;216.63044503818386;h_h;;;;;0;37;37;37;;;;;;;491.7423833999783;None;493.7757368000457;494.09232920000795;495.21735480008647;495.2340193000855;498.9174940000521;None;9;0;0.35720720002427697;498.9174940000521;None;;;;;;;;7;;;;;;;500.4754934000084;None;None;None;[];500.4754934000084;None;"['9', '9']";"[0.3510002000257373, 0.5509593000169843]";500.4754934000084;None;;;S11628;2022_Aug_01_1418;VideoMask;2021.1.2;119.93571452600642;
4.0;m;004_o_m_s_a.jpg;sad;7.0;happy_131.2.wmv;happy;9.0;incongruent;130.0;150.0;181.38407540847405;s_h;;;;;0;38;38;38;;;;;;;503.4754251000704;None;505.2001942000352;505.51695319998544;506.65007930004504;506.66701760003343;508.65023010002915;None;9;0;0.31242510001175106;508.65023010002915;None;;;;;;;;6;;;;;;;510.20022900006734;None;None;None;[];510.20022900006734;None;"['9', '9']";"[0.21822120004799217, 0.6501952999969944]";510.20022900006734;None;;;S11628;2022_Aug_01_1418;VideoMask;2021.1.2;119.93571452600642;
0.0;f;040_y_f_h_a.jpg;happy;9.0;happy_24.3ns.avi;happy;9.0;congruent;120.0;150.0;213.25460698950434;h_h;;;;;0;39;39;39;;;;;;;513.2001625000266;None;515.1749405000592;515.4916880000383;516.7250247000484;516.7416607000632;518.5500262000132;None;9;0;0.4684931000228971;518.5500262000132;None;;;;;;;;7;;;;;;;520.1082021000329;None;None;None;[];520.1082021000329;None;"['9', '9']";"[0.2942894999869168, 0.5501481000101194]";520.1082021000329;None;;;S11628;2022_Aug_01_1418;VideoMask;2021.1.2;119.93571452600642;
2.0;f;012_o_f_s_a.jpg;sad;7.0;happy_139.1.wmv;happy;9.0;incongruent;130.0;150.0;162.31500468041804;s_h;;;;;0;40;40;40;;;;;;;523.116552200052;None;524.6828916000668;524.9996821000241;526.1334539999953;526.1579558000667;528.1330029000528;None;9;0;0.29343790002167225;528.1330029000528;None;;;;;;;;8;;;;;;;529.6829108999809;None;None;None;[];529.6829108999809;None;"['9', '9', '9']";"[0.3035117000108585, 0.47950769995804876, 1.047475399915129]";529.6829108999809;None;;;S11628;2022_Aug_01_1418;VideoMask;2021.1.2;119.93571452600642;
0.0;f;030_o_f_h_a.jpg;happy;9.0;happy_24.1ns.avi;happy;9.0;congruent;120.0;150.0;168.36256624020774;h_h;;;;;0;41;41;41;;;;;;;532.68284090003;None;534.3075630000094;534.6243245999794;535.9327195000369;535.9492515000748;539.0826459000818;None;9;0;0.47977520001586527;539.0826459000818;None;;;;;;;;8;;;;;;;540.6325361999916;None;None;None;[];540.6325361999916;None;"['9', '9', '9']";"[0.290164899895899, 0.4817506999243051, 0.9140340999001637]";540.6325361999916;None;;;S11628;2022_Aug_01_1418;VideoMask;2021.1.2;119.93571452600642;
2.0;f;012_o_f_h_a.jpg;happy;9.0;sad_113.1.wmv;sad;7.0;incongruent;120.0;160.0;177.44551734737394;h_s;;;;;0;42;42;42;;;;;;;543.6324165000115;None;545.3238173000282;545.6406445000321;546.7739582000067;546.7906509999884;548.7740655000089;None;8;0;1.1804834000067785;548.7740655000089;None;;;;;;;;4;;;;;;;550.3238662000513;None;None;None;[];550.3238662000513;None;['7'];[0.4385468000546098];550.3238662000513;None;;;S11628;2022_Aug_01_1418;VideoMask;2021.1.2;119.93571452600642;
3.0;m;033_o_m_s_a.jpg;sad;7.0;sad_64.5ns.avi;sad;7.0;congruent;130.0;160.0;130.55717223801247;s_s;;;;;0;43;43;43;;;;;;;553.3321827000473;None;554.673682600027;554.9903254000237;556.1320700000506;556.1487783000339;562.7068324000575;None;7;0;0.5195820999797434;562.7068324000575;None;;;;;;;;2;;;;;;;564.2567539000884;None;None;None;[];564.2567539000884;None;"['7', '7', '7', '7']";"[0.3697138000279665, 0.5615830000024289, 0.7216096000047401, 0.8734912999207154]";564.2567539000884;None;;;S11628;2022_Aug_01_1418;VideoMask;2021.1.2;119.93571452600642;
7.0;m;027_o_m_h_a.jpg;happy;9.0;sad_117.1.wmv;sad;7.0;incongruent;120.0;160.0;181.28665202824095;h_s;;;;;0;44;44;44;;;;;;;567.2567876999965;None;568.9814583000261;569.2982843000209;570.431599500007;570.448037300026;572.43140640005;None;8;0;0.4190781000070274;572.43140640005;None;;;;;;;;4;;;;;;;573.9814054999733;None;None;None;[];573.9814054999733;None;['7'];[0.3009941999334842];573.9814054999733;None;;;S11628;2022_Aug_01_1418;VideoMask;2021.1.2;119.93571452600642;
3.0;m;033_o_m_s_a.jpg;sad;7.0;happy_126.3.wmv;happy;9.0;incongruent;130.0;150.0;198.85252030535366;s_h;;;;;0;45;45;45;;;;;;;576.9897975000786;None;578.8561332999961;579.1728718000231;580.3065274000401;580.3312283999985;582.306221100036;None;9;0;0.43211449997033924;582.306221100036;None;;;;;;;;5;;;;;;;583.8561437000753;None;None;None;[];583.8561437000753;None;None;;583.8561437000753;None;;;S11628;2022_Aug_01_1418;VideoMask;2021.1.2;119.93571452600642;
3.0;m;033_o_m_h_a.jpg;happy;9.0;sad_136.1.wmv;sad;7.0;incongruent;120.0;160.0;176.97002883463455;h_s;;;;;0;46;46;46;;;;;;;586.8725284000393;None;588.555953699979;588.8725410000188;589.9974972000346;590.0141194000607;592.0141178000486;None;7;0;0.3482222000602633;592.0141178000486;None;;;;;;;;3;;;;;;;593.5641127000563;None;None;None;[];593.5641127000563;None;"['7', '7']";"[0.34224180004093796, 0.5820450000464916]";593.5641127000563;None;;;S11628;2022_Aug_01_1418;VideoMask;2021.1.2;119.93571452600642;
9.0;f;019_m_f_h_a.jpg;happy;9.0;happy_10.1ns.avi;happy;9.0;congruent;120.0;150.0;157.2463435658512;h_h;;;;;0;47;47;47;;;;;;;596.5639983000001;None;598.1306990000885;598.447185200057;599.5972689000191;599.6139851000626;607.0221367999911;None;9;0;0.33216769993305206;607.0221367999911;None;;;;;;;;7;;;;;;;608.5636318000033;None;None;None;[];608.5636318000033;None;"['9', '9']";"[0.26266960008069873, 0.45463400008156896]";608.5636318000033;None;;;S11628;2022_Aug_01_1418;VideoMask;2021.1.2;119.93571452600642;
2.0;f;012_o_f_h_a.jpg;happy;9.0;happy_2.2ns.avi;happy;9.0;congruent;120.0;150.0;206.34800317295262;h_h;;;;;0;48;48;48;;;;;;;611.5636277000885;None;613.5635145000415;613.8801347999834;615.0467548000161;615.063440100057;627.2134409000864;None;9;0;0.49315339990425855;627.2134409000864;None;;;;;;;;6;;;;;;;629.0129514000146;None;None;None;[];629.0129514000146;None;['9'];[0.5172434000996873];629.0129514000146;None;;;S11628;2022_Aug_01_1418;VideoMask;2021.1.2;119.93571452600642;
3.0;m;033_o_m_h_a.jpg;happy;9.0;happy_24.2ns.avi;happy;9.0;congruent;120.0;150.0;167.9423847659953;h_h;;;;;0;49;49;49;;;;;;;632.0212266000453;None;633.6376349000493;633.9543950000079;635.1210289000301;635.1379961000057;638.8294173000613;None;9;0;0.3649367999751121;638.8294173000613;None;;;;;;;;7;;;;;;;640.3875779000809;None;None;None;[];640.3875779000809;None;"['9', '9']";"[0.3751720000291243, 0.5746528999879956]";640.3875779000809;None;;;S11628;2022_Aug_01_1418;VideoMask;2021.1.2;119.93571452600642;
1.0;f;021_o_f_s_a.jpg;sad;7.0;happy_61.2ns.avi;happy;9.0;incongruent;130.0;150.0;210.94664004826666;s_h;;;;;0;50;50;50;;;;;;;643.3958634000737;None;645.3874477000209;645.7040016000392;646.9623947000364;646.9791400000686;651.3623537999811;None;9;0;0.3758555999957025;651.3623537999811;None;;;;;;;;6;;;;;;;652.9121579000494;None;None;None;[];652.9121579000494;None;['9'];[0.25807750003878027];652.9121579000494;None;;;S11628;2022_Aug_01_1418;VideoMask;2021.1.2;119.93571452600642;
4.0;m;004_o_m_s_a.jpg;sad;7.0;sad_2.4ns.avi;sad;7.0;congruent;130.0;160.0;153.02079367163634;s_s;;;;;0;51;51;51;;;;;;;655.9204594000475;None;657.428664600011;657.7452409000834;658.8869574000128;658.9036875000456;666.8368557000067;None;8;0;0.5813654999947175;666.8368557000067;None;;;;;;;;5;;;;;;;668.3949898000574;None;None;None;[];668.3949898000574;None;None;;668.3949898000574;None;;;S11628;2022_Aug_01_1418;VideoMask;2021.1.2;119.93571452600642;
8.0;m;008_y_m_h_a.jpg;happy;9.0;happy_1.2ns.avi;happy;9.0;congruent;120.0;150.0;210.98946429383824;h_h;;;;;0;52;52;52;;;;;;;671.4199151999783;None;673.4696164000779;673.786407000036;674.9532049000263;674.9697508000536;687.7110311000142;None;9;0;0.37909530010074377;687.7110311000142;None;;;;;;;;6;;;;;;;689.260988999973;None;None;None;[];689.260988999973;None;['9'];[0.31714840000495315];689.260988999973;None;;;S11628;2022_Aug_01_1418;VideoMask;2021.1.2;119.93571452600642;
2.0;f;012_o_f_s_a.jpg;sad;7.0;happy_52.2ns.avi;happy;9.0;incongruent;130.0;150.0;172.57202848318138;s_h;;;;;0;53;53;53;;;;;;;692.2692283000797;None;693.919110900024;694.2357329999795;695.4278866000241;695.4444622000447;698.9198496000608;None;9;0;0.31423160003032535;698.9198496000608;None;;;;;;;;6;;;;;;;700.4772372000152;None;None;None;[];700.4772372000152;None;['9'];[0.21302150003612041];700.4772372000152;None;;;S11628;2022_Aug_01_1418;VideoMask;2021.1.2;119.93571452600642;
9.0;f;019_m_f_s_a.jpg;sad;7.0;happy_61.1ns.avi;happy;9.0;incongruent;130.0;150.0;181.3003220572762;s_h;;;;;0;54;54;54;;;;;;;703.4856048000511;None;705.2604046000633;705.5769973000279;706.7354269999778;706.7521192000713;714.1021352000535;None;8;0;0.3802354000508785;714.1021352000535;None;;;;;;;;6;;;;;;;715.6600884000072;None;None;None;[];715.6600884000072;None;['9'];[0.41401480010244995];715.6600884000072;None;;;S11628;2022_Aug_01_1418;VideoMask;2021.1.2;119.93571452600642;
0.0;f;030_o_f_h_a.jpg;happy;9.0;sad_133.1.wmv;sad;7.0;incongruent;120.0;160.0;198.86251500867985;h_s;;;;;0;55;55;55;;;;;;;718.6601794000017;None;720.5349048000062;720.8515750999795;721.9847833000822;722.0015562999761;723.9847961000632;None;7;0;0.41726550005842;723.9847961000632;None;;;;;;;;3;;;;;;;725.5347337999847;None;None;None;[];725.5347337999847;None;"['7', '7']";"[0.4273861999390647, 0.9873762999195606]";725.5347337999847;None;;;S11628;2022_Aug_01_1418;VideoMask;2021.1.2;119.93571452600642;
0.0;f;040_y_f_h_a.jpg;happy;9.0;sad_128.2.wmv;sad;7.0;incongruent;120.0;160.0;206.10005857915363;h_s;;;;;0;56;56;56;;;;;;;728.5431637000293;None;730.4844970999984;730.8012624999974;731.9344772000331;731.951038600062;733.934484400088;None;7;0;0.3076347999740392;733.934484400088;None;;;;;;;;2;;;;;;;735.4844634999754;None;None;None;[];735.4844634999754;None;"['7', '7', '7', '7']";"[0.3496774999657646, 0.5576095000142232, 0.7095572999678552, 0.9976891999831423]";735.4844634999754;None;;;S11628;2022_Aug_01_1418;VideoMask;2021.1.2;119.93571452600642;
1.0;f;021_o_f_s_a.jpg;sad;7.0;sad_9.5ns.avi;sad;7.0;congruent;130.0;160.0;206.16642757875042;s_s;;;;;0;57;57;57;;;;;;;738.4926138999872;None;740.4258120000595;740.742532000062;741.9505987000884;741.9676222000271;747.6174049000256;None;7;0;0.2965558000141755;747.6174049000256;None;;;;;;;;4;;;;;;;749.1672820000676;None;None;None;[];749.1672820000676;None;"['7', '7']";"[0.2268021999625489, 0.794901299988851]";749.1672820000676;None;;;S11628;2022_Aug_01_1418;VideoMask;2021.1.2;119.93571452600642;
1.0;f;021_o_f_h_a.jpg;happy;9.0;happy_12.1ns.avi;happy;9.0;congruent;120.0;150.0;132.59080005900228;h_h;;;;;0;58;58;58;;;;;;;752.1671788999811;None;753.5338987000287;753.8503167000599;755.0088477000827;755.0254481000593;762.6002981000347;None;8;0;0.41792359994724393;762.6002981000347;None;;;;;;;;6;;;;;;;764.1501609000843;None;None;None;[];764.1501609000843;None;['9'];[0.29990879993420094];764.1501609000843;None;;;S11628;2022_Aug_01_1418;VideoMask;2021.1.2;119.93571452600642;
3.0;m;013_y_m_s_a.jpg;sad;7.0;happy_56.2ns.avi;happy;9.0;incongruent;130.0;150.0;163.39234110935848;s_h;;;;;0;59;59;59;;;;;;;767.1500832000747;None;768.741594000021;769.058203499997;770.2086571999826;770.2333796999883;775.2248314999742;None;7;0;0.553104699938558;775.2248314999742;None;;;;;;;;5;;;;;;;776.7747147000628;None;None;None;[];776.7747147000628;None;None;;776.7747147000628;None;;;S11628;2022_Aug_01_1418;VideoMask;2021.1.2;119.93571452600642;
;;;;;;;;;;;;;;;;;;;;;;;;;;;;;;;;;;;;;;;;;;;;;;;;;;;;;;;;;;;;;;;;;779.7996417999966;None;;;;;;
