primePerson;primeGender;prime;primeEmotion;corrAnsPrime;target;targetEmotion;corrAnsTar;Cond;ID_Primer;ID_Target;JitterTime;Condition;example.thisRepN;example.thisTrialN;example.thisN;example.thisIndex;study.thisRepN;study.thisTrialN;study.thisN;study.thisIndex;MR_trigger_time;MR_trigger_number;text_intro.started;text_intro.stopped;text_probe.started;text_probe.stopped;polygon_ISI.started;polygon_ISI.stopped;polygon.started;polygon.stopped;primerImage.started;primerImage.stopped;response.started;response.stopped;key_resp.keys;key_resp.corr;key_resp.rt;key_resp.started;key_resp.stopped;slider_Text.started;slider_Text.stopped;slider_ex.response;slider_ex.rt;slider_ex.history;slider_ex.started;slider_ex.stopped;Rating;slider_resp_response.keys;slider_resp_response.rt;slider_resp_response.started;slider_resp_response.stopped;text_start.started;text_start.stopped;text_slider.started;text_slider.stopped;slider_stud.response;slider_stud.rt;slider_stud.history;slider_stud.started;slider_stud.stopped;slider_resp_study.keys;slider_resp_study.rt;slider_resp_study.started;slider_resp_study.stopped;text_ende.started;text_ende.stopped;participant;date;expName;psychopyVersion;frameRate;
1111;m;1111_m_m_h_a.jpg;happy;9;example_30.4ns.avi;neutral;7;incongruent;120.0;170.0;189.5874364012288;;0;0;0;0;;;;;30.992471300065517;1;31.06995419994928;33.07005829992704;33.07005829992704;None;35.08666289993562;None;37.28640350000933;37.6037816000171;38.76991380006075;38.786564299836755;43.0782347000204;None;9;0;0.536030099960044;43.0782347000204;None;44.63710439996794;None;None;None;[];44.63710439996794;None;7;"['9', '9']";"[2.1130425001028925, 2.3771966001950204]";44.63710439996794;None;;;;;;;;;;;;;;;;S10963;2021_Oct_07_1303;VideoMask;2021.1.2;120.16573272140839;
1113;f;1113_y_f_s_a.jpg;sad;7;example_30.3ns.avi;neutral;7;incongruent;130.0;170.0;229.02432995836998;;0;1;1;1;;;;;;;;;;;47.636350699933246;None;49.75288329995237;50.069509899942204;51.23625770001672;51.252824099967256;53.20281909988262;None;9;0;0.7556229000911117;53.20281909988262;None;54.752672699978575;None;None;None;[];54.752672699978575;None;7;"['9', '9']";"[0.5577361001633108, 0.7576789001468569]";54.752672699978575;None;;;;;;;;;;;;;;;;S10963;2021_Oct_07_1303;VideoMask;2021.1.2;120.16573272140839;
9.0;f;019_m_f_h_a.jpg;happy;9.0;sad_115.1.wmv;sad;7.0;incongruent;120.0;160.0;128.09063432376465;h_s;;;;;0;0;0;0;;;;;;;58.78587209992111;None;60.06093439995311;60.377491699997336;61.544045499991626;61.56064729997888;63.51078809984028;None;7;0;0.7274310998618603;63.51078809984028;None;;;;;;;;3;;;;;57.75275420001708;None;65.06913800002076;None;None;None;[];65.06913800002076;None;"['7', '7']";"[0.873080300167203, 1.129161300137639]";65.06913800002076;None;;;S10963;2021_Oct_07_1303;VideoMask;2021.1.2;120.16573272140839;
3.0;m;033_o_m_s_a.jpg;sad;7.0;sad_94.2ns.avi;sad;7.0;congruent;130.0;160.0;182.29120173647655;s_s;;;;;0;1;1;1;;;;;;;68.06905729998834;None;69.78548199986108;70.10219129989855;71.25214769993909;71.26887109992094;73.92758170003071;None;7;0;0.7266607000492513;73.92758170003071;None;;;;;;;;4;;;;;;;75.477094899863;None;None;None;[];75.477094899863;None;['7'];[0.3370981002226472];75.477094899863;None;;;S10963;2021_Oct_07_1303;VideoMask;2021.1.2;120.16573272140839;
8.0;m;008_y_m_h_a.jpg;happy;9.0;happy_26.1ns.avi;happy;9.0;congruent;120.0;150.0;155.9437854594882;h_h;;;;;0;2;2;2;;;;;;;78.47721030004323;None;79.96014779992402;80.27693769987673;81.49401739984751;81.5104175999295;83.40183959994465;None;9;0;0.6284091998822987;83.40183959994465;None;;;;;;;;8;;;;;;;85.40177619992755;None;None;None;[];85.40177619992755;None;"['9', '9', '9']";"[0.3405911000445485, 0.5407220998313278, 0.756570199970156]";85.40177619992755;None;;;S10963;2021_Oct_07_1303;VideoMask;2021.1.2;120.16573272140839;
0.0;f;040_y_f_h_a.jpg;happy;9.0;sad_138.1.wmv;sad;7.0;incongruent;120.0;160.0;133.99071306426532;h_s;;;;;0;3;3;3;;;;;;;88.40166709991172;None;89.72651900001802;90.04331459989771;91.16834009997547;91.18485419987701;93.17713609989733;None;7;0;0.4612032000441104;93.17713609989733;None;;;;;;;;5;;;;;;;94.86813779990189;None;None;None;[];94.86813779990189;None;None;;94.86813779990189;None;;;S10963;2021_Oct_07_1303;VideoMask;2021.1.2;120.16573272140839;
8.0;f;028_y_f_s_a.jpg;sad;7.0;sad_64.2ns.avi;sad;7.0;congruent;130.0;160.0;229.88540597086478;s_s;;;;;0;4;4;4;;;;;;;97.90142209990881;None;100.05111530004069;100.36798430001363;101.5679017000366;101.58461979986168;112.50927549996413;None;7;0;0.35290640010498464;112.50927549996413;None;;;;;;;;3;;;;;;;114.0508005998563;None;None;None;[];114.0508005998563;None;"['7', '7', '7']";"[0.4115106000099331, 0.603245000122115, 1.1475252001546323]";114.0508005998563;None;;;S10963;2021_Oct_07_1303;VideoMask;2021.1.2;120.16573272140839;
7.0;m;027_o_m_s_a.jpg;sad;7.0;sad_10.4ns.avi;sad;7.0;congruent;130.0;160.0;185.20129417468752;s_s;;;;;0;5;5;5;;;;;;;117.05089029995725;None;118.79214959987439;119.10899039986543;120.30055489996448;120.31718349992298;123.40895799989812;None;7;0;0.5893442998640239;123.40895799989812;None;;;;;;;;4;;;;;;;125.13375049992464;None;None;None;[];125.13375049992464;None;"['7', '7']";"[0.3684098001103848, 1.0725223999470472]";125.13375049992464;None;;;S10963;2021_Oct_07_1303;VideoMask;2021.1.2;120.16573272140839;
2.0;f;012_o_f_s_a.jpg;sad;7.0;sad_7.5ns.avi;sad;7.0;congruent;130.0;160.0;220.27842655424388;s_s;;;;;0;6;6;6;;;;;;;128.14223150000907;None;130.16692029987462;130.4836186999455;131.6511188999284;131.67571410001256;134.40902190003544;None;None;0;;134.40902190003544;None;;;;;;;;4;;;;;;;136.000048100017;None;None;None;[];136.000048100017;None;['7'];[2.398033899953589];136.000048100017;None;;;S10963;2021_Oct_07_1303;VideoMask;2021.1.2;120.16573272140839;
2.0;f;012_o_f_h_a.jpg;happy;9.0;happy_27.1ns.avi;happy;9.0;congruent;120.0;150.0;146.44967055810616;h_h;;;;;0;7;7;7;;;;;;;139.00844049989246;None;140.41658960003406;140.73329079989344;141.91635590000078;141.9331677998416;144.35827920003794;None;9;0;0.4401128999888897;144.35827920003794;None;;;;;;;;7;;;;;;;145.99988809996285;None;None;None;[];145.99988809996285;None;"['9', '9']";"[0.39836949994787574, 0.9182541999034584]";145.99988809996285;None;;;S10963;2021_Oct_07_1303;VideoMask;2021.1.2;120.16573272140839;
8.0;f;028_y_f_h_a.jpg;happy;9.0;sad_119.1.wmv;sad;7.0;incongruent;120.0;160.0;148.71526953572538;h_s;;;;;0;8;8;8;;;;;;;148.99990619998425;None;150.4579377998598;150.7747512999922;151.90849639987573;151.93306019995362;153.98300320003182;None;7;0;0.823110300116241;153.98300320003182;None;;;;;;;;4;;;;;;;155.60784229985438;None;None;None;[];155.60784229985438;None;['7'];[0.5427420998457819];155.60784229985438;None;;;S10963;2021_Oct_07_1303;VideoMask;2021.1.2;120.16573272140839;
6.0;m;016_y_m_s_a.jpg;sad;7.0;happy_60.4ns.avi;happy;9.0;incongruent;130.0;150.0;126.02367393611817;s_h;;;;;0;9;9;9;;;;;;;158.61634589987807;None;159.8743441000115;160.19108919985592;161.36590119986795;161.38256739987992;167.11596249998547;None;9;0;0.3701240997761488;167.11596249998547;None;;;;;;;;7;;;;;;;168.840741999913;None;None;None;[];168.840741999913;None;"['9', '9', '9', '9']";"[0.4773387999739498, 0.837347500026226, 1.1332668999675661, 2.165419999975711]";168.840741999913;None;;;S10963;2021_Oct_07_1303;VideoMask;2021.1.2;120.16573272140839;
9.0;f;019_m_f_s_a.jpg;sad;7.0;sad_8.4ns.avi;sad;7.0;congruent;130.0;160.0;171.6633093155257;s_s;;;;;0;10;10;10;;;;;;;171.8408907998819;None;173.4988615999464;173.81569699989632;175.04069019993767;175.0573519000318;183.08220129995607;None;7;0;0.739890799857676;183.08220129995607;None;;;;;;;;4;;;;;;;184.63204449997284;None;None;None;[];184.63204449997284;None;['7'];[0.51798539981246];184.63204449997284;None;;;S10963;2021_Oct_07_1303;VideoMask;2021.1.2;120.16573272140839;
4.0;m;004_o_m_h_a.jpg;happy;9.0;happy_1.1ns.avi;happy;9.0;congruent;120.0;150.0;203.50057144619865;h_h;;;;;0;11;11;11;;;;;;;187.64022699999623;None;189.59833829989657;189.91513330000453;191.07346719992347;191.09016079991125;205.53969329991378;None;9;0;0.5382956999819726;205.53969329991378;None;;;;;;;;7;;;;;;;207.08966749999672;None;None;None;[];207.08966749999672;None;"['9', '9']";"[0.34831420006230474, 0.5723304999992251]";207.08966749999672;None;;;S10963;2021_Oct_07_1303;VideoMask;2021.1.2;120.16573272140839;
7.0;m;027_o_m_h_a.jpg;happy;9.0;happy_20.1ns.avi;happy;9.0;congruent;120.0;150.0;152.91127178874285;h_h;;;;;0;12;12;12;;;;;;;210.08968340000138;None;211.564363299869;211.88108379999176;213.06449000001885;213.08113129995763;216.03113729995675;None;9;0;0.47095050010830164;216.03113729995675;None;;;;;;;;7;;;;;;;217.5809983999934;None;None;None;[];217.5809983999934;None;"['9', '9', '9']";"[0.37714300001971424, 0.609039300121367, 1.1291519000660628]";217.5809983999934;None;;;S10963;2021_Oct_07_1303;VideoMask;2021.1.2;120.16573272140839;
0.0;f;040_y_f_s_a.jpg;sad;7.0;sad_94.3ns.avi;sad;7.0;congruent;130.0;160.0;155.27414203894395;s_s;;;;;0;13;13;13;;;;;;;220.5892099000048;None;222.08072729990818;222.39748200005852;223.59729849989526;223.6141369000543;226.1556946998462;None;8;0;0.922453299863264;226.1556946998462;None;;;;;;;;5;;;;;;;227.70555670000613;None;None;None;[];227.70555670000613;None;['7'];[2.0445487000979483];227.70555670000613;None;;;S10963;2021_Oct_07_1303;VideoMask;2021.1.2;120.16573272140839;
0.0;f;030_o_f_s_a.jpg;sad;7.0;sad_68.1ns.avi;sad;7.0;congruent;130.0;160.0;158.9411396037211;s_s;;;;;0;14;14;14;;;;;;;230.70558489998803;None;232.24720679991879;232.56379949999973;233.85631329985335;233.8806141000241;241.1220116999466;None;7;0;1.299964499892667;241.1220116999466;None;;;;;;;;5;;;;;;;242.6718728998676;None;None;None;[];242.6718728998676;None;None;;242.6718728998676;None;;;S10963;2021_Oct_07_1303;VideoMask;2021.1.2;120.16573272140839;
0.0;f;030_o_f_h_a.jpg;happy;9.0;sad_127.1.wmv;sad;7.0;incongruent;120.0;160.0;180.59976631384873;h_s;;;;;0;15;15;15;;;;;;;245.69675919995643;None;247.4049124000594;247.72163809998892;248.85505159990862;248.87166069983505;250.854925399879;None;None;0;;250.854925399879;None;;;;;;;;4;;;;;;;252.40476529998705;None;None;None;[];252.40476529998705;None;['7'];[0.8811429000925273];252.40476529998705;None;;;S10963;2021_Oct_07_1303;VideoMask;2021.1.2;120.16573272140839;
8.0;m;008_y_m_s_a.jpg;sad;7.0;happy_133.3.wmv;happy;9.0;incongruent;130.0;150.0;152.577966552593;s_h;;;;;0;16;16;16;;;;;;;255.4049138999544;None;256.887950199889;257.20467210002244;258.3297751999926;258.34628050005995;260.3380865000654;None;9;0;0.4200732000172138;260.3380865000654;None;;;;;;;;5;;;;;;;261.8879328998737;None;None;None;[];261.8879328998737;None;"['9', '9']";"[2.2780069999862462, 2.8781474998686463]";261.8879328998737;None;;;S10963;2021_Oct_07_1303;VideoMask;2021.1.2;120.16573272140839;
3.0;m;033_o_m_h_a.jpg;happy;9.0;sad_128.1.wmv;sad;7.0;incongruent;120.0;160.0;171.0492454518585;h_s;;;;;0;17;17;17;;;;;;;264.8879422999453;None;266.5209559998475;266.8377725998871;267.97099119983613;267.98775670002215;269.9710335000418;None;7;0;0.45102480007335544;269.9710335000418;None;;;;;;;;4;;;;;;;271.5209526999388;None;None;None;[];271.5209526999388;None;['7'];[0.6130295998882502];271.5209526999388;None;;;S10963;2021_Oct_07_1303;VideoMask;2021.1.2;120.16573272140839;
1.0;f;021_o_f_h_a.jpg;happy;9.0;sad_116.1.wmv;sad;7.0;incongruent;120.0;160.0;184.06847610053055;h_s;;;;;0;18;18;18;;;;;;;274.52937899995595;None;276.27903229999356;276.595717899967;277.76238949992694;277.7790949998889;279.72912919986993;None;7;0;0.42882109992206097;279.72912919986993;None;;;;;;;;3;;;;;;;281.4706435999833;None;None;None;[];281.4706435999833;None;"['7', '7', '7']";"[0.34336209995672107, 0.5433497000485659, 0.8475059999618679]";281.4706435999833;None;;;S10963;2021_Oct_07_1303;VideoMask;2021.1.2;120.16573272140839;
4.0;m;004_o_m_s_a.jpg;sad;7.0;happy_28.1ns.avi;happy;9.0;incongruent;130.0;150.0;157.40741103039684;s_h;;;;;0;19;19;19;;;;;;;284.47063859994523;None;285.9786847999785;286.2954056998715;287.50408390001394;287.52907479996793;291.8206255999394;None;9;0;1.0812812999356538;291.8206255999394;None;;;;;;;;8;;;;;;;293.47864139988087;None;None;None;[];293.47864139988087;None;"['9', '9', '9', '9', '9']";"[0.34329560003243387, 0.58349660015665, 0.8392602000385523, 2.1352034001611173, 2.8793325000442564]";293.47864139988087;None;;;S10963;2021_Oct_07_1303;VideoMask;2021.1.2;120.16573272140839;
8.0;f;028_y_f_s_a.jpg;sad;7.0;happy_122.3.wmv;happy;9.0;incongruent;130.0;150.0;171.8670540936116;s_h;;;;;0;20;20;20;;;;;;;296.4787266999483;None;298.1199845999945;298.43672059988603;299.5701563998591;299.5867754998617;301.5792483999394;None;9;0;0.7706465001683682;301.5792483999394;None;;;;;;;;7;;;;;;;303.29498520004563;None;None;None;[];303.29498520004563;None;"['9', '9', '9']";"[0.3189468998461962, 0.5671934999991208, 0.8710057998541743]";303.29498520004563;None;;;S10963;2021_Oct_07_1303;VideoMask;2021.1.2;120.16573272140839;
8.0;m;008_y_m_s_a.jpg;sad;7.0;sad_6.5ns.avi;sad;7.0;congruent;130.0;160.0;170.39333839271438;s_s;;;;;0;21;21;21;;;;;;;306.2948260998819;None;307.92816430004314;308.24502999987453;309.42807470005937;309.4445660999045;314.3780683998484;None;7;0;0.4598362999968231;314.3780683998484;None;;;;;;;;4;;;;;;;316.0862368999515;None;None;None;[];316.0862368999515;None;['7'];[0.47172929998487234];316.0862368999515;None;;;S10963;2021_Oct_07_1303;VideoMask;2021.1.2;120.16573272140839;
8.0;f;028_y_f_h_a.jpg;happy;9.0;happy_23.1ns.avi;happy;9.0;congruent;120.0;150.0;225.70986890587952;h_h;;;;;0;22;22;22;;;;;;;319.0945512999315;None;321.17755929986015;321.4943790999241;322.6524328000378;322.66935799992643;327.20307469996624;None;9;0;0.5947755998931825;327.20307469996624;None;;;;;;;;8;;;;;;;328.7525913999416;None;None;None;[];328.7525913999416;None;"['9', '9', '9']";"[0.4692460000514984, 0.7094407000113279, 0.9733096000272781]";328.7525913999416;None;;;S10963;2021_Oct_07_1303;VideoMask;2021.1.2;120.16573272140839;
8.0;m;008_y_m_h_a.jpg;happy;9.0;sad_111.1.wmv;sad;7.0;incongruent;120.0;160.0;152.63076835312847;h_s;;;;;0;23;23;23;;;;;;;331.752420600038;None;333.22723319986835;333.54413359984756;334.71108269994147;334.7356485000346;336.6940454998985;None;7;0;0.5118287999648601;336.6940454998985;None;;;;;;;;4;;;;;;;338.2772349000443;None;None;None;[];338.2772349000443;None;['7'];[0.4887529001571238];338.2772349000443;None;;;S10963;2021_Oct_07_1303;VideoMask;2021.1.2;120.16573272140839;
0.0;f;040_y_f_s_a.jpg;sad;7.0;sad_67.2ns.avi;sad;7.0;congruent;130.0;160.0;220.9892697323079;s_s;;;;;0;24;24;24;;;;;;;341.27729630004615;None;343.3435605999548;343.66105569992214;344.8269229000434;344.84361379989423;354.0183963000309;None;7;0;0.5394774000160396;354.0183963000309;None;;;;;;;;4;;;;;;;355.5683408000041;None;None;None;[];355.5683408000041;None;['7'];[0.4214472998864949];355.5683408000041;None;;;S10963;2021_Oct_07_1303;VideoMask;2021.1.2;120.16573272140839;
8.0;m;008_y_m_s_a.jpg;sad;7.0;happy_29.1ns.avi;happy;9.0;incongruent;130.0;150.0;120.0316142834122;s_h;;;;;0;25;25;25;;;;;;;358.56823239987716;None;359.7680754000321;360.0848318999633;361.2681589999702;361.2846961999312;363.9097968998831;None;9;0;1.0880181000102311;363.9097968998831;None;;;;;;;;6;;;;;;;365.46804539998993;None;None;None;[];365.46804539998993;None;['9'];[1.5938703999854624];365.46804539998993;None;;;S10963;2021_Oct_07_1303;VideoMask;2021.1.2;120.16573272140839;
6.0;m;016_y_m_s_a.jpg;sad;7.0;sad_8.3ns.avi;sad;7.0;congruent;130.0;160.0;152.85371098242734;s_s;;;;;0;26;26;26;;;;;;;368.47632219991647;None;369.9762150000315;370.29281749995425;371.42600749991834;371.4428526998963;379.18504610005766;None;8;0;1.0767234000377357;379.18504610005766;None;;;;;;;;5;;;;;;;380.73416820005514;None;None;None;[];380.73416820005514;None;['7'];[1.5117810999508947];380.73416820005514;None;;;S10963;2021_Oct_07_1303;VideoMask;2021.1.2;120.16573272140839;
6.0;m;016_y_m_h_a.jpg;happy;9.0;sad_114.1.wmv;sad;7.0;incongruent;120.0;160.0;136.20550699298644;h_s;;;;;0;27;27;27;;;;;;;383.74246029998176;None;385.0839994000271;385.40067459992133;386.5338915998582;386.55073480005376;388.53405679995194;None;7;0;0.9996703998185694;388.53405679995194;None;;;;;;;;5;;;;;;;390.0922764998395;None;None;None;[];390.0922764998395;None;None;;390.0922764998395;None;;;S10963;2021_Oct_07_1303;VideoMask;2021.1.2;120.16573272140839;
7.0;m;027_o_m_s_a.jpg;sad;7.0;happy_117.3.wmv;happy;9.0;incongruent;130.0;150.0;215.61964028550614;s_h;;;;;0;28;28;28;;;;;;;393.1254886998795;None;395.11688049999066;395.4338332999032;396.56694759987295;396.5836479999125;398.56710199988447;None;9;0;0.630551700014621;398.56710199988447;None;;;;;;;;6;;;;;;;400.1169350000564;None;None;None;[];400.1169350000564;None;['9'];[1.2330762001220137];400.1169350000564;None;;;S10963;2021_Oct_07_1303;VideoMask;2021.1.2;120.16573272140839;
6.0;m;016_y_m_h_a.jpg;happy;9.0;happy_9.2ns.avi;happy;9.0;congruent;120.0;150.0;130.52042428082717;h_h;;;;;0;29;29;29;;;;;;;403.1252410998568;None;404.4167034998536;404.73362610000186;405.90010119997896;405.9166949999053;411.80830769985914;None;9;0;0.6615275000222027;411.80830769985914;None;;;;;;;;7;;;;;;;413.3748099000659;None;None;None;[];413.3748099000659;None;"['9', '9']";"[0.3429119000211358, 0.5672019999474287]";413.3748099000659;None;;;S10963;2021_Oct_07_1303;VideoMask;2021.1.2;120.16573272140839;
0.0;f;040_y_f_s_a.jpg;sad;7.0;happy_127.3.wmv;happy;9.0;incongruent;130.0;150.0;131.7195455720239;s_h;;;;;0;30;30;30;;;;;;;416.36646190006286;None;417.6664096999448;417.9829768000636;419.107904399978;419.12451029988006;421.1830285000615;None;9;0;0.5028013000264764;421.1830285000615;None;;;;;;;;7;;;;;;;422.7329114000313;None;None;None;[];422.7329114000313;None;"['9', '9']";"[0.33678460004739463, 0.6406506998464465]";422.7329114000313;None;;;S10963;2021_Oct_07_1303;VideoMask;2021.1.2;120.16573272140839;
0.0;f;030_o_f_s_a.jpg;sad;7.0;happy_125.3.wmv;happy;9.0;incongruent;130.0;150.0;220.51454909128134;s_h;;;;;0;31;31;31;;;;;;;425.74126439983957;None;427.7911173000466;428.1077832998708;429.2494244000409;429.2660070999991;431.2410653999541;None;9;0;0.5085890998598188;431.2410653999541;None;;;;;;;;6;;;;;;;432.7909384998493;None;None;None;[];432.7909384998493;None;['9'];[0.3988804998807609];432.7909384998493;None;;;S10963;2021_Oct_07_1303;VideoMask;2021.1.2;120.16573272140839;
0.0;f;030_o_f_s_a.jpg;sad;7.0;sad_64.3ns.avi;sad;7.0;congruent;130.0;160.0;165.78667874766072;s_s;;;;;0;32;32;32;;;;;;;435.7992672000546;None;437.3908174999524;437.7073532999493;438.9156481998507;438.9323905999772;443.8407258000225;None;7;0;0.6690241999458522;443.8407258000225;None;;;;;;;;3;;;;;;;445.39052749983966;None;None;None;[];445.39052749983966;None;"['7', '7']";"[0.4712600000202656, 0.807342000072822]";445.39052749983966;None;;;S10963;2021_Oct_07_1303;VideoMask;2021.1.2;120.16573272140839;
3.0;m;013_y_m_s_a.jpg;sad;7.0;sad_7.7ns.avi;sad;7.0;congruent;130.0;160.0;196.24182255763262;s_s;;;;;0;33;33;33;;;;;;;448.3988117999397;None;450.248552700039;450.5651793999132;451.77348569990136;451.79034690000117;457.69858289998956;None;7;0;0.5390614001080394;457.69858289998956;None;;;;;;;;3;;;;;;;459.2483761999756;None;None;None;[];459.2483761999756;None;"['7', '7']";"[0.3896860000677407, 0.6212859000079334]";459.2483761999756;None;;;S10963;2021_Oct_07_1303;VideoMask;2021.1.2;120.16573272140839;
3.0;m;013_y_m_h_a.jpg;happy;9.0;happy_9.1ns.avi;happy;9.0;congruent;120.0;150.0;165.1890303600433;h_h;;;;;0;34;34;34;;;;;;;462.24835949996486;None;463.83146289992146;464.1481989999302;465.2821422999259;465.298240599921;468.50657359999605;None;9;0;0.5551035001408309;468.50657359999605;None;;;;;;;;7;;;;;;;470.3063876000233;None;None;None;[];470.3063876000233;None;"['9', '9']";"[0.3953192001208663, 0.8915691000875086]";470.3063876000233;None;;;S10963;2021_Oct_07_1303;VideoMask;2021.1.2;120.16573272140839;
4.0;m;004_o_m_h_a.jpg;happy;9.0;sad_95.1ns.avi;sad;7.0;incongruent;120.0;160.0;152.68270002069931;h_s;;;;;0;35;35;35;;;;;;;473.31471589999273;None;474.8146148000378;475.13130660005845;476.3643739998806;476.3810822998639;485.0559280999005;None;7;0;0.6459898999892175;485.0559280999005;None;;;;;;;;2;;;;;;;486.60591879999265;None;None;None;[];486.60591879999265;None;"['7', '7', '7', '7']";"[0.3276389001403004, 0.583759100176394, 0.8158944000024348, 1.2797209999989718]";486.60591879999265;None;;;S10963;2021_Oct_07_1303;VideoMask;2021.1.2;120.16573272140839;
3.0;m;013_y_m_h_a.jpg;happy;9.0;sad_113.2.wmv;sad;7.0;incongruent;120.0;160.0;217.4973891947951;h_s;;;;;0;36;36;36;;;;;;;489.6140606000554;None;491.6472817999311;491.9639113000594;493.0891036998946;493.1057138000615;495.0974246999249;None;7;0;1.388285200111568;495.0974246999249;None;;;;;;;;5;;;;;;;496.64727979991585;None;None;None;[];496.64727979991585;None;None;;496.64727979991585;None;;;S10963;2021_Oct_07_1303;VideoMask;2021.1.2;120.16573272140839;
4.0;m;004_o_m_h_a.jpg;happy;9.0;happy_25.1ns.avi;happy;9.0;congruent;120.0;150.0;216.63044503818386;h_h;;;;;0;37;37;37;;;;;;;499.680561499903;None;501.6885389999952;502.00536039983854;503.163749899948;503.18035949999467;506.8306262998376;None;9;0;0.5990003000479192;506.8306262998376;None;;;;;;;;9;;;;;;;508.41347689996473;None;None;None;[];508.41347689996473;None;"['9', '9', '9', '9', '9']";"[0.2802091999910772, 0.5282382001169026, 0.7602532999590039, 1.0562346999067813, 2.3201905000023544]";508.41347689996473;None;;;S10963;2021_Oct_07_1303;VideoMask;2021.1.2;120.16573272140839;
4.0;m;004_o_m_s_a.jpg;sad;7.0;happy_131.2.wmv;happy;9.0;incongruent;130.0;150.0;181.38407540847405;s_h;;;;;0;38;38;38;;;;;;;511.42185929999687;None;513.1382635000627;513.4550282000564;514.5964587999042;514.6133276999462;516.5883454999421;None;9;0;0.6413006000220776;516.5883454999421;None;;;;;;;;6;;;;;;;518.1382243998814;None;None;None;[];518.1382243998814;None;['9'];[1.2595645000692457];518.1382243998814;None;;;S10963;2021_Oct_07_1303;VideoMask;2021.1.2;120.16573272140839;
0.0;f;040_y_f_h_a.jpg;happy;9.0;happy_24.3ns.avi;happy;9.0;congruent;120.0;150.0;213.25460698950434;h_h;;;;;0;39;39;39;;;;;;;521.1381504999008;None;523.1046225999016;523.4214643000159;524.5797329000197;524.596320600016;526.4797020000406;None;9;0;0.9178679999895394;526.4797020000406;None;;;;;;;;6;;;;;;;528.0296126999892;None;None;None;[];528.0296126999892;None;['9'];[0.3682752000167966];528.0296126999892;None;;;S10963;2021_Oct_07_1303;VideoMask;2021.1.2;120.16573272140839;
2.0;f;012_o_f_s_a.jpg;sad;7.0;happy_139.1.wmv;happy;9.0;incongruent;130.0;150.0;162.31500468041804;s_h;;;;;0;40;40;40;;;;;;;531.0296964999288;None;532.5792946000583;532.8960663999896;534.0301170998719;534.054446300026;536.037818599958;None;9;0;0.5677314000204206;536.037818599958;None;;;;;;;;7;;;;;;;537.5959548000246;None;None;None;[];537.5959548000246;None;"['9', '9']";"[0.2896877999883145, 0.5295858001336455]";537.5959548000246;None;;;S10963;2021_Oct_07_1303;VideoMask;2021.1.2;120.16573272140839;
0.0;f;030_o_f_h_a.jpg;happy;9.0;happy_24.1ns.avi;happy;9.0;congruent;120.0;150.0;168.36256624020774;h_h;;;;;0;41;41;41;;;;;;;540.6043483999092;None;542.2040281998925;542.5207469998859;543.7128528000321;543.7373937999364;546.9957340999972;None;9;0;0.4178182000759989;546.9957340999972;None;;;;;;;;6;;;;;;;548.5539480999578;None;None;None;[];548.5539480999578;None;['9'];[0.4357431000098586];548.5539480999578;None;;;S10963;2021_Oct_07_1303;VideoMask;2021.1.2;120.16573272140839;
2.0;f;012_o_f_h_a.jpg;happy;9.0;sad_113.1.wmv;sad;7.0;incongruent;120.0;160.0;177.44551734737394;h_s;;;;;0;42;42;42;;;;;;;551.5540252998471;None;553.253718300024;553.5704636999872;554.7036013000179;554.7204888998531;556.7120852998924;None;7;0;0.5094719000626355;556.7120852998924;None;;;;;;;;4;;;;;;;558.2702979999594;None;None;None;[];558.2702979999594;None;['7'];[0.6953765999060124];558.2702979999594;None;;;S10963;2021_Oct_07_1303;VideoMask;2021.1.2;120.16573272140839;
3.0;m;033_o_m_s_a.jpg;sad;7.0;sad_64.5ns.avi;sad;7.0;congruent;130.0;160.0;130.55717223801247;s_s;;;;;0;43;43;43;;;;;;;561.2786655998789;None;562.5784195000306;562.8951136998367;564.1034504999407;564.1201831998769;570.6117076000664;None;7;0;0.46587399998679757;570.6117076000664;None;;;;;;;;2;;;;;;;572.1532181999646;None;None;None;[];572.1532181999646;None;"['7', '7', '7']";"[0.420275199925527, 0.652296399930492, 1.5004332999233156]";572.1532181999646;None;;;S10963;2021_Oct_07_1303;VideoMask;2021.1.2;120.16573272140839;
7.0;m;027_o_m_h_a.jpg;happy;9.0;sad_117.1.wmv;sad;7.0;incongruent;120.0;160.0;181.28665202824095;h_s;;;;;0;44;44;44;;;;;;;575.1786064000335;None;576.8945678998716;577.211280999938;578.3446454000659;578.361401699949;580.3530432998668;None;7;0;0.7163696999195963;580.3530432998668;None;;;;;;;;4;;;;;;;581.9112726999447;None;None;None;[];581.9112726999447;None;['7'];[0.4864225999917835];581.9112726999447;None;;;S10963;2021_Oct_07_1303;VideoMask;2021.1.2;120.16573272140839;
3.0;m;033_o_m_s_a.jpg;sad;7.0;happy_126.3.wmv;happy;9.0;incongruent;130.0;150.0;198.85252030535366;s_h;;;;;0;45;45;45;;;;;;;584.9113600000273;None;586.7692724000663;587.0860078998376;588.2191884999629;588.2360400999896;590.2278503999114;None;9;0;0.4736865002196282;590.2278503999114;None;;;;;;;;6;;;;;;;591.7858625999652;None;None;None;[];591.7858625999652;None;['9'];[0.451642100000754];591.7858625999652;None;;;S10963;2021_Oct_07_1303;VideoMask;2021.1.2;120.16573272140839;
3.0;m;033_o_m_h_a.jpg;happy;9.0;sad_136.1.wmv;sad;7.0;incongruent;120.0;160.0;176.97002883463455;h_s;;;;;0;46;46;46;;;;;;;594.794243699871;None;596.4773337000515;596.7940072000492;597.9191425999161;597.9356839999091;599.9273773999885;None;7;0;1.2304279000964016;599.9273773999885;None;;;;;;;;5;;;;;;;601.4773454000242;None;None;None;[];601.4773454000242;None;None;;601.4773454000242;None;;;S10963;2021_Oct_07_1303;VideoMask;2021.1.2;120.16573272140839;
9.0;f;019_m_f_h_a.jpg;happy;9.0;happy_10.1ns.avi;happy;9.0;congruent;120.0;150.0;157.2463435658512;h_h;;;;;0;47;47;47;;;;;;;604.4937583999708;None;606.0188432000577;606.3354940998834;607.5437475999352;607.5604928999674;614.910214100033;None;9;0;0.48726839991286397;614.910214100033;None;;;;;;;;8;;;;;;;616.460138999857;None;None;None;[];616.460138999857;None;"['9', '9', '9', '9']";"[0.3293391999322921, 0.5294927998911589, 0.7373091001063585, 1.1614709999412298]";616.460138999857;None;;;S10963;2021_Oct_07_1303;VideoMask;2021.1.2;120.16573272140839;
2.0;f;012_o_f_h_a.jpg;happy;9.0;happy_2.2ns.avi;happy;9.0;congruent;120.0;150.0;206.34800317295262;h_h;;;;;0;48;48;48;;;;;;;619.4684726998676;None;621.434876400046;621.7516457999591;622.9266113999765;622.943302199943;635.093633600045;None;9;0;0.479918799828738;635.093633600045;None;;;;;;;;7;;;;;;;637.3094999999739;None;None;None;[];637.3094999999739;None;"['9', '9']";"[0.40007350011728704, 0.6242305000778288]";637.3094999999739;None;;;S10963;2021_Oct_07_1303;VideoMask;2021.1.2;120.16573272140839;
3.0;m;033_o_m_h_a.jpg;happy;9.0;happy_24.2ns.avi;happy;9.0;congruent;120.0;150.0;167.9423847659953;h_h;;;;;0;49;49;49;;;;;;;640.309544299962;None;641.9092276999727;642.2259748000652;643.4096222999506;643.426142500015;647.0843364999164;None;9;0;0.4973697999957949;647.0843364999164;None;;;;;;;;7;;;;;;;648.9091527999844;None;None;None;[];648.9091527999844;None;"['9', '9', '9', '9', '7']";"[0.35223990003578365, 0.5522479000501335, 0.8482740998733789, 2.1686438999604434, 2.904308500001207]";648.9091527999844;None;;;S10963;2021_Oct_07_1303;VideoMask;2021.1.2;120.16573272140839;
1.0;f;021_o_f_s_a.jpg;sad;7.0;happy_61.2ns.avi;happy;9.0;incongruent;130.0;150.0;210.94664004826666;s_h;;;;;0;50;50;50;;;;;;;651.9091490998399;None;653.8588258998934;654.1755957999267;655.3505218999926;655.3672609999776;659.8504564999603;None;9;0;0.3950797999277711;659.8504564999603;None;;;;;;;;7;;;;;;;661.4087737000082;None;None;None;[];661.4087737000082;None;"['9', '9', '9', '7']";"[0.3327391999773681, 0.548628999851644, 1.2765701999887824, 2.1729145999997854]";661.4087737000082;None;;;S10963;2021_Oct_07_1303;VideoMask;2021.1.2;120.16573272140839;
4.0;m;004_o_m_s_a.jpg;sad;7.0;sad_2.4ns.avi;sad;7.0;congruent;130.0;160.0;153.02079367163634;s_s;;;;;0;51;51;51;;;;;;;664.4088542000391;None;665.9001519999001;666.2171600000001;667.3751568000298;667.3918832000345;675.3169187998865;None;7;0;0.40047180000692606;675.3169187998865;None;;;;;;;;4;;;;;;;676.8832342999522;None;None;None;[];676.8832342999522;None;['7'];[0.41848469991236925];676.8832342999522;None;;;S10963;2021_Oct_07_1303;VideoMask;2021.1.2;120.16573272140839;
8.0;m;008_y_m_h_a.jpg;happy;9.0;happy_1.2ns.avi;happy;9.0;congruent;120.0;150.0;210.98946429383824;h_h;;;;;0;52;52;52;;;;;;;679.8916839999147;None;681.8829395999201;682.1997904998716;683.3746662000194;683.3913767999038;696.1326828999445;None;9;0;0.7127063998486847;696.1326828999445;None;;;;;;;;4;;;;;;;697.6825751999859;None;None;None;[];697.6825751999859;None;['7'];[0.6909278000239283];697.6825751999859;None;;;S10963;2021_Oct_07_1303;VideoMask;2021.1.2;120.16573272140839;
2.0;f;012_o_f_s_a.jpg;sad;7.0;happy_52.2ns.avi;happy;9.0;incongruent;130.0;150.0;172.57202848318138;s_h;;;;;0;53;53;53;;;;;;;700.6825234999415;None;702.3073279999662;702.6241081999615;703.7741004999261;703.7908258999232;707.3074326999485;None;9;0;0.6658662999980152;707.3074326999485;None;;;;;;;;7;;;;;;;708.857298299903;None;None;None;[];708.857298299903;None;"['9', '9']";"[0.348142399918288, 0.548144199885428]";708.857298299903;None;;;S10963;2021_Oct_07_1303;VideoMask;2021.1.2;120.16573272140839;
9.0;f;019_m_f_s_a.jpg;sad;7.0;happy_61.1ns.avi;happy;9.0;incongruent;130.0;150.0;181.3003220572762;s_h;;;;;0;54;54;54;;;;;;;711.8656476000324;None;713.5986667999532;713.9152687999886;715.0825795000419;715.10710439994;722.4404480999801;None;9;0;0.4529591999016702;722.4404480999801;None;;;;;;;;6;;;;;;;724.3318252000026;None;None;None;[];724.3318252000026;None;"['9', '9']";"[0.3455130001530051, 0.7375258000101894]";724.3318252000026;None;;;S10963;2021_Oct_07_1303;VideoMask;2021.1.2;120.16573272140839;
0.0;f;030_o_f_h_a.jpg;happy;9.0;sad_133.1.wmv;sad;7.0;incongruent;120.0;160.0;198.86251500867985;h_s;;;;;0;55;55;55;;;;;;;727.3318322000559;None;729.1982287999708;729.5148990999442;730.6484085998964;730.6655569998547;732.648212299915;None;7;0;0.5170967997983098;732.648212299915;None;;;;;;;;4;;;;;;;734.1981049999595;None;None;None;[];734.1981049999595;None;['7'];[1.463192200055346];734.1981049999595;None;;;S10963;2021_Oct_07_1303;VideoMask;2021.1.2;120.16573272140839;
0.0;f;040_y_f_h_a.jpg;happy;9.0;sad_128.2.wmv;sad;7.0;incongruent;120.0;160.0;206.10005857915363;h_s;;;;;0;56;56;56;;;;;;;737.1979996999726;None;739.1231211998966;739.4395244999323;740.5728833000176;740.5896111000329;742.5728744999506;None;7;0;0.5603652000427246;742.5728744999506;None;;;;;;;;3;;;;;;;744.3061830999795;None;None;None;[];744.3061830999795;None;"['7', '7', '7']";"[0.41919329995289445, 0.6194547999184579, 0.9150926999282092]";744.3061830999795;None;;;S10963;2021_Oct_07_1303;VideoMask;2021.1.2;120.16573272140839;
1.0;f;021_o_f_s_a.jpg;sad;7.0;sad_9.5ns.avi;sad;7.0;congruent;130.0;160.0;206.16642757875042;s_s;;;;;0;57;57;57;;;;;;;747.3144310999196;None;749.2391237998381;749.5560120998416;750.7308216998354;750.7557536999229;756.414091099985;None;7;0;0.5912152000237256;756.414091099985;None;;;;;;;;3;;;;;;;757.964029799914;None;None;None;[];757.964029799914;None;"['7', '7', '7', '7', '9', '9']";"[0.38526590005494654, 0.6572916998993605, 0.9213004999328405, 1.305417099967599, 1.7693252000026405, 2.1372839000541717]";757.964029799914;None;;;S10963;2021_Oct_07_1303;VideoMask;2021.1.2;120.16573272140839;
1.0;f;021_o_f_h_a.jpg;happy;9.0;happy_12.1ns.avi;happy;9.0;congruent;120.0;150.0;132.59080005900228;h_h;;;;;0;58;58;58;;;;;;;760.9640935999341;None;762.2889173999429;762.6056088998448;763.7970912000164;763.813710700022;771.3554165000096;None;9;0;0.521813000086695;771.3554165000096;None;;;;;;;;7;;;;;;;772.905227900017;None;None;None;[];772.905227900017;None;"['9', '9']";"[0.4761350001208484, 0.7242910000495613]";772.905227900017;None;;;S10963;2021_Oct_07_1303;VideoMask;2021.1.2;120.16573272140839;
3.0;m;013_y_m_s_a.jpg;sad;7.0;happy_56.2ns.avi;happy;9.0;incongruent;130.0;150.0;163.39234110935848;s_h;;;;;0;59;59;59;;;;;;;775.9135193000548;None;777.488342900062;777.8049945000093;778.9798691000324;778.9969609000254;783.9798725000583;None;9;0;0.5457496999297291;783.9798725000583;None;;;;;;;;6;;;;;;;785.6715255999006;None;None;None;[];785.6715255999006;None;['9'];[0.39788959990255535];785.6715255999006;None;;;S10963;2021_Oct_07_1303;VideoMask;2021.1.2;120.16573272140839;
;;;;;;;;;;;;;;;;;;;;;;;;;;;;;;;;;;;;;;;;;;;;;;;;;;;;;;;;;;;;;;;;;788.6715426000301;None;;;;;;
