primePerson;primeGender;prime;primeEmotion;corrAnsPrime;target;targetEmotion;corrAnsTar;Cond;ID_Primer;ID_Target;JitterTime;Condition;example.thisRepN;example.thisTrialN;example.thisN;example.thisIndex;study.thisRepN;study.thisTrialN;study.thisN;study.thisIndex;MR_trigger_time;MR_trigger_number;text_intro.started;text_intro.stopped;text_probe.started;text_probe.stopped;polygon_ISI.started;polygon_ISI.stopped;polygon.started;polygon.stopped;primerImage.started;primerImage.stopped;response.started;response.stopped;key_resp.keys;key_resp.corr;key_resp.rt;key_resp.started;key_resp.stopped;slider_Text.started;slider_Text.stopped;slider_ex.response;slider_ex.rt;slider_ex.history;slider_ex.started;slider_ex.stopped;Rating;slider_resp_response.keys;slider_resp_response.rt;slider_resp_response.started;slider_resp_response.stopped;text_start.started;text_start.stopped;text_slider.started;text_slider.stopped;slider_stud.response;slider_stud.rt;slider_stud.history;slider_stud.started;slider_stud.stopped;slider_resp_study.keys;slider_resp_study.rt;slider_resp_study.started;slider_resp_study.stopped;text_ende.started;text_ende.stopped;participant;date;expName;psychopyVersion;frameRate;
1111;m;1111_m_m_h_a.jpg;happy;9;example_30.4ns.avi;neutral;7;incongruent;120.0;170.0;189.5874364012288;;0;0;0;0;;;;;32.22531139990315;1;32.302677899831906;34.302877199836075;34.302877199836075;None;36.3192837999668;None;38.252923499792814;38.56930199987255;39.72763039986603;39.74436629982665;44.04429849982262;None;8;0;0.6156536999624223;44.04429849982262;None;45.935769899981096;None;None;None;[];45.935769899981096;None;5;['9'];[0.612126300111413];45.935769899981096;None;;;;;;;;;;;;;;;;S11879;2022_Nov_22_1829;VideoMask;2021.1.2;119.91687371610314;
1113;f;1113_y_f_s_a.jpg;sad;7;example_30.3ns.avi;neutral;7;incongruent;130.0;170.0;229.02432995836998;;0;1;1;1;;;;;;;;;;;48.935752499848604;None;51.0520773997996;51.36889269994572;52.51052269991487;52.527273199986666;54.502156499773264;None;8;0;0.5737607998307794;54.502156499773264;None;56.05206219991669;None;None;None;[];56.05206219991669;None;5;None;;56.05206219991669;None;;;;;;;;;;;;;;;;S11879;2022_Nov_22_1829;VideoMask;2021.1.2;119.91687371610314;
9.0;f;019_m_f_h_a.jpg;happy;9.0;sad_115.1.wmv;sad;7.0;incongruent;120.0;160.0;128.09063432376465;h_s;;;;;0;0;0;0;;;;;;;60.0767777999863;None;61.35174409998581;61.66847349982709;62.801713899942115;62.81852299999446;64.81021079979837;None;7;0;0.617664499906823;64.81021079979837;None;;;;;;;;2;;;;;59.068575999932364;None;66.36845169984736;None;None;None;[];66.36845169984736;None;"['7', '7', '7']";"[0.4596802000887692, 0.8836634000763297, 1.3393588000908494]";66.36845169984736;None;;;S11879;2022_Nov_22_1829;VideoMask;2021.1.2;119.91687371610314;
3.0;m;033_o_m_s_a.jpg;sad;7.0;sad_94.2ns.avi;sad;7.0;congruent;130.0;160.0;182.29120173647655;s_s;;;;;0;1;1;1;;;;;;;69.36005509993993;None;71.06814999994822;71.38491479982622;72.56820669979788;72.58487569983117;75.20998409995809;None;7;0;1.1057734000496566;75.20998409995809;None;;;;;;;;2;;;;;;;76.7680610998068;None;None;None;[];76.7680610998068;None;"['7', '7', '7', '7']";"[0.6278385000769049, 0.9878448001109064, 1.3161927999462932, 2.0278098999988288]";76.7680610998068;None;;;S11879;2022_Nov_22_1829;VideoMask;2021.1.2;119.91687371610314;
8.0;m;008_y_m_h_a.jpg;happy;9.0;happy_26.1ns.avi;happy;9.0;congruent;120.0;150.0;155.9437854594882;h_h;;;;;0;2;2;2;;;;;;;79.76797439996153;None;81.25938679999672;81.57621879992075;82.70952719985507;82.7262695999816;84.70110799977556;None;9;0;0.5187626997940242;84.70110799977556;None;;;;;;;;8;;;;;;;86.25107229989953;None;None;None;[];86.25107229989953;None;"['9', '9', '9']";"[0.4006976999808103, 0.6645863999146968, 1.0087200000416487]";86.25107229989953;None;;;S11879;2022_Nov_22_1829;VideoMask;2021.1.2;119.91687371610314;
0.0;f;040_y_f_h_a.jpg;happy;9.0;sad_138.1.wmv;sad;7.0;incongruent;120.0;160.0;133.99071306426532;h_s;;;;;0;3;3;3;;;;;;;89.25099559989758;None;90.59249609988183;90.90923829982057;92.0343228999991;92.05085819982924;94.04236999992281;None;7;0;0.6094721998088062;94.04236999992281;None;;;;;;;;2;;;;;;;95.59234679979272;None;None;None;[];95.59234679979272;None;"['7', '7', '7']";"[0.39546730020083487, 0.6832862000446767, 1.131442500045523]";95.59234679979272;None;;;S11879;2022_Nov_22_1829;VideoMask;2021.1.2;119.91687371610314;
8.0;f;028_y_f_s_a.jpg;sad;7.0;sad_64.2ns.avi;sad;7.0;congruent;130.0;160.0;229.88540597086478;s_s;;;;;0;4;4;4;;;;;;;98.59244149993174;None;100.79215309978463;101.10891789989546;102.29212909983471;102.30890899989754;113.2426720999647;None;7;0;0.8413533999118954;113.2426720999647;None;;;;;;;;1;;;;;;;115.19182719988748;None;None;None;[];115.19182719988748;None;"['7', '7', '7', '7']";"[0.348210500087589, 0.93198879994452, 1.3562865999992937, 1.715943800052628]";115.19182719988748;None;;;S11879;2022_Nov_22_1829;VideoMask;2021.1.2;119.91687371610314;
7.0;m;027_o_m_s_a.jpg;sad;7.0;sad_10.4ns.avi;sad;7.0;congruent;130.0;160.0;185.20129417468752;s_s;;;;;0;5;5;5;;;;;;;118.19163709995337;None;119.94989489996806;120.26657469989732;121.44159569987096;121.45830449997447;124.57487369980663;None;7;0;0.8449522000737488;124.57487369980663;None;;;;;;;;2;;;;;;;126.12480299989693;None;None;None;[];126.12480299989693;None;"['7', '7', '7']";"[0.38319800002500415, 0.6710195001214743, 1.0710261999629438]";126.12480299989693;None;;;S11879;2022_Nov_22_1829;VideoMask;2021.1.2;119.91687371610314;
2.0;f;012_o_f_s_a.jpg;sad;7.0;sad_7.5ns.avi;sad;7.0;congruent;130.0;160.0;220.27842655424388;s_s;;;;;0;6;6;6;;;;;;;129.12473559984937;None;131.15784439980052;131.47458959999494;132.64119719993323;132.6578434999101;135.39971639984287;None;7;0;1.0200708000920713;135.39971639984287;None;;;;;;;;3;;;;;;;136.95773509982973;None;None;None;[];136.95773509982973;None;"['7', '7']";"[0.43019230011850595, 1.4459407001268119]";136.95773509982973;None;;;S11879;2022_Nov_22_1829;VideoMask;2021.1.2;119.91687371610314;
2.0;f;012_o_f_h_a.jpg;happy;9.0;happy_27.1ns.avi;happy;9.0;congruent;120.0;150.0;146.44967055810616;h_h;;;;;0;7;7;7;;;;;;;139.9660014999099;None;141.39084139978513;141.7075455999002;142.9498843997717;142.9743886999786;145.3324980000034;None;9;0;0.5992866000160575;145.3324980000034;None;;;;;;;;7;;;;;;;146.88237329991534;None;None;None;[];146.88237329991534;None;"['9', '9', '9', '9']";"[0.36141749983653426, 0.6093707999680191, 0.8492268999107182, 1.185398899950087]";146.88237329991534;None;;;S11879;2022_Nov_22_1829;VideoMask;2021.1.2;119.91687371610314;
8.0;f;028_y_f_h_a.jpg;happy;9.0;sad_119.1.wmv;sad;7.0;incongruent;120.0;160.0;148.71526953572538;h_s;;;;;0;8;8;8;;;;;;;149.89072349993512;None;151.3487958998885;151.6654556998983;152.7989009998273;152.81553319981322;154.8654862998519;None;7;0;0.6742886998690665;154.8654862998519;None;;;;;;;;2;;;;;;;156.41543850000016;None;None;None;[];156.41543850000016;None;"['7', '7', '7']";"[0.3721622999291867, 0.6923109998460859, 1.0203173998743296]";156.41543850000016;None;;;S11879;2022_Nov_22_1829;VideoMask;2021.1.2;119.91687371610314;
6.0;m;016_y_m_s_a.jpg;sad;7.0;happy_60.4ns.avi;happy;9.0;incongruent;130.0;150.0;126.02367393611817;s_h;;;;;0;9;9;9;;;;;;;159.4237783998251;None;160.71530389995314;161.03180529992096;162.2069170998875;162.22361479979008;167.95682899979874;None;8;0;0.45480860001407564;167.95682899979874;None;;;;;;;;5;;;;;;;169.506720099831;None;None;None;[];169.506720099831;None;None;;169.506720099831;None;;;S11879;2022_Nov_22_1829;VideoMask;2021.1.2;119.91687371610314;
9.0;f;019_m_f_s_a.jpg;sad;7.0;sad_8.4ns.avi;sad;7.0;congruent;130.0;160.0;171.6633093155257;s_s;;;;;0;10;10;10;;;;;;;172.53154979995452;None;174.21482239989564;174.5314646998886;175.72314299992286;175.7397988999728;183.79784069978632;None;None;0;;183.79784069978632;None;;;;;;;;3;;;;;;;185.34759809984826;None;None;None;[];185.34759809984826;None;"['7', '7']";"[0.36840749997645617, 0.6080362999346107]";185.34759809984826;None;;;S11879;2022_Nov_22_1829;VideoMask;2021.1.2;119.91687371610314;
4.0;m;004_o_m_h_a.jpg;happy;9.0;happy_1.1ns.avi;happy;9.0;congruent;120.0;150.0;203.50057144619865;h_h;;;;;0;11;11;11;;;;;;;188.3478126998525;None;190.33075679978356;190.64766759984195;191.82266869978048;191.8392798998393;206.27244969992898;None;8;0;0.8353641000576317;206.27244969992898;None;;;;;;;;6;;;;;;;208.01371129998006;None;None;None;[];208.01371129998006;None;['9'];[0.3979177000001073];208.01371129998006;None;;;S11879;2022_Nov_22_1829;VideoMask;2021.1.2;119.91687371610314;
7.0;m;027_o_m_h_a.jpg;happy;9.0;happy_20.1ns.avi;happy;9.0;congruent;120.0;150.0;152.91127178874285;h_h;;;;;0;12;12;12;;;;;;;211.01371939992532;None;212.50523649994284;212.82179639977403;213.98006909992546;213.99710409995168;216.97167999995872;None;9;0;0.864177200011909;216.97167999995872;None;;;;;;;;9;;;;;;;218.5217181998305;None;None;None;[];218.5217181998305;None;"['9', '9', '9', '9']";"[0.23394450009800494, 0.46587920002639294, 0.9298499000724405, 1.2658685999922454]";218.5217181998305;None;;;S11879;2022_Nov_22_1829;VideoMask;2021.1.2;119.91687371610314;
0.0;f;040_y_f_s_a.jpg;sad;7.0;sad_94.3ns.avi;sad;7.0;congruent;130.0;160.0;155.27414203894395;s_s;;;;;0;13;13;13;;;;;;;221.52990889991634;None;223.02976179984398;223.34650439978577;224.54689199989662;224.57126059988514;227.10483379988;None;7;0;0.7149306999053806;227.10483379988;None;;;;;;;;2;;;;;;;228.65468899998814;None;None;None;[];228.65468899998814;None;"['7', '7', '7', '7']";"[0.5569309999700636, 0.9010270999278873, 1.245012299856171, 1.5968877000268549]";228.65468899998814;None;;;S11879;2022_Nov_22_1829;VideoMask;2021.1.2;119.91687371610314;
0.0;f;030_o_f_s_a.jpg;sad;7.0;sad_68.1ns.avi;sad;7.0;congruent;130.0;160.0;158.9411396037211;s_s;;;;;0;14;14;14;;;;;;;231.65470259985887;None;233.21287799999118;233.52945399982855;234.6708560998086;234.6876882999204;242.0875671999529;None;7;0;1.0762905001174659;242.0875671999529;None;;;;;;;;4;;;;;;;243.63752239989117;None;None;None;[];243.63752239989117;None;"['7', '7']";"[0.48613570001907647, 0.9503154999110848]";243.63752239989117;None;;;S11879;2022_Nov_22_1829;VideoMask;2021.1.2;119.91687371610314;
0.0;f;030_o_f_h_a.jpg;happy;9.0;sad_127.1.wmv;sad;7.0;incongruent;120.0;160.0;180.59976631384873;h_s;;;;;0;15;15;15;;;;;;;246.63754629995674;None;248.3539160999935;248.67055949987844;249.80391349992715;249.82069469988346;251.80395789979957;None;None;0;;251.80395789979957;None;;;;;;;;5;;;;;;;253.35390499979258;None;None;None;[];253.35390499979258;None;None;;253.35390499979258;None;;;S11879;2022_Nov_22_1829;VideoMask;2021.1.2;119.91687371610314;
8.0;m;008_y_m_s_a.jpg;sad;7.0;happy_133.3.wmv;happy;9.0;incongruent;130.0;150.0;152.577966552593;s_h;;;;;0;16;16;16;;;;;;;256.37033839989454;None;257.8536011998076;258.17027789982967;259.2954770999495;259.31198939983733;261.3035948998295;None;9;0;0.9160001000855118;261.3035948998295;None;;;;;;;;7;;;;;;;262.8535722999368;None;None;None;[];262.8535722999368;None;"['9', '9']";"[0.4381273000035435, 0.7420659000054002]";262.8535722999368;None;;;S11879;2022_Nov_22_1829;VideoMask;2021.1.2;119.91687371610314;
3.0;m;033_o_m_h_a.jpg;happy;9.0;sad_128.1.wmv;sad;7.0;incongruent;120.0;160.0;171.0492454518585;h_s;;;;;0;17;17;17;;;;;;;265.8535315999761;None;267.50327739981003;267.81999019999057;268.9532648997847;268.97851129993796;270.9532767999917;None;7;0;0.7543311000335962;270.9532767999917;None;;;;;;;;4;;;;;;;272.5365596998017;None;None;None;[];272.5365596998017;None;['7'];[0.562974999891594];272.5365596998017;None;;;S11879;2022_Nov_22_1829;VideoMask;2021.1.2;119.91687371610314;
1.0;f;021_o_f_h_a.jpg;happy;9.0;sad_116.1.wmv;sad;7.0;incongruent;120.0;160.0;184.06847610053055;h_s;;;;;0;18;18;18;;;;;;;275.53647719998844;None;277.28622609982267;277.60297129978426;278.74452339997515;278.76132509997115;280.7453096997924;None;7;0;1.0102981999516487;280.7453096997924;None;;;;;;;;3;;;;;;;282.30284699983895;None;None;None;[];282.30284699983895;None;"['7', '7']";"[0.6448322001378983, 1.2127076999749988]";282.30284699983895;None;;;S11879;2022_Nov_22_1829;VideoMask;2021.1.2;119.91687371610314;
4.0;m;004_o_m_s_a.jpg;sad;7.0;happy_28.1ns.avi;happy;9.0;incongruent;130.0;150.0;157.40741103039684;s_h;;;;;0;19;19;19;;;;;;;285.31122149992734;None;286.8359412997961;287.15271119982935;288.31906679994427;288.3359088997822;292.6776217999868;None;9;0;0.5739635999780148;292.6776217999868;None;;;;;;;;9;;;;;;;294.22752709989436;None;None;None;[];294.22752709989436;None;"['9', '9', '9', '9']";"[0.06387409986928105, 0.44801799999549985, 0.6641613999381661, 0.8399734999984503]";294.22752709989436;None;;;S11879;2022_Nov_22_1829;VideoMask;2021.1.2;119.91687371610314;
8.0;f;028_y_f_s_a.jpg;sad;7.0;happy_122.3.wmv;happy;9.0;incongruent;130.0;150.0;171.8670540936116;s_h;;;;;0;20;20;20;;;;;;;297.2358807998244;None;298.885535299778;299.202243299922;300.3689718998503;300.38565339986235;302.33557559992187;None;9;0;0.47595069999806583;302.33557559992187;None;;;;;;;;9;;;;;;;303.88552869996056;None;None;None;[];303.88552869996056;None;"['9', '9', '9', '9', '9', '9', '9']";"[0.27800809987820685, 0.5178859999869019, 0.7179015998262912, 0.9019434999208897, 1.1019641000311822, 1.3020505998283625, 1.6460024998523295]";303.88552869996056;None;;;S11879;2022_Nov_22_1829;VideoMask;2021.1.2;119.91687371610314;
8.0;m;008_y_m_s_a.jpg;sad;7.0;sad_6.5ns.avi;sad;7.0;congruent;130.0;160.0;170.39333839271438;s_s;;;;;0;21;21;21;;;;;;;306.8855445999652;None;308.51862689992413;308.8353257998824;310.0686189997941;310.08510109991767;314.96862719999626;None;7;0;0.8429153000470251;314.96862719999626;None;;;;;;;;4;;;;;;;316.51843929989263;None;None;None;[];316.51843929989263;None;['7'];[0.589028799906373];316.51843929989263;None;;;S11879;2022_Nov_22_1829;VideoMask;2021.1.2;119.91687371610314;
8.0;f;028_y_f_h_a.jpg;happy;9.0;happy_23.1ns.avi;happy;9.0;congruent;120.0;150.0;225.70986890587952;h_h;;;;;0;22;22;22;;;;;;;319.51842919993214;None;321.6099019998219;321.92662169993855;323.08479189989157;323.10137859988026;327.6346488997806;None;9;0;0.5129311999771744;327.6346488997806;None;;;;;;;;9;;;;;;;329.2096575999167;None;None;None;[];329.2096575999167;None;"['9', '9', '9', '9', '9']";"[0.362023200141266, 0.61778310011141, 0.8656907000113279, 1.1937535000033677, 1.545907000079751]";329.2096575999167;None;;;S11879;2022_Nov_22_1829;VideoMask;2021.1.2;119.91687371610314;
8.0;m;008_y_m_h_a.jpg;happy;9.0;sad_111.1.wmv;sad;7.0;incongruent;120.0;160.0;152.63076835312847;h_s;;;;;0;23;23;23;;;;;;;332.21851099980995;None;333.7093770999927;334.02609849977307;335.1761392999906;335.19282129989006;337.15937469992787;None;None;0;;337.15937469992787;None;;;;;;;;5;;;;;;;338.70918649993837;None;None;None;[];338.70918649993837;None;None;;338.70918649993837;None;;;S11879;2022_Nov_22_1829;VideoMask;2021.1.2;119.91687371610314;
0.0;f;040_y_f_s_a.jpg;sad;7.0;sad_67.2ns.avi;sad;7.0;congruent;130.0;160.0;220.9892697323079;s_s;;;;;0;24;24;24;;;;;;;341.73425039998256;None;343.817483099876;344.13410669984296;345.4674956998788;345.48415159992874;354.5088996998966;None;7;0;0.7905818000435829;354.5088996998966;None;;;;;;;;4;;;;;;;356.0671116998419;None;None;None;[];356.0671116998419;None;['7'];[0.46446159994229674];356.0671116998419;None;;;S11879;2022_Nov_22_1829;VideoMask;2021.1.2;119.91687371610314;
8.0;m;008_y_m_s_a.jpg;sad;7.0;happy_29.1ns.avi;happy;9.0;incongruent;130.0;150.0;120.0316142834122;s_h;;;;;0;25;25;25;;;;;;;359.07552329986356;None;360.2920416998677;360.6085493999999;361.7419719998725;361.75858459994197;364.4335424997844;None;8;0;1.329999800072983;364.4335424997844;None;;;;;;;;6;;;;;;;365.98339399998076;None;None;None;[];365.98339399998076;None;['9'];[0.32420799997635186];365.98339399998076;None;;;S11879;2022_Nov_22_1829;VideoMask;2021.1.2;119.91687371610314;
6.0;m;016_y_m_s_a.jpg;sad;7.0;sad_8.3ns.avi;sad;7.0;congruent;130.0;160.0;152.85371098242734;s_s;;;;;0;26;26;26;;;;;;;368.99187839985825;None;370.5166794999968;370.8332394999452;372.0498407999985;372.06656579999253;379.72479109978303;None;7;0;0.6545371001120657;379.72479109978303;None;;;;;;;;3;;;;;;;381.27462489996105;None;None;None;[];381.27462489996105;None;"['7', '7', '7']";"[0.46467099990695715, 1.184871600009501, 1.6489422998856753]";381.27462489996105;None;;;S11879;2022_Nov_22_1829;VideoMask;2021.1.2;119.91687371610314;
6.0;m;016_y_m_h_a.jpg;happy;9.0;sad_114.1.wmv;sad;7.0;incongruent;120.0;160.0;136.20550699298644;h_s;;;;;0;27;27;27;;;;;;;384.28289479995146;None;385.62434189999476;385.9410929000005;387.09947439981624;387.1159007998649;389.0743834997993;None;7;0;0.6730724000371993;389.0743834997993;None;;;;;;;;1;;;;;;;390.75764469988644;None;None;None;[];390.75764469988644;None;"['7', '7', '7', '7', '7', '7']";"[0.2937904999125749, 0.4537049999926239, 0.589620599988848, 0.7177152999211103, 0.8457290998194367, 0.9736681999638677]";390.75764469988644;None;;;S11879;2022_Nov_22_1829;VideoMask;2021.1.2;119.91687371610314;
7.0;m;027_o_m_s_a.jpg;sad;7.0;happy_117.3.wmv;happy;9.0;incongruent;130.0;150.0;215.61964028550614;s_h;;;;;0;28;28;28;;;;;;;393.7659876998514;None;395.76569029991515;396.0823227998335;397.20741969998926;397.2240726999007;399.21585889998823;None;9;0;0.7875191001221538;399.21585889998823;None;;;;;;;;8;;;;;;;400.76564289978705;None;None;None;[];400.76564289978705;None;"['9', '9', '9']";"[0.5661617999430746, 0.8136368999257684, 2.510231399908662]";400.76564289978705;None;;;S11879;2022_Nov_22_1829;VideoMask;2021.1.2;119.91687371610314;
6.0;m;016_y_m_h_a.jpg;happy;9.0;happy_9.2ns.avi;happy;9.0;congruent;120.0;150.0;130.52042428082717;h_h;;;;;0;29;29;29;;;;;;;403.765559699852;None;405.09049739991315;405.4071021999698;406.5320675999392;406.54858809988946;412.46522759995423;None;9;0;0.6901555000804365;412.46522759995423;None;;;;;;;;9;;;;;;;414.0150235998444;None;None;None;[];414.0150235998444;None;"['9', '9', '9', '9']";"[0.3081889001186937, 0.5083407000638545, 0.7642314000986516, 0.9162145999725908]";414.0150235998444;None;;;S11879;2022_Nov_22_1829;VideoMask;2021.1.2;119.91687371610314;
0.0;f;040_y_f_s_a.jpg;sad;7.0;happy_127.3.wmv;happy;9.0;incongruent;130.0;150.0;131.7195455720239;s_h;;;;;0;30;30;30;;;;;;;417.01522409985773;None;418.3149169997778;418.6316522997804;419.7651121998206;419.7816757999826;421.8314987998456;None;9;0;0.739874399965629;421.8314987998456;None;;;;;;;;7;;;;;;;423.3815040998161;None;None;None;[];423.3815040998161;None;"['9', '9']";"[0.2779024001210928, 0.4697633001487702]";423.3815040998161;None;;;S11879;2022_Nov_22_1829;VideoMask;2021.1.2;119.91687371610314;
0.0;f;030_o_f_s_a.jpg;sad;7.0;happy_125.3.wmv;happy;9.0;incongruent;130.0;150.0;220.51454909128134;s_h;;;;;0;31;31;31;;;;;;;426.3897640998475;None;428.44792399997823;428.7645941998344;429.89837759989314;429.92333169979975;431.89791619987227;None;9;0;0.6974133998155594;431.89791619987227;None;;;;;;;;6;;;;;;;433.4395207997877;None;None;None;[];433.4395207997877;None;['9'];[0.5719272999558598];433.4395207997877;None;;;S11879;2022_Nov_22_1829;VideoMask;2021.1.2;119.91687371610314;
0.0;f;030_o_f_s_a.jpg;sad;7.0;sad_64.3ns.avi;sad;7.0;congruent;130.0;160.0;165.78667874766072;s_s;;;;;0;32;32;32;;;;;;;436.4479014999233;None;438.04773609992117;438.3643025998026;439.48935449984856;439.5060530998744;444.50585069996305;None;7;0;0.6814332001376897;444.50585069996305;None;;;;;;;;2;;;;;;;446.05578830000013;None;None;None;[];446.05578830000013;None;"['7', '7', '7']";"[0.5716738000046462, 0.763613099930808, 0.907482200069353]";446.05578830000013;None;;;S11879;2022_Nov_22_1829;VideoMask;2021.1.2;119.91687371610314;
3.0;m;013_y_m_s_a.jpg;sad;7.0;sad_7.7ns.avi;sad;7.0;congruent;130.0;160.0;196.24182255763262;s_s;;;;;0;33;33;33;;;;;;;449.0558203998953;None;450.91378989978693;451.2305294999387;452.38865929981694;452.40538259991445;458.3637005998753;None;8;0;1.327644000062719;458.3637005998753;None;;;;;;;;4;;;;;;;459.91367989988066;None;None;None;[];459.91367989988066;None;"['7', '7']";"[0.39362369989976287, 0.8976991998497397]";459.91367989988066;None;;;S11879;2022_Nov_22_1829;VideoMask;2021.1.2;119.91687371610314;
3.0;m;013_y_m_h_a.jpg;happy;9.0;happy_9.1ns.avi;happy;9.0;congruent;120.0;150.0;165.1890303600433;h_h;;;;;0;34;34;34;;;;;;;462.92204609978944;None;464.52170099993236;464.838374099927;465.9716923998203;465.98844279977493;469.1967211998999;None;None;0;;469.1967211998999;None;;;;;;;;7;;;;;;;470.73812869982794;None;None;None;[];470.73812869982794;None;"['9', '9', '9', '9']";"[0.15339390002191067, 0.7853643000125885, 1.3053999000694603, 1.665321100037545]";470.73812869982794;None;;;S11879;2022_Nov_22_1829;VideoMask;2021.1.2;119.91687371610314;
4.0;m;004_o_m_h_a.jpg;happy;9.0;sad_95.1ns.avi;sad;7.0;incongruent;120.0;160.0;152.68270002069931;h_s;;;;;0;35;35;35;;;;;;;473.74667289992794;None;475.27981829992495;475.59647709992714;476.7213984997943;476.7381111998111;485.52141359983943;None;7;0;0.7622904998715967;485.52141359983943;None;;;;;;;;2;;;;;;;487.1544085999485;None;None;None;[];487.1544085999485;None;"['7', '7', '7']";"[0.49681319994851947, 0.6651532000396401, 1.096972499974072]";487.1544085999485;None;;;S11879;2022_Nov_22_1829;VideoMask;2021.1.2;119.91687371610314;
3.0;m;013_y_m_h_a.jpg;happy;9.0;sad_113.2.wmv;sad;7.0;incongruent;120.0;160.0;217.4973891947951;h_s;;;;;0;36;36;36;;;;;;;490.1544716998469;None;492.18755779997446;492.5042613998521;493.629269399913;493.6457285999786;495.6374806999229;None;7;0;1.0537747000344098;495.6374806999229;None;;;;;;;;2;;;;;;;497.187405299861;None;None;None;[];497.187405299861;None;"['7', '7', '7']";"[0.41591269988566637, 0.6242293999530375, 0.7999958000145853]";497.187405299861;None;;;S11879;2022_Nov_22_1829;VideoMask;2021.1.2;119.91687371610314;
4.0;m;004_o_m_h_a.jpg;happy;9.0;happy_25.1ns.avi;happy;9.0;congruent;120.0;150.0;216.63044503818386;h_h;;;;;0;37;37;37;;;;;;;500.1873933998868;None;502.2121373999398;502.528889299836;503.72036429983564;503.7370115998201;507.3539919999894;None;9;0;0.6737042001914233;507.3539919999894;None;;;;;;;;8;;;;;;;508.91203209990636;None;None;None;[];508.91203209990636;None;"['9', '9', '9', '9']";"[0.37133649992756546, 0.619266799883917, 0.8993702998850495, 1.2032631998881698]";508.91203209990636;None;;;S11879;2022_Nov_22_1829;VideoMask;2021.1.2;119.91687371610314;
4.0;m;004_o_m_s_a.jpg;sad;7.0;happy_131.2.wmv;happy;9.0;incongruent;130.0;150.0;181.38407540847405;s_h;;;;;0;38;38;38;;;;;;;511.9120037998073;None;513.6367446999066;513.9534379998222;515.0865720999427;515.1032982999459;517.0868111997843;None;9;0;0.7645729000214487;517.0868111997843;None;;;;;;;;6;;;;;;;518.6366725999396;None;None;None;[];518.6366725999396;None;"['9', '9', '9']";"[0.31863330001942813, 0.9185182000510395, 1.3426582999527454]";518.6366725999396;None;;;S11879;2022_Nov_22_1829;VideoMask;2021.1.2;119.91687371610314;
0.0;f;040_y_f_h_a.jpg;happy;9.0;happy_24.3ns.avi;happy;9.0;congruent;120.0;150.0;213.25460698950434;h_h;;;;;0;39;39;39;;;;;;;521.6450743998867;None;523.6197365999687;523.9364487999119;525.1365426999982;525.1531187999062;526.9948294998612;None;9;0;0.9604883999563754;526.9948294998612;None;;;;;;;;6;;;;;;;528.5447039999999;None;None;None;[];528.5447039999999;None;['9'];[0.49859189987182617];528.5447039999999;None;;;S11879;2022_Nov_22_1829;VideoMask;2021.1.2;119.91687371610314;
2.0;f;012_o_f_s_a.jpg;sad;7.0;happy_139.1.wmv;happy;9.0;incongruent;130.0;150.0;162.31500468041804;s_h;;;;;0;40;40;40;;;;;;;531.5529789999127;None;533.1111678997986;533.4276544000022;534.5611943998374;534.5778159999754;536.561116399942;None;9;0;0.6741846001241356;536.561116399942;None;;;;;;;;8;;;;;;;538.1360006998293;None;None;None;[];538.1360006998293;None;"['9', '9', '9', '9', '7']";"[0.32315130019560456, 0.5151249000336975, 0.6513172001577914, 1.059277000138536, 2.739427300170064]";538.1360006998293;None;;;S11879;2022_Nov_22_1829;VideoMask;2021.1.2;119.91687371610314;
0.0;f;030_o_f_h_a.jpg;happy;9.0;happy_24.1ns.avi;happy;9.0;congruent;120.0;150.0;168.36256624020774;h_h;;;;;0;41;41;41;;;;;;;541.1359682998154;None;542.7523912999313;543.0691256998107;544.2029219998512;544.2275171999354;547.5274054999463;None;9;0;1.3397768000140786;547.5274054999463;None;;;;;;;;6;;;;;;;549.0773469998967;None;None;None;[];549.0773469998967;None;['9'];[0.5179253998212516];549.0773469998967;None;;;S11879;2022_Nov_22_1829;VideoMask;2021.1.2;119.91687371610314;
2.0;f;012_o_f_h_a.jpg;happy;9.0;sad_113.1.wmv;sad;7.0;incongruent;120.0;160.0;177.44551734737394;h_s;;;;;0;42;42;42;;;;;;;552.0857525998726;None;553.768693999853;554.08543249988;555.2187335998751;555.2354303998873;557.2187400998082;None;7;0;0.6004397000651807;557.2187400998082;None;;;;;;;;3;;;;;;;558.7936977997888;None;None;None;[];558.7936977997888;None;"['7', '7']";"[0.32161820004694164, 1.0735037000849843]";558.7936977997888;None;;;S11879;2022_Nov_22_1829;VideoMask;2021.1.2;119.91687371610314;
3.0;m;033_o_m_s_a.jpg;sad;7.0;sad_64.5ns.avi;sad;7.0;congruent;130.0;160.0;130.55717223801247;s_s;;;;;0;43;43;43;;;;;;;561.7936859999318;None;563.1268378999084;563.4433829998598;564.5851800998207;564.6017358999234;571.1599249998108;None;7;0;0.5953265998978168;571.1599249998108;None;;;;;;;;1;;;;;;;572.7098134998232;None;None;None;[];572.7098134998232;None;"['7', '7', '7', '7', '7', '7']";"[0.36529180011712015, 0.5332843000069261, 0.6614101000595838, 0.797228500014171, 0.9573234000708908, 1.1095112001057714]";572.7098134998232;None;;;S11879;2022_Nov_22_1829;VideoMask;2021.1.2;119.91687371610314;
7.0;m;027_o_m_h_a.jpg;happy;9.0;sad_117.1.wmv;sad;7.0;incongruent;120.0;160.0;181.28665202824095;h_s;;;;;0;44;44;44;;;;;;;575.7098048999906;None;577.4263090000022;577.7430900000036;578.876323999837;578.893341699848;580.8762852998916;None;8;0;0.47095649992115796;580.8762852998916;None;;;;;;;;5;;;;;;;582.4262423999608;None;None;None;[];582.4262423999608;None;None;;582.4262423999608;None;;;S11879;2022_Nov_22_1829;VideoMask;2021.1.2;119.91687371610314;
3.0;m;033_o_m_s_a.jpg;sad;7.0;happy_126.3.wmv;happy;9.0;incongruent;130.0;150.0;198.85252030535366;s_h;;;;;0;45;45;45;;;;;;;585.4510064998176;None;587.3175939999055;587.6343160998076;588.7843377999961;588.8010195998941;590.7676826999523;None;9;0;0.8754512001760304;590.7676826999523;None;;;;;;;;6;;;;;;;592.3175745999906;None;None;None;[];592.3175745999906;None;['9'];[0.19771049986593425];592.3175745999906;None;;;S11879;2022_Nov_22_1829;VideoMask;2021.1.2;119.91687371610314;
3.0;m;033_o_m_h_a.jpg;happy;9.0;sad_136.1.wmv;sad;7.0;incongruent;120.0;160.0;176.97002883463455;h_s;;;;;0;46;46;46;;;;;;;595.3259778998327;None;597.0089674999472;597.3256676997989;598.4590256998781;598.4757191999815;600.4589236997999;None;7;0;0.632162399822846;600.4589236997999;None;;;;;;;;1;;;;;;;602.0089217999484;None;None;None;[];602.0089217999484;None;"['7', '7', '7', '7', '7', '7', '7', '7', '7']";"[0.4341965999919921, 0.6102611001115292, 0.7462212999816984, 0.8662831000983715, 0.9941911001224071, 1.1302024000324309, 1.242341100005433, 1.3941832000855356, 1.5542961000464857]";602.0089217999484;None;;;S11879;2022_Nov_22_1829;VideoMask;2021.1.2;119.91687371610314;
9.0;f;019_m_f_h_a.jpg;happy;9.0;happy_10.1ns.avi;happy;9.0;congruent;120.0;150.0;157.2463435658512;h_h;;;;;0;47;47;47;;;;;;;605.0089707998559;None;606.5671050997917;606.8836853997782;608.0503972999286;608.0677640999202;615.4584598999936;None;8;0;0.6646238998509943;615.4584598999936;None;;;;;;;;5;;;;;;;617.0083598999772;None;None;None;[];617.0083598999772;None;None;;617.0083598999772;None;;;S11879;2022_Nov_22_1829;VideoMask;2021.1.2;119.91687371610314;
2.0;f;012_o_f_h_a.jpg;happy;9.0;happy_2.2ns.avi;happy;9.0;congruent;120.0;150.0;206.34800317295262;h_h;;;;;0;48;48;48;;;;;;;620.024832099909;None;621.9999035999645;622.3165010998491;623.4582867999561;623.4748786999844;635.6496336997952;None;9;0;0.43373829987831414;635.6496336997952;None;;;;;;;;6;;;;;;;637.2076035998762;None;None;None;[];637.2076035998762;None;"['9', '9']";"[0.21946809999644756, 0.8835026999004185]";637.2076035998762;None;;;S11879;2022_Nov_22_1829;VideoMask;2021.1.2;119.91687371610314;
3.0;m;033_o_m_h_a.jpg;happy;9.0;happy_24.2ns.avi;happy;9.0;congruent;120.0;150.0;167.9423847659953;h_h;;;;;0;49;49;49;;;;;;;640.2161644999869;None;641.8324528997764;642.1491681998596;643.3073806997854;643.3240300999023;647.0074021997862;None;9;0;0.555926299886778;647.0074021997862;None;;;;;;;;6;;;;;;;648.5573622998782;None;None;None;[];648.5573622998782;None;['9'];[0.4378222001250833];648.5573622998782;None;;;S11879;2022_Nov_22_1829;VideoMask;2021.1.2;119.91687371610314;
1.0;f;021_o_f_s_a.jpg;sad;7.0;happy_61.2ns.avi;happy;9.0;incongruent;130.0;150.0;210.94664004826666;s_h;;;;;0;50;50;50;;;;;;;651.565688499948;None;653.548781799851;653.8654910998885;655.0078412999865;655.0320947999135;659.5237608999014;None;8;0;0.5592932000290602;659.5237608999014;None;;;;;;;;6;;;;;;;661.0736214998178;None;None;None;[];661.0736214998178;None;['9'];[0.33736330014653504];661.0736214998178;None;;;S11879;2022_Nov_22_1829;VideoMask;2021.1.2;119.91687371610314;
4.0;m;004_o_m_s_a.jpg;sad;7.0;sad_2.4ns.avi;sad;7.0;congruent;130.0;160.0;153.02079367163634;s_s;;;;;0;51;51;51;;;;;;;664.0736244998407;None;665.5817974999081;665.8983929997776;667.1067710998468;667.1234607999213;674.9899933999404;None;7;0;0.812916699796915;674.9899933999404;None;;;;;;;;3;;;;;;;676.5480931999628;None;None;None;[];676.5480931999628;None;"['7', '7', '7']";"[0.3269921001046896, 0.5031245001591742, 0.8710660999640822]";676.5480931999628;None;;;S11879;2022_Nov_22_1829;VideoMask;2021.1.2;119.91687371610314;
8.0;m;008_y_m_h_a.jpg;happy;9.0;happy_1.2ns.avi;happy;9.0;congruent;120.0;150.0;210.98946429383824;h_h;;;;;0;52;52;52;;;;;;;679.5480089997873;None;681.5895628998987;681.9062859998085;683.0395557999145;683.0568962998223;695.8309161998332;None;9;0;0.7721530999988317;695.8309161998332;None;;;;;;;;8;;;;;;;697.3807401999366;None;None;None;[];697.3807401999366;None;"['9', '9', '9', '9']";"[0.3183705999981612, 0.6464015999808908, 0.9983483999967575, 1.6383770999964327]";697.3807401999366;None;;;S11879;2022_Nov_22_1829;VideoMask;2021.1.2;119.91687371610314;
2.0;f;012_o_f_s_a.jpg;sad;7.0;happy_52.2ns.avi;happy;9.0;incongruent;130.0;150.0;172.57202848318138;s_h;;;;;0;53;53;53;;;;;;;700.3805968998931;None;702.0387736998964;702.3555445999373;703.4972389999311;703.5138967998791;707.0387357999571;None;9;0;0.8120880001224577;707.0387357999571;None;;;;;;;;7;;;;;;;708.5887044998817;None;None;None;[];708.5887044998817;None;"['9', '9']";"[0.23030349984765053, 0.9984984998591244]";708.5887044998817;None;;;S11879;2022_Nov_22_1829;VideoMask;2021.1.2;119.91687371610314;
9.0;f;019_m_f_s_a.jpg;sad;7.0;happy_61.1ns.avi;happy;9.0;incongruent;130.0;150.0;181.3003220572762;s_h;;;;;0;54;54;54;;;;;;;711.5887903999537;None;713.3717226998415;713.688398799859;714.8805928998627;714.9051894999575;722.2132795997895;None;8;0;0.40594940003938973;722.2132795997895;None;;;;;;;;5;;;;;;;723.7631068998016;None;None;None;[];723.7631068998016;None;None;;723.7631068998016;None;;;S11879;2022_Nov_22_1829;VideoMask;2021.1.2;119.91687371610314;
0.0;f;030_o_f_h_a.jpg;happy;9.0;sad_133.1.wmv;sad;7.0;incongruent;120.0;160.0;198.86251500867985;h_s;;;;;0;55;55;55;;;;;;;726.7965196999721;None;728.6712206997909;728.9879518998787;730.1130665999372;730.1296475999989;732.1212063999847;None;7;0;0.6018004999496043;732.1212063999847;None;;;;;;;;2;;;;;;;733.6711353999563;None;None;None;[];733.6711353999563;None;"['7', '7', '7']";"[0.299860900035128, 0.6997950000222772, 1.2441767998971045]";733.6711353999563;None;;;S11879;2022_Nov_22_1829;VideoMask;2021.1.2;119.91687371610314;
0.0;f;040_y_f_h_a.jpg;happy;9.0;sad_128.2.wmv;sad;7.0;incongruent;120.0;160.0;206.10005857915363;h_s;;;;;0;56;56;56;;;;;;;736.6710423999466;None;738.5958423998673;738.912602599943;740.0457971999422;740.0626625998411;742.0458664000034;None;8;0;0.6691727000288665;742.0458664000034;None;;;;;;;;4;;;;;;;743.5957400999032;None;None;None;[];743.5957400999032;None;['7'];[0.34319859999231994];743.5957400999032;None;;;S11879;2022_Nov_22_1829;VideoMask;2021.1.2;119.91687371610314;
1.0;f;021_o_f_s_a.jpg;sad;7.0;sad_9.5ns.avi;sad;7.0;congruent;130.0;160.0;206.16642757875042;s_s;;;;;0;57;57;57;;;;;;;746.6041689999402;None;748.5372493998148;748.8540596999228;749.9954284999985;750.0121235998813;755.7122495998628;None;8;0;0.39468330005183816;755.7122495998628;None;;;;;;;;4;;;;;;;757.2620922999922;None;None;None;[];757.2620922999922;None;['7'];[0.3008219001349062];757.2620922999922;None;;;S11879;2022_Nov_22_1829;VideoMask;2021.1.2;119.91687371610314;
1.0;f;021_o_f_h_a.jpg;happy;9.0;happy_12.1ns.avi;happy;9.0;congruent;120.0;150.0;132.59080005900228;h_h;;;;;0;58;58;58;;;;;;;760.2621657999698;None;761.6119016997982;761.928555399878;763.1202124999836;763.1375695997849;770.6783602999058;None;8;0;0.3729334999807179;770.6783602999058;None;;;;;;;;4;;;;;;;772.2282460997812;None;None;None;[];772.2282460997812;None;"['7', '7']";"[0.32670520013198256, 0.8467765001114458]";772.2282460997812;None;;;S11879;2022_Nov_22_1829;VideoMask;2021.1.2;119.91687371610314;
3.0;m;013_y_m_s_a.jpg;sad;7.0;happy_56.2ns.avi;happy;9.0;incongruent;130.0;150.0;163.39234110935848;s_h;;;;;0;59;59;59;;;;;;;775.2282416999806;None;776.8280453998595;777.1446767998859;778.3113164999522;778.3278476998676;783.3029839999508;None;8;0;0.4839357000309974;783.3029839999508;None;;;;;;;;5;;;;;;;784.852827699855;None;None;None;[];784.852827699855;None;None;;784.852827699855;None;;;S11879;2022_Nov_22_1829;VideoMask;2021.1.2;119.91687371610314;
;;;;;;;;;;;;;;;;;;;;;;;;;;;;;;;;;;;;;;;;;;;;;;;;;;;;;;;;;;;;;;;;;787.8777499999851;None;;;;;;
