primePerson;primeGender;prime;primeEmotion;corrAnsPrime;target;targetEmotion;corrAnsTar;Cond;ID_Primer;ID_Target;JitterTime;Condition;example.thisRepN;example.thisTrialN;example.thisN;example.thisIndex;study.thisRepN;study.thisTrialN;study.thisN;study.thisIndex;MR_trigger_time;MR_trigger_number;text_intro.started;text_intro.stopped;text_probe.started;text_probe.stopped;polygon_ISI.started;polygon_ISI.stopped;polygon.started;polygon.stopped;primerImage.started;primerImage.stopped;response.started;response.stopped;key_resp.keys;key_resp.corr;key_resp.rt;key_resp.started;key_resp.stopped;slider_Text.started;slider_Text.stopped;slider_ex.response;slider_ex.rt;slider_ex.history;slider_ex.started;slider_ex.stopped;Rating;slider_resp_response.keys;slider_resp_response.started;slider_resp_response.stopped;slider_resp_response.rt;text_start.started;text_start.stopped;text_slider.started;text_slider.stopped;slider_stud.response;slider_stud.rt;slider_stud.history;slider_stud.started;slider_stud.stopped;slider_resp_study.keys;slider_resp_study.rt;slider_resp_study.started;slider_resp_study.stopped;text_ende.started;text_ende.stopped;participant;date;expName;psychopyVersion;frameRate;
1111;m;1111_m_m_h_a.jpg;happy;9;example_30.4ns.avi;neutral;7;incongruent;120.0;170.0;189.5874364012288;;0;0;0;0;;;;;47.3636215000879;1;47.44122170004994;49.44121100008488;49.44121100008488;None;51.466159500181675;None;53.76619250001386;54.091048300033435;55.29096940020099;55.30769200017676;59.55749850021675;None;8;0;1.3027123999781907;59.55749850021675;None;61.11562570021488;None;None;None;[];61.11562570021488;None;5;None;61.11562570021488;None;;;;;;;;;;;;;;;;;S11844;2022_Nov_09_1846;VideoMask;2021.1.2;120.23551750134504;
1113;f;1113_y_f_s_a.jpg;sad;7;example_30.3ns.avi;neutral;7;incongruent;130.0;170.0;229.02432995836998;;0;1;1;1;;;;;;;;;;;64.13221810013056;None;66.25720370002091;66.57400050014257;67.69891410018317;67.71555980015546;69.71563320001587;None;8;0;1.1364655999932438;69.71563320001587;None;71.26548950001597;None;None;None;[];71.26548950001597;None;5;"['9', '7']";71.26548950001597;None;"[0.6907252999953926, 2.7226863999385387]";;;;;;;;;;;;;;;;S11844;2022_Nov_09_1846;VideoMask;2021.1.2;120.23551750134504;
9.0;f;019_m_f_h_a.jpg;happy;9.0;sad_115.1.wmv;sad;7.0;incongruent;120.0;160.0;128.09063432376465;h_s;;;;;0;0;0;0;;;;;;;75.298667000141;None;76.58178630005568;76.89856830006465;78.0318676000461;78.04838950000703;80.03182120015845;None;7;0;0.9244502000510693;80.03182120015845;None;;;;;;;;3;;;;;74.26536620012484;None;81.59020200022496;None;None;None;[];81.59020200022496;None;"['7', '7', '7']";"[0.6940738998819143, 1.0220949999056756, 1.3664834999945015]";81.59020200022496;None;;;S11844;2022_Nov_09_1846;VideoMask;2021.1.2;120.23551750134504;
3.0;m;033_o_m_s_a.jpg;sad;7.0;sad_94.2ns.avi;sad;7.0;congruent;130.0;160.0;182.29120173647655;s_s;;;;;0;1;1;1;;;;;;;84.59022980020382;None;86.32322560017928;86.63997160014696;87.77323150006123;87.78994620009325;90.46491650003009;None;8;0;0.9152398000005633;90.46491650003009;None;;;;;;;;3;;;;;;;92.01474800007418;None;None;None;[];92.01474800007418;None;"['7', '7']";"[0.3814662001095712, 0.7892738999798894]";92.01474800007418;None;;;S11844;2022_Nov_09_1846;VideoMask;2021.1.2;120.23551750134504;
8.0;m;008_y_m_h_a.jpg;happy;9.0;happy_26.1ns.avi;happy;9.0;congruent;120.0;150.0;155.9437854594882;h_h;;;;;0;2;2;2;;;;;;;95.01481740013696;None;96.5062061001081;96.82293840008788;97.95621360000223;97.97330400021747;99.94791980017908;None;9;0;1.2402612001169473;99.94791980017908;None;;;;;;;;7;;;;;;;101.49785120016895;None;None;None;[];101.49785120016895;None;"['9', '9']";"[1.0266767998691648, 2.2903869000729173]";101.49785120016895;None;;;S11844;2022_Nov_09_1846;VideoMask;2021.1.2;120.23551750134504;
0.0;f;040_y_f_h_a.jpg;happy;9.0;sad_138.1.wmv;sad;7.0;incongruent;120.0;160.0;133.99071306426532;h_s;;;;;0;3;3;3;;;;;;;104.49787030019797;None;105.83099240018055;106.1476686000824;107.27280180016533;107.28934040013701;109.28093560016714;None;None;0;;109.28093560016714;None;;;;;;;;3;;;;;;;110.83095550001599;None;None;None;[];110.83095550001599;None;"['7', '7']";"[0.6051628000568599, 0.9092188000213355]";110.83095550001599;None;;;S11844;2022_Nov_09_1846;VideoMask;2021.1.2;120.23551750134504;
8.0;f;028_y_f_s_a.jpg;sad;7.0;sad_64.2ns.avi;sad;7.0;congruent;130.0;160.0;229.88540597086478;s_s;;;;;0;4;4;4;;;;;;;113.83075750013813;None;116.04747780016623;116.36412490019575;117.53106230008416;117.54727360000834;128.49708870006725;None;7;0;1.0350800000596792;128.49708870006725;None;;;;;;;;2;;;;;;;130.0469167002011;None;None;None;[];130.0469167002011;None;"['7', '7', '7']";"[0.42127689998596907, 0.6212610001675785, 0.7890799001324922]";130.0469167002011;None;;;S11844;2022_Nov_09_1846;VideoMask;2021.1.2;120.23551750134504;
7.0;m;027_o_m_s_a.jpg;sad;7.0;sad_10.4ns.avi;sad;7.0;congruent;130.0;160.0;185.20129417468752;s_s;;;;;0;5;5;5;;;;;;;133.04686180013232;None;134.83019890007563;135.14679750008509;136.3640660000965;136.40496790013276;139.44667240022682;None;7;0;1.133747700136155;139.44667240022682;None;;;;;;;;3;;;;;;;140.99662980018184;None;None;None;[];140.99662980018184;None;"['7', '7']";"[0.6635805000551045, 1.0555575999896973]";140.99662980018184;None;;;S11844;2022_Nov_09_1846;VideoMask;2021.1.2;120.23551750134504;
2.0;f;012_o_f_s_a.jpg;sad;7.0;sad_7.5ns.avi;sad;7.0;congruent;130.0;160.0;220.27842655424388;s_s;;;;;0;6;6;6;;;;;;;143.99657330010086;None;146.0296493000351;146.3463327002246;147.538044200046;147.55456760013476;150.27161660022102;None;7;0;0.6926777998451144;150.27161660022102;None;;;;;;;;4;;;;;;;151.82958950009197;None;None;None;[];151.82958950009197;None;['7'];[0.4386118999682367];151.82958950009197;None;;;S11844;2022_Nov_09_1846;VideoMask;2021.1.2;120.23551750134504;
2.0;f;012_o_f_h_a.jpg;happy;9.0;happy_27.1ns.avi;happy;9.0;congruent;120.0;150.0;146.44967055810616;h_h;;;;;0;7;7;7;;;;;;;154.83782160002738;None;156.26262880000286;156.57945250021294;157.73779290006496;157.75434600003064;160.20431990013458;None;9;0;0.4960123000200838;160.20431990013458;None;;;;;;;;6;;;;;;;161.7542261001654;None;None;None;[];161.7542261001654;None;"['9', '9']";"[0.40197400003671646, 1.3380035001318902]";161.7542261001654;None;;;S11844;2022_Nov_09_1846;VideoMask;2021.1.2;120.23551750134504;
8.0;f;028_y_f_h_a.jpg;happy;9.0;sad_119.1.wmv;sad;7.0;incongruent;120.0;160.0;148.71526953572538;h_s;;;;;0;8;8;8;;;;;;;164.76264110021293;None;166.2123399002012;166.5291324001737;167.67063850001432;167.68740410008468;169.72904980019666;None;7;0;0.5312068001367152;169.72904980019666;None;;;;;;;;3;;;;;;;171.29565270012245;None;None;None;[];171.29565270012245;None;"['7', '7', '7']";"[0.4845119998790324, 0.9646040999796242, 1.8046031999401748]";171.29565270012245;None;;;S11844;2022_Nov_09_1846;VideoMask;2021.1.2;120.23551750134504;
6.0;m;016_y_m_s_a.jpg;sad;7.0;happy_60.4ns.avi;happy;9.0;incongruent;130.0;150.0;126.02367393611817;s_h;;;;;0;9;9;9;;;;;;;174.29558430006728;None;175.5872367999982;175.90384710021317;177.08715830021538;177.10380540019833;182.82863570004702;None;8;0;0.6315537001937628;182.82863570004702;None;;;;;;;;6;;;;;;;184.3786018001847;None;None;None;[];184.3786018001847;None;['9'];[1.161626499844715];184.3786018001847;None;;;S11844;2022_Nov_09_1846;VideoMask;2021.1.2;120.23551750134504;
9.0;f;019_m_f_s_a.jpg;sad;7.0;sad_8.4ns.avi;sad;7.0;congruent;130.0;160.0;171.6633093155257;s_s;;;;;0;10;10;10;;;;;;;187.37860600021668;None;189.07021910022013;189.38666690001264;190.5866930000484;190.6033074001316;198.65326440008357;None;7;0;0.5589981998782605;198.65326440008357;None;;;;;;;;3;;;;;;;200.2030797000043;None;None;None;[];200.2030797000043;None;"['7', '7']";"[0.4651335999369621, 1.241060599917546]";200.2030797000043;None;;;S11844;2022_Nov_09_1846;VideoMask;2021.1.2;120.23551750134504;
4.0;m;004_o_m_h_a.jpg;happy;9.0;happy_1.1ns.avi;happy;9.0;congruent;120.0;150.0;203.50057144619865;h_h;;;;;0;11;11;11;;;;;;;203.21142210019752;None;205.2027015001513;205.51960040000267;206.71128680021502;206.7279059002176;221.13639920018613;None;9;0;0.6359040001407266;221.13639920018613;None;;;;;;;;7;;;;;;;222.7773720000405;None;None;None;[];222.7773720000405;None;"['9', '9']";"[0.2988760999869555, 0.5146864000707865]";222.7773720000405;None;;;S11844;2022_Nov_09_1846;VideoMask;2021.1.2;120.23551750134504;
7.0;m;027_o_m_h_a.jpg;happy;9.0;happy_20.1ns.avi;happy;9.0;congruent;120.0;150.0;152.91127178874285;h_h;;;;;0;12;12;12;;;;;;;225.77730710012838;None;227.27724710013717;227.59388680011034;228.73557410016656;228.7521997001022;231.74370170012116;None;9;0;0.7087686001323164;231.74370170012116;None;;;;;;;;8;;;;;;;233.2854158000555;None;None;None;[];233.2854158000555;None;"['9', '9', '9', '9']";"[0.31098309997469187, 0.48707620007917285, 0.8627208000980318, 1.0947631001472473]";233.2854158000555;None;;;S11844;2022_Nov_09_1846;VideoMask;2021.1.2;120.23551750134504;
0.0;f;040_y_f_s_a.jpg;sad;7.0;sad_94.3ns.avi;sad;7.0;congruent;130.0;160.0;155.27414203894395;s_s;;;;;0;13;13;13;;;;;;;236.29374090000056;None;237.7934464002028;238.1100987000391;239.3100574000273;239.3266531000845;241.868595500011;None;8;0;0.7195816000457853;241.868595500011;None;;;;;;;;3;;;;;;;243.42671570018865;None;None;None;[];243.42671570018865;None;"['7', '7', '7']";"[0.36964459996670485, 0.8415290000848472, 1.1935455999337137]";243.42671570018865;None;;;S11844;2022_Nov_09_1846;VideoMask;2021.1.2;120.23551750134504;
0.0;f;030_o_f_s_a.jpg;sad;7.0;sad_68.1ns.avi;sad;7.0;congruent;130.0;160.0;158.9411396037211;s_s;;;;;0;14;14;14;;;;;;;246.43499220022932;None;247.99307210021652;248.30985600012355;249.49361400003545;249.51818740018643;256.8679622001946;None;7;0;1.3603370999917388;256.8679622001946;None;;;;;;;;3;;;;;;;258.4179227000568;None;None;None;[];258.4179227000568;None;"['7', '7']";"[0.47446210007183254, 0.78632070007734]";258.4179227000568;None;;;S11844;2022_Nov_09_1846;VideoMask;2021.1.2;120.23551750134504;
0.0;f;030_o_f_h_a.jpg;happy;9.0;sad_127.1.wmv;sad;7.0;incongruent;120.0;160.0;180.59976631384873;h_s;;;;;0;15;15;15;;;;;;;261.41784790018573;None;263.1343383002095;263.4510356001556;264.57610690011643;264.59269120008685;266.58432240015827;None;7;0;0.8438401999883354;266.58432240015827;None;;;;;;;;4;;;;;;;268.1342213000171;None;None;None;[];268.1342213000171;None;['7'];[0.5980139998719096];268.1342213000171;None;;;S11844;2022_Nov_09_1846;VideoMask;2021.1.2;120.23551750134504;
8.0;m;008_y_m_s_a.jpg;sad;7.0;happy_133.3.wmv;happy;9.0;incongruent;130.0;150.0;152.577966552593;s_h;;;;;0;16;16;16;;;;;;;271.13418500008993;None;272.61732040019706;272.9340786000248;274.0592354000546;274.0756819001399;276.06734200008214;None;9;0;0.600913800066337;276.06734200008214;None;;;;;;;;7;;;;;;;277.7922927001491;None;None;None;[];277.7922927001491;None;"['9', '9']";"[0.33191989990882576, 0.5718616000376642]";277.7922927001491;None;;;S11844;2022_Nov_09_1846;VideoMask;2021.1.2;120.23551750134504;
3.0;m;033_o_m_h_a.jpg;happy;9.0;sad_128.1.wmv;sad;7.0;incongruent;120.0;160.0;171.0492454518585;h_s;;;;;0;17;17;17;;;;;;;280.80084740021266;None;282.4504069001414;282.7670716000721;283.90028110006824;283.91691980022006;285.9003389000427;None;7;0;1.167927199974656;285.9003389000427;None;;;;;;;;4;;;;;;;287.450310600223;None;None;None;[];287.450310600223;None;"['7', '7']";"[0.978081899927929, 1.4580602999776602]";287.450310600223;None;;;S11844;2022_Nov_09_1846;VideoMask;2021.1.2;120.23551750134504;
1.0;f;021_o_f_h_a.jpg;happy;9.0;sad_116.1.wmv;sad;7.0;incongruent;120.0;160.0;184.06847610053055;h_s;;;;;0;18;18;18;;;;;;;290.4585717001464;None;292.21671680011787;292.53345040022396;293.67511620000005;293.6924582000356;295.6668741002213;None;7;0;1.169323300011456;295.6668741002213;None;;;;;;;;4;;;;;;;297.21671300008893;None;None;None;[];297.21671300008893;None;['7'];[0.6838332999031991];297.21671300008893;None;;;S11844;2022_Nov_09_1846;VideoMask;2021.1.2;120.23551750134504;
4.0;m;004_o_m_s_a.jpg;sad;7.0;happy_28.1ns.avi;happy;9.0;incongruent;130.0;150.0;157.40741103039684;s_h;;;;;0;19;19;19;;;;;;;300.21659600012936;None;301.7499327000696;302.0664150000084;303.2498812000267;303.26648380002007;307.59145780000836;None;9;0;0.42880699993111193;307.59145780000836;None;;;;;;;;9;;;;;;;309.14132290007547;None;None;None;[];309.14132290007547;None;"['9', '9', '9', '9']";"[0.27895810012705624, 0.4708353001624346, 0.6227506001014262, 1.2547429001424462]";309.14132290007547;None;;;S11844;2022_Nov_09_1846;VideoMask;2021.1.2;120.23551750134504;
8.0;f;028_y_f_s_a.jpg;sad;7.0;happy_122.3.wmv;happy;9.0;incongruent;130.0;150.0;171.8670540936116;s_h;;;;;0;20;20;20;;;;;;;312.1414121000562;None;313.80768350022845;314.12451190012507;315.26619030022994;315.2827806000132;317.25769960018806;None;None;0;;317.25769960018806;None;;;;;;;;7;;;;;;;318.80750230001286;None;None;None;[];318.80750230001286;None;"['9', '9', '7']";"[0.19672210002318025, 1.1167679000645876, 1.8766453000716865]";318.80750230001286;None;;;S11844;2022_Nov_09_1846;VideoMask;2021.1.2;120.23551750134504;
8.0;m;008_y_m_s_a.jpg;sad;7.0;sad_6.5ns.avi;sad;7.0;congruent;130.0;160.0;170.39333839271438;s_s;;;;;0;21;21;21;;;;;;;321.8076451001689;None;323.4408131001983;323.7573890001513;324.9408032000065;324.9575143000111;329.8906382001005;None;7;0;0.6256037999410182;329.8906382001005;None;;;;;;;;3;;;;;;;331.4406193001196;None;None;None;[];331.4406193001196;None;"['7', '7']";"[0.29974450008012354, 0.4995625999290496]";331.4406193001196;None;;;S11844;2022_Nov_09_1846;VideoMask;2021.1.2;120.23551750134504;
8.0;f;028_y_f_h_a.jpg;happy;9.0;happy_23.1ns.avi;happy;9.0;congruent;120.0;150.0;225.70986890587952;h_h;;;;;0;22;22;22;;;;;;;334.4405096000992;None;336.53203800017945;336.857310899999;337.9901795000769;338.00708620017394;342.55696290009655;None;9;0;0.6153251000214368;342.55696290009655;None;;;;;;;;8;;;;;;;344.0985590000637;None;None;None;[];344.0985590000637;None;"['9', '9', '9']";"[0.337715300032869, 0.5376770999282598, 2.4498614000622183]";344.0985590000637;None;;;S11844;2022_Nov_09_1846;VideoMask;2021.1.2;120.23551750134504;
8.0;m;008_y_m_h_a.jpg;happy;9.0;sad_111.1.wmv;sad;7.0;incongruent;120.0;160.0;152.63076835312847;h_s;;;;;0;23;23;23;;;;;;;347.1068864001427;None;348.5900193999987;348.9066681000404;350.0480665001087;350.0650876001455;352.03985030017793;None;7;0;0.7083620999474078;352.03985030017793;None;;;;;;;;3;;;;;;;353.5898942002095;None;None;None;[];353.5898942002095;None;"['7', '7', '7']";"[0.2542977000121027, 0.48633999982848763, 0.838364299852401]";353.5898942002095;None;;;S11844;2022_Nov_09_1846;VideoMask;2021.1.2;120.23551750134504;
0.0;f;040_y_f_s_a.jpg;sad;7.0;sad_67.2ns.avi;sad;7.0;congruent;130.0;160.0;220.9892697323079;s_s;;;;;0;24;24;24;;;;;;;356.5982588001061;None;358.6896203001961;359.00633040000685;360.17351940018125;360.19806110020727;369.3645017000381;None;7;0;0.5996503999922425;369.3645017000381;None;;;;;;;;2;;;;;;;370.9144328001421;None;None;None;[];370.9144328001421;None;"['7', '7', '7', '7']";"[0.2417766998987645, 0.5217232999857515, 1.0098084998317063, 1.4178423997946084]";370.9144328001421;None;;;S11844;2022_Nov_09_1846;VideoMask;2021.1.2;120.23551750134504;
8.0;m;008_y_m_s_a.jpg;sad;7.0;happy_29.1ns.avi;happy;9.0;incongruent;130.0;150.0;120.0316142834122;s_h;;;;;0;25;25;25;;;;;;;373.91448550019413;None;375.1224097001832;375.4392014001496;376.5639244001359;376.5808052001521;379.2642245001625;None;9;0;0.6440673000179231;379.2642245001625;None;;;;;;;;8;;;;;;;380.82234750012867;None;None;None;[];380.82234750012867;None;"['9', '9', '9']";"[0.32606770005077124, 0.5259597001131624, 1.2699798999819905]";380.82234750012867;None;;;S11844;2022_Nov_09_1846;VideoMask;2021.1.2;120.23551750134504;
6.0;m;016_y_m_s_a.jpg;sad;7.0;sad_8.3ns.avi;sad;7.0;congruent;130.0;160.0;152.85371098242734;s_s;;;;;0;26;26;26;;;;;;;383.822318200022;None;385.3556271002162;385.67217200016603;386.86365760001354;386.8809192001354;394.57262180000544;None;7;0;1.135614899918437;394.57262180000544;None;;;;;;;;4;;;;;;;396.38023940008134;None;None;None;[];396.38023940008134;None;['7'];[0.6321021001785994];396.38023940008134;None;;;S11844;2022_Nov_09_1846;VideoMask;2021.1.2;120.23551750134504;
6.0;m;016_y_m_h_a.jpg;happy;9.0;sad_114.1.wmv;sad;7.0;incongruent;120.0;160.0;136.20550699298644;h_s;;;;;0;27;27;27;;;;;;;399.3885221001692;None;400.7382966000587;401.0549876000732;402.1884750002064;402.20570370019414;404.1884695000481;None;7;0;1.3920056999195367;404.1884695000481;None;;;;;;;;4;;;;;;;405.7382523000706;None;None;None;[];405.7382523000706;None;['7'];[1.6258791000582278];405.7382523000706;None;;;S11844;2022_Nov_09_1846;VideoMask;2021.1.2;120.23551750134504;
7.0;m;027_o_m_s_a.jpg;sad;7.0;happy_117.3.wmv;happy;9.0;incongruent;130.0;150.0;215.61964028550614;s_h;;;;;0;28;28;28;;;;;;;408.73820200003684;None;410.7463965001516;411.063052700134;412.19634860008955;412.21311880019493;414.19643270014785;None;9;0;0.7038543000817299;414.19643270014785;None;;;;;;;;7;;;;;;;415.7463117002044;None;None;None;[];415.7463117002044;None;"['9', '9']";"[0.2820699999574572, 0.5058748000301421]";415.7463117002044;None;;;S11844;2022_Nov_09_1846;VideoMask;2021.1.2;120.23551750134504;
6.0;m;016_y_m_h_a.jpg;happy;9.0;happy_9.2ns.avi;happy;9.0;congruent;120.0;150.0;130.52042428082717;h_h;;;;;0;29;29;29;;;;;;;418.75462750019506;None;420.09613920003176;420.4127971001435;421.54611170012504;421.56298630009405;427.47106580017135;None;9;0;0.7254973999224603;427.47106580017135;None;;;;;;;;7;;;;;;;429.0208537001163;None;None;None;[];429.0208537001163;None;"['9', '9']";"[0.24728229991160333, 0.46326450002379715]";429.0208537001163;None;;;S11844;2022_Nov_09_1846;VideoMask;2021.1.2;120.23551750134504;
0.0;f;040_y_f_s_a.jpg;sad;7.0;happy_127.3.wmv;happy;9.0;incongruent;130.0;150.0;131.7195455720239;s_h;;;;;0;30;30;30;;;;;;;432.0292149002198;None;433.3374229001347;433.65406550001353;434.7790800000075;434.7956495000981;436.8706556002144;None;9;0;0.6455475999973714;436.8706556002144;None;;;;;;;;6;;;;;;;438.42060510022566;None;None;None;[];438.42060510022566;None;['9'];[0.4957265998236835];438.42060510022566;None;;;S11844;2022_Nov_09_1846;VideoMask;2021.1.2;120.23551750134504;
0.0;f;030_o_f_s_a.jpg;sad;7.0;happy_125.3.wmv;happy;9.0;incongruent;130.0;150.0;220.51454909128134;s_h;;;;;0;31;31;31;;;;;;;441.42057580011897;None;443.4870037001092;443.80375320021994;444.94506170018576;444.9620084001217;446.9371091001667;None;9;0;0.49912950000725687;446.9371091001667;None;;;;;;;;6;;;;;;;448.4869524000678;None;None;None;[];448.4869524000678;None;['9'];[0.7092984998598695];448.4869524000678;None;;;S11844;2022_Nov_09_1846;VideoMask;2021.1.2;120.23551750134504;
0.0;f;030_o_f_s_a.jpg;sad;7.0;sad_64.3ns.avi;sad;7.0;congruent;130.0;160.0;165.78667874766072;s_s;;;;;0;32;32;32;;;;;;;451.48696290003136;None;453.1034153001383;453.4200512000825;454.6284124001395;454.64525350020267;459.56152610015124;None;7;0;0.44275090005248785;459.56152610015124;None;;;;;;;;4;;;;;;;461.1115546000656;None;None;None;[];461.1115546000656;None;"['7', '7']";"[0.2846574999857694, 0.6927151000127196]";461.1115546000656;None;;;S11844;2022_Nov_09_1846;VideoMask;2021.1.2;120.23551750134504;
3.0;m;013_y_m_s_a.jpg;sad;7.0;sad_7.7ns.avi;sad;7.0;congruent;130.0;160.0;196.24182255763262;s_s;;;;;0;33;33;33;;;;;;;464.1115507001523;None;465.9862576001324;466.30289900000207;467.48618100001477;467.5113063000608;473.43629990005866;None;None;0;;473.43629990005866;None;;;;;;;;4;;;;;;;474.9859840001445;None;None;None;[];474.9859840001445;None;['7'];[1.4029907998628914];474.9859840001445;None;;;S11844;2022_Nov_09_1846;VideoMask;2021.1.2;120.23551750134504;
3.0;m;013_y_m_h_a.jpg;happy;9.0;happy_9.1ns.avi;happy;9.0;congruent;120.0;150.0;165.1890303600433;h_h;;;;;0;34;34;34;;;;;;;477.986134900013;None;479.577476200182;479.89441060018726;481.08577750017866;481.1023917000275;484.252491600113;None;9;0;0.6239807999227196;484.252491600113;None;;;;;;;;7;;;;;;;485.79411740018986;None;None;None;[];485.79411740018986;None;"['9', '9']";"[0.2984853000380099, 0.5060406001284719]";485.79411740018986;None;;;S11844;2022_Nov_09_1846;VideoMask;2021.1.2;120.23551750134504;
4.0;m;004_o_m_h_a.jpg;happy;9.0;sad_95.1ns.avi;sad;7.0;incongruent;120.0;160.0;152.68270002069931;h_s;;;;;0;35;35;35;;;;;;;488.802458900027;None;490.3438843002077;490.6605371001642;491.91046640020795;491.927020000061;500.58536170003936;None;8;0;1.0187937999144197;500.58536170003936;None;;;;;;;;3;;;;;;;502.14348130021244;None;None;None;[];502.14348130021244;None;"['7', '7', '7']";"[0.8848397999536246, 1.188758699921891, 2.468955999938771]";502.14348130021244;None;;;S11844;2022_Nov_09_1846;VideoMask;2021.1.2;120.23551750134504;
3.0;m;013_y_m_h_a.jpg;happy;9.0;sad_113.2.wmv;sad;7.0;incongruent;120.0;160.0;217.4973891947951;h_s;;;;;0;36;36;36;;;;;;;505.14349680021405;None;507.1932720001787;507.509956400143;508.63502170005813;508.6516292002052;510.6433686001692;None;7;0;1.3128363001160324;510.6433686001692;None;;;;;;;;4;;;;;;;512.1932270000689;None;None;None;[];512.1932270000689;None;['7'];[0.47492230008356273];512.1932270000689;None;;;S11844;2022_Nov_09_1846;VideoMask;2021.1.2;120.23551750134504;
4.0;m;004_o_m_h_a.jpg;happy;9.0;happy_25.1ns.avi;happy;9.0;congruent;120.0;150.0;216.63044503818386;h_h;;;;;0;37;37;37;;;;;;;515.2016383002046;None;517.234811700182;517.5598879000172;518.7014260001015;518.718072200194;522.3766592000611;None;9;0;0.3795559999998659;522.3766592000611;None;;;;;;;;7;;;;;;;523.9762315000407;None;None;None;[];523.9762315000407;None;"['9', '9']";"[0.7481348000001162, 1.5401749000884593]";523.9762315000407;None;;;S11844;2022_Nov_09_1846;VideoMask;2021.1.2;120.23551750134504;
4.0;m;004_o_m_s_a.jpg;sad;7.0;happy_131.2.wmv;happy;9.0;incongruent;130.0;150.0;181.38407540847405;s_h;;;;;0;38;38;38;;;;;;;526.9763267000671;None;528.7009565001354;529.0176709000953;530.1508486000821;530.1677072001621;532.1593754000496;None;9;0;0.9972797001246363;532.1593754000496;None;;;;;;;;7;;;;;;;533.7174815000035;None;None;None;[];533.7174815000035;None;"['9', '9', '9']";"[0.318809499964118, 0.7348887999542058, 1.2949206000193954]";533.7174815000035;None;;;S11844;2022_Nov_09_1846;VideoMask;2021.1.2;120.23551750134504;
0.0;f;040_y_f_h_a.jpg;happy;9.0;happy_24.3ns.avi;happy;9.0;congruent;120.0;150.0;213.25460698950434;h_h;;;;;0;39;39;39;;;;;;;536.7174575000536;None;538.7007901000325;539.0174140001182;540.2840946000069;540.3007027001586;542.0758076000493;None;9;0;0.7845738001633435;542.0758076000493;None;;;;;;;;7;;;;;;;543.633924000198;None;None;None;[];543.633924000198;None;"['9', '9']";"[0.2503630998544395, 0.49024249985814095]";543.633924000198;None;;;S11844;2022_Nov_09_1846;VideoMask;2021.1.2;120.23551750134504;
2.0;f;012_o_f_s_a.jpg;sad;7.0;happy_139.1.wmv;happy;9.0;incongruent;130.0;150.0;162.31500468041804;s_h;;;;;0;40;40;40;;;;;;;546.650865000207;None;548.2169875002;548.5337792001665;549.667076600017;549.6837527002208;551.6670303000137;None;9;0;0.5374747000169009;551.6670303000137;None;;;;;;;;6;;;;;;;553.2170021000784;None;None;None;[];553.2170021000784;None;['9'];[0.3471758998930454];553.2170021000784;None;;;S11844;2022_Nov_09_1846;VideoMask;2021.1.2;120.23551750134504;
0.0;f;030_o_f_h_a.jpg;happy;9.0;happy_24.1ns.avi;happy;9.0;congruent;120.0;150.0;168.36256624020774;h_h;;;;;0;41;41;41;;;;;;;556.216910400195;None;557.8418467000592;558.1584230000153;559.324983500177;559.3417965001427;562.6167925000191;None;9;0;0.35577659984119236;562.6167925000191;None;;;;;;;;7;;;;;;;564.3166548002046;None;None;None;[];564.3166548002046;None;"['9', '9']";"[0.40763520007021725, 0.9518540999852121]";564.3166548002046;None;;;S11844;2022_Nov_09_1846;VideoMask;2021.1.2;120.23551750134504;
2.0;f;012_o_f_h_a.jpg;happy;9.0;sad_113.1.wmv;sad;7.0;incongruent;120.0;160.0;177.44551734737394;h_s;;;;;0;42;42;42;;;;;;;567.3248943001963;None;569.0330552000087;569.3497234000824;570.4828932001255;570.4997891001403;572.4830729002133;None;7;0;0.985140300123021;572.4830729002133;None;;;;;;;;4;;;;;;;574.0329581000842;None;None;None;[];574.0329581000842;None;['7'];[0.9874175998847932];574.0329581000842;None;;;S11844;2022_Nov_09_1846;VideoMask;2021.1.2;120.23551750134504;
3.0;m;033_o_m_s_a.jpg;sad;7.0;sad_64.5ns.avi;sad;7.0;congruent;130.0;160.0;130.55717223801247;s_s;;;;;0;43;43;43;;;;;;;577.0414015999995;None;578.3911273002159;578.7077804000583;579.8327793001663;579.8495328000281;586.4410371000413;None;7;0;0.8673644000664353;586.4410371000413;None;;;;;;;;2;;;;;;;588.074162900215;None;None;None;[];588.074162900215;None;"['7', '7', '7']";"[0.306125900009647, 0.5461138000246137, 1.954436199972406]";588.074162900215;None;;;S11844;2022_Nov_09_1846;VideoMask;2021.1.2;120.23551750134504;
7.0;m;027_o_m_h_a.jpg;happy;9.0;sad_117.1.wmv;sad;7.0;incongruent;120.0;160.0;181.28665202824095;h_s;;;;;0;44;44;44;;;;;;;591.0741325002164;None;592.8073702000547;593.124066500226;594.2573864001315;594.2739609000273;596.2573839002289;None;8;0;1.0909734999295324;596.2573839002289;None;;;;;;;;5;;;;;;;597.8905487000011;None;None;None;[];597.8905487000011;None;None;;597.8905487000011;None;;;S11844;2022_Nov_09_1846;VideoMask;2021.1.2;120.23551750134504;
3.0;m;033_o_m_s_a.jpg;sad;7.0;happy_126.3.wmv;happy;9.0;incongruent;130.0;150.0;198.85252030535366;s_h;;;;;0;45;45;45;;;;;;;600.9153994000517;None;602.7986238000449;603.115318100201;604.2653796002269;604.2818517000414;606.2486750001553;None;9;0;0.6116351999808103;606.2486750001553;None;;;;;;;;7;;;;;;;607.7985680000857;None;None;None;[];607.7985680000857;None;"['9', '9']";"[0.9817929000128061, 1.4297846001572907]";607.7985680000857;None;;;S11844;2022_Nov_09_1846;VideoMask;2021.1.2;120.23551750134504;
3.0;m;033_o_m_h_a.jpg;happy;9.0;sad_136.1.wmv;sad;7.0;incongruent;120.0;160.0;176.97002883463455;h_s;;;;;0;46;46;46;;;;;;;610.7985647001769;None;612.4816675002221;612.7983627000358;613.9317765000742;613.9484290000983;615.9316771000158;None;None;0;;615.9316771000158;None;;;;;;;;5;;;;;;;617.4816778001841;None;None;None;[];617.4816778001841;None;None;;617.4816778001841;None;;;S11844;2022_Nov_09_1846;VideoMask;2021.1.2;120.23551750134504;
9.0;f;019_m_f_h_a.jpg;happy;9.0;happy_10.1ns.avi;happy;9.0;congruent;120.0;150.0;157.2463435658512;h_h;;;;;0;47;47;47;;;;;;;620.4979858000297;None;622.064703400014;622.3813466001302;623.5314521000255;623.5481098000892;630.9728450002149;None;9;0;0.7436521998606622;630.9728450002149;None;;;;;;;;7;;;;;;;632.5311235000845;None;None;None;[];632.5311235000845;None;"['9', '9']";"[0.26524579990655184, 1.0011982000432909]";632.5311235000845;None;;;S11844;2022_Nov_09_1846;VideoMask;2021.1.2;120.23551750134504;
2.0;f;012_o_f_h_a.jpg;happy;9.0;happy_2.2ns.avi;happy;9.0;congruent;120.0;150.0;206.34800317295262;h_h;;;;;0;48;48;48;;;;;;;635.5393525001127;None;637.5310039001051;637.8475894001313;638.9975870000198;639.0142561001703;651.180659300182;None;9;0;1.4157215999439359;651.180659300182;None;;;;;;;;6;;;;;;;652.730501400074;None;None;None;[];652.730501400074;None;['9'];[1.121939699864015];652.730501400074;None;;;S11844;2022_Nov_09_1846;VideoMask;2021.1.2;120.23551750134504;
3.0;m;033_o_m_h_a.jpg;happy;9.0;happy_24.2ns.avi;happy;9.0;congruent;120.0;150.0;167.9423847659953;h_h;;;;;0;49;49;49;;;;;;;655.7304345001467;None;657.3719220000785;657.6886449002195;658.905360000208;658.9219996000174;662.546820100164;None;9;0;0.6177861001342535;662.546820100164;None;;;;;;;;6;;;;;;;664.263573900098;None;None;None;[];664.263573900098;None;['9'];[0.57302560005337];664.263573900098;None;;;S11844;2022_Nov_09_1846;VideoMask;2021.1.2;120.23551750134504;
1.0;f;021_o_f_s_a.jpg;sad;7.0;happy_61.2ns.avi;happy;9.0;incongruent;130.0;150.0;210.94664004826666;s_h;;;;;0;50;50;50;;;;;;;667.2635451001115;None;669.2549115000293;669.5715815001167;670.804812300019;670.821581199998;675.2298905001953;None;9;0;0.6145442000124604;675.2298905001953;None;;;;;;;;5;;;;;;;676.7797139000613;None;None;None;[];676.7797139000613;None;None;;676.7797139000613;None;;;S11844;2022_Nov_09_1846;VideoMask;2021.1.2;120.23551750134504;
4.0;m;004_o_m_s_a.jpg;sad;7.0;sad_2.4ns.avi;sad;7.0;congruent;130.0;160.0;153.02079367163634;s_s;;;;;0;51;51;51;;;;;;;679.8044757000171;None;681.3211525001097;681.6378507001791;682.7795804000925;682.7962392000481;690.7379685000051;None;7;0;0.4023979001212865;690.7379685000051;None;;;;;;;;3;;;;;;;692.745931400219;None;None;None;[];692.745931400219;None;"['7', '7', '7']";"[1.0024930001236498, 1.442326399963349, 1.6982917001005262]";692.745931400219;None;;;S11844;2022_Nov_09_1846;VideoMask;2021.1.2;120.23551750134504;
8.0;m;008_y_m_h_a.jpg;happy;9.0;happy_1.2ns.avi;happy;9.0;congruent;120.0;150.0;210.98946429383824;h_h;;;;;0;52;52;52;;;;;;;695.754145400133;None;697.7957257002126;698.1124053001404;699.2540766000748;699.2706621000543;712.0369077001233;None;9;0;0.7354823998175561;712.0369077001233;None;;;;;;;;6;;;;;;;713.586924200179;None;None;None;[];713.586924200179;None;['9'];[0.40949400002136827];713.586924200179;None;;;S11844;2022_Nov_09_1846;VideoMask;2021.1.2;120.23551750134504;
2.0;f;012_o_f_s_a.jpg;sad;7.0;happy_52.2ns.avi;happy;9.0;incongruent;130.0;150.0;172.57202848318138;s_h;;;;;0;53;53;53;;;;;;;716.5951678000856;None;718.3201411000919;718.6366053000093;719.8282458002213;719.8449072001968;723.3202472000849;None;9;0;0.948153399862349;723.3202472000849;None;;;;;;;;7;;;;;;;724.8698691001628;None;None;None;[];724.8698691001628;None;"['9', '9', '9', '9']";"[0.3185151999350637, 0.6704422000329942, 0.9823239999823272, 1.2224065999034792]";724.8698691001628;None;;;S11844;2022_Nov_09_1846;VideoMask;2021.1.2;120.23551750134504;
9.0;f;019_m_f_s_a.jpg;sad;7.0;happy_61.1ns.avi;happy;9.0;incongruent;130.0;150.0;181.3003220572762;s_h;;;;;0;54;54;54;;;;;;;727.8697897000238;None;729.6446553000715;729.9613062001299;731.1280654000584;731.1446821000427;738.4862106000073;None;8;0;0.5182219999842346;738.4862106000073;None;;;;;;;;5;;;;;;;740.0360257001594;None;None;None;[];740.0360257001594;None;None;;740.0360257001594;None;;;S11844;2022_Nov_09_1846;VideoMask;2021.1.2;120.23551750134504;
0.0;f;030_o_f_h_a.jpg;happy;9.0;sad_133.1.wmv;sad;7.0;incongruent;120.0;160.0;198.86251500867985;h_s;;;;;0;55;55;55;;;;;;;743.0610070000403;None;744.9357486001682;745.2525601000525;746.3857156001031;746.4025305001996;748.3941821001936;None;7;0;0.4661892999429256;748.3941821001936;None;;;;;;;;4;;;;;;;749.9441036002245;None;None;None;[];749.9441036002245;None;['7'];[0.2443231998477131];749.9441036002245;None;;;S11844;2022_Nov_09_1846;VideoMask;2021.1.2;120.23551750134504;
0.0;f;040_y_f_h_a.jpg;happy;9.0;sad_128.2.wmv;sad;7.0;incongruent;120.0;160.0;206.10005857915363;h_s;;;;;0;56;56;56;;;;;;;752.9441228001378;None;754.8773490001913;755.1938785000239;756.3439408000559;756.360560500063;758.3271922999993;None;7;0;0.6612002998590469;758.3271922999993;None;;;;;;;;3;;;;;;;759.868781800149;None;None;None;[];759.868781800149;None;"['7', '7']";"[0.22358949994668365, 0.47159920004196465]";759.868781800149;None;;;S11844;2022_Nov_09_1846;VideoMask;2021.1.2;120.23551750134504;
1.0;f;021_o_f_s_a.jpg;sad;7.0;sad_9.5ns.avi;sad;7.0;congruent;130.0;160.0;206.16642757875042;s_s;;;;;0;57;57;57;;;;;;;762.8688046000898;None;764.8018539000768;765.1185785999987;766.2601384001318;766.2769104000181;771.9768440001644;None;7;0;0.7795291000511497;771.9768440001644;None;;;;;;;;4;;;;;;;773.5267154001631;None;None;None;[];773.5267154001631;None;['7'];[0.34205039986409247];773.5267154001631;None;;;S11844;2022_Nov_09_1846;VideoMask;2021.1.2;120.23551750134504;
1.0;f;021_o_f_h_a.jpg;happy;9.0;happy_12.1ns.avi;happy;9.0;congruent;120.0;150.0;132.59080005900228;h_h;;;;;0;58;58;58;;;;;;;776.5268178000115;None;777.8847112001386;778.2014906001277;779.3598943001125;779.376848500222;786.9514241002034;None;8;0;0.34930370002985;786.9514241002034;None;;;;;;;;7;;;;;;;788.6095202001743;None;None;None;[];788.6095202001743;None;"['9', '9']";"[0.3549018001649529, 1.2669206000864506]";788.6095202001743;None;;;S11844;2022_Nov_09_1846;VideoMask;2021.1.2;120.23551750134504;
3.0;m;013_y_m_s_a.jpg;sad;7.0;happy_56.2ns.avi;happy;9.0;incongruent;130.0;150.0;163.39234110935848;s_h;;;;;0;59;59;59;;;;;;;791.60944450018;None;793.2010180000216;793.5176521001849;794.7425140000414;794.7677536001429;799.6843821001239;None;9;0;1.0960041999351233;799.6843821001239;None;;;;;;;;6;;;;;;;801.2258143001236;None;None;None;[];801.2258143001236;None;['9'];[0.46660879999399185];801.2258143001236;None;;;S11844;2022_Nov_09_1846;VideoMask;2021.1.2;120.23551750134504;
;;;;;;;;;;;;;;;;;;;;;;;;;;;;;;;;;;;;;;;;;;;;;;;;;;;;;;;;;;;;;;;;;804.2257908000611;None;;;;;;
