primePerson;primeGender;prime;primeEmotion;corrAnsPrime;target;targetEmotion;corrAnsTar;Cond;ID_Primer;ID_Target;JitterTime;example.thisRepN;example.thisTrialN;example.thisN;example.thisIndex;study.thisRepN;study.thisTrialN;study.thisN;study.thisIndex;MR_trigger_time;MR_trigger_number;text_intro.started;text_intro.stopped;text_probe.started;text_probe.stopped;polygon_ISI.started;polygon_ISI.stopped;polygon.started;polygon.stopped;primerImage.started;primerImage.stopped;response.started;response.stopped;key_resp.keys;key_resp.corr;key_resp.started;key_resp.stopped;slider_Text.started;slider_Text.stopped;slider_ex.response;slider_ex.rt;slider_ex.history;slider_ex.started;slider_ex.stopped;Rating;slider_resp_response.keys;slider_resp_response.started;slider_resp_response.stopped;text_start.started;text_start.stopped;text_slider.started;text_slider.stopped;slider_stud.response;slider_stud.rt;slider_stud.history;slider_stud.started;slider_stud.stopped;slider_resp_study.keys;slider_resp_study.started;slider_resp_study.stopped;key_resp.rt;slider_resp_study.rt;text_ende.started;text_ende.stopped;participant;date;expName;psychopyVersion;frameRate;
1111;m;1111_m_m_h_a.jpg;happy;9;example_30.4ns.avi;neutral;7;incongruent;120.0;170.0;189.5874364012288;0;0;0;0;;;;;92.30959350001649;1;92.40380020000157;94.40375870000571;94.40375870000571;None;96.43709369999124;None;98.72922870001639;99.05368529999396;100.19513030000962;100.21183280000696;104.52851910001482;None;None;0;104.52851910001482;None;106.07820660001016;None;None;None;[];106.07820660001016;None;5;None;106.07820660001016;None;;;;;;;;;;;;;;;;;S10736a;2021_Jul_08_1745;VideoMask;2021.1.2;120.05450475487541;
1113;f;1113_y_f_s_a.jpg;sad;7;example_30.3ns.avi;neutral;7;incongruent;130.0;170.0;229.02432995836998;0;1;1;1;;;;;;;;;;;109.11164489999646;None;111.23647699999856;111.55322450000676;112.72824050000054;112.74493449999136;114.68652809999185;None;None;0;114.68652809999185;None;116.23629040000378;None;None;None;[];116.23629040000378;None;5;None;116.23629040000378;None;;;;;;;;;;;;;;;;;S10736a;2021_Jul_08_1745;VideoMask;2021.1.2;120.05450475487541;
3.0;m;033_o_m_s_a.jpg;sad;7.0;sad_94.2ns.avi;sad;7.0;congruent;130.0;160.0;228.63582583242618;;;;;0;0;0;0;;;;;;;120.26965540001402;None;122.3860735000053;122.70291680001537;123.84435460000532;123.86106170000858;126.52797550000832;None;None;0;126.52797550000832;None;;;;;;;;5;;;;119.2614000000176;None;128.0776174000057;None;None;None;[];128.0776174000057;None;None;128.0776174000057;None;;;;;S10736a;2021_Jul_08_1745;VideoMask;2021.1.2;120.05450475487541;
0.0;f;030_o_f_s_a.jpg;sad;7.0;sad_68.1ns.avi;sad;7.0;congruent;130.0;160.0;163.14738846961149;;;;;0;1;1;1;;;;;;;131.11105010000756;None;132.71935040000244;133.03588720000698;134.26929779999773;134.28592379999463;141.59404460000223;None;None;0;141.59404460000223;None;;;;;;;;5;;;;;;143.33580240001902;None;None;None;[];143.33580240001902;None;None;143.33580240001902;None;;;;;S10736a;2021_Jul_08_1745;VideoMask;2021.1.2;120.05450475487541;
8.0;m;008_y_m_h_a.jpg;happy;9.0;happy_26.1ns.avi;happy;9.0;congruent;140.0;150.0;184.58211837191982;;;;;0;2;2;2;;;;;;;146.3605773000163;None;148.10223859999678;148.41877789999126;149.5687797999999;149.5855347000179;151.54397739999695;None;None;0;151.54397739999695;None;;;;;;;;5;;;;;;153.10216130001936;None;None;None;[];153.10216130001936;None;None;153.10216130001936;None;;;;;S10736a;2021_Jul_08_1745;VideoMask;2021.1.2;120.05450475487541;
0.0;f;030_o_f_s_a.jpg;sad;7.0;happy_125.3.wmv;happy;9.0;incongruent;130.0;150.0;189.50417957278896;;;;;0;3;3;3;;;;;;;156.12708390000626;None;157.9351394000114;158.25192169999355;159.38593140000012;159.41025370001444;161.3852549000003;None;None;0;161.3852549000003;None;;;;;;;;5;;;;;;163.57663280001725;None;None;None;[];163.57663280001725;None;None;163.57663280001725;None;;;;;S10736a;2021_Jul_08_1745;VideoMask;2021.1.2;120.05450475487541;
1.0;f;021_o_f_s_a.jpg;sad;7.0;sad_9.5ns.avi;sad;7.0;congruent;130.0;160.0;156.55128602613038;;;;;0;4;4;4;;;;;;;166.6017545000068;None;168.12666460001492;168.44327489999705;169.64313199999742;169.65992460001144;175.31818560001557;None;None;0;175.31818560001557;None;;;;;;;;5;;;;;;177.28457190000336;None;None;None;[];177.28457190000336;None;None;177.28457190000336;None;;;;;S10736a;2021_Jul_08_1745;VideoMask;2021.1.2;120.05450475487541;
4.0;m;004_o_m_s_a.jpg;sad;7.0;happy_28.1ns.avi;happy;9.0;incongruent;130.0;150.0;219.83540383939274;;;;;0;5;5;5;;;;;;;180.3181273000082;None;182.37664050000603;182.69299139999202;183.90102389999083;183.91791250000824;188.21784200001275;None;None;0;188.21784200001275;None;;;;;;;;5;;;;;;189.76759279999533;None;None;None;[];189.76759279999533;None;None;189.76759279999533;None;;;;;S10736a;2021_Jul_08_1745;VideoMask;2021.1.2;120.05450475487541;
2.0;f;012_o_f_s_a.jpg;sad;7.0;sad_7.5ns.avi;sad;7.0;congruent;130.0;160.0;147.95125229894379;;;;;0;6;6;6;;;;;;;192.80104839999694;None;194.24250009999378;194.55920010001864;195.76759530001436;195.78427329999977;198.4842819000187;None;None;0;198.4842819000187;None;;;;;;;;5;;;;;;200.0423900000169;None;None;None;[];200.0423900000169;None;None;200.0423900000169;None;;;;;S10736a;2021_Jul_08_1745;VideoMask;2021.1.2;120.05450475487541;
2.0;f;012_o_f_s_a.jpg;sad;7.0;happy_52.2ns.avi;happy;9.0;incongruent;130.0;150.0;144.3898903070799;;;;;0;7;7;7;;;;;;;203.06738729999051;None;204.48426830000244;204.8006027000083;206.00073850000626;206.01731970001129;209.4841568999982;None;None;0;209.4841568999982;None;;;;;;;;5;;;;;;211.0338613000058;None;None;None;[];211.0338613000058;None;None;211.0338613000058;None;;;;;S10736a;2021_Jul_08_1745;VideoMask;2021.1.2;120.05450475487541;
0.0;f;040_y_f_s_a.jpg;sad;7.0;sad_67.2ns.avi;sad;7.0;congruent;130.0;160.0;192.80086779892653;;;;;0;8;8;8;;;;;;;214.05876929999795;None;215.9253863999911;216.24195920000784;217.4501009999949;217.4668742000067;226.60016400000313;None;None;0;226.60016400000313;None;;;;;;;;5;;;;;;228.14983700000448;None;None;None;[];228.14983700000448;None;None;228.14983700000448;None;;;;;S10736a;2021_Jul_08_1745;VideoMask;2021.1.2;120.05450475487541;
3.0;m;013_y_m_s_a.jpg;sad;7.0;happy_56.2ns.avi;happy;9.0;incongruent;130.0;150.0;134.62621969351147;;;;;0;9;9;9;;;;;;;231.18329509999603;None;232.52478169999085;232.84147559999838;234.0082362999965;234.0248583999928;238.999727300019;None;None;0;238.999727300019;None;;;;;;;;5;;;;;;240.5497791999951;None;None;None;[];240.5497791999951;None;None;240.5497791999951;None;;;;;S10736a;2021_Jul_08_1745;VideoMask;2021.1.2;120.05450475487541;
0.0;f;030_o_f_h_a.jpg;happy;9.0;sad_133.1.wmv;sad;7.0;incongruent;120.0;160.0;238.4103736452693;;;;;0;10;10;10;;;;;;;243.5746921999962;None;245.77429790000315;246.09114820000832;247.22460790001787;247.24117880000267;249.22443709999789;None;None;0;249.22443709999789;None;;;;;;;;5;;;;;;250.77422670001397;None;None;None;[];250.77422670001397;None;None;250.77422670001397;None;;;;;S10736a;2021_Jul_08_1745;VideoMask;2021.1.2;120.05450475487541;
2.0;f;012_o_f_h_a.jpg;happy;9.0;happy_2.2ns.avi;happy;9.0;congruent;140.0;150.0;120.08648649110712;;;;;0;11;11;11;;;;;;;253.80749810000998;None;255.08249240001896;255.39930389999063;256.5574111000169;256.57424610000453;268.7323839000019;None;None;0;268.7323839000019;None;;;;;;;;5;;;;;;270.29045279999264;None;None;None;[];270.29045279999264;None;None;270.29045279999264;None;;;;;S10736a;2021_Jul_08_1745;VideoMask;2021.1.2;120.05450475487541;
9.0;f;019_m_f_s_a.jpg;sad;7.0;sad_8.4ns.avi;sad;7.0;congruent;130.0;160.0;169.3395974323834;;;;;0;12;12;12;;;;;;;273.30716080000275;None;274.9651024999912;275.2820053000178;276.48296270001447;276.50686749999295;284.5485392000119;None;7;0;284.5485392000119;None;;;;;;;;5;;;;;;286.09842950000893;None;None;None;[];286.09842950000893;None;None;286.09842950000893;None;0.453699300007429;;;;S10736a;2021_Jul_08_1745;VideoMask;2021.1.2;120.05450475487541;
8.0;m;008_y_m_s_a.jpg;sad;7.0;sad_6.5ns.avi;sad;7.0;congruent;130.0;160.0;124.24628091899196;;;;;0;13;13;13;;;;;;;289.1233918000071;None;290.3900020000001;290.7064978000126;291.8482893000182;291.8649348000181;296.8397995000123;None;7;0;296.8397995000123;None;;;;;;;;4;;;;;;298.3812858000165;None;None;None;[];298.3812858000165;None;['7'];298.3812858000165;None;0.37065689999144524;[0.557109000015771];;;S10736a;2021_Jul_08_1745;VideoMask;2021.1.2;120.05450475487541;
1.0;f;021_o_f_h_a.jpg;happy;9.0;happy_12.1ns.avi;happy;9.0;congruent;140.0;150.0;236.6487020138435;;;;;0;14;14;14;;;;;;;301.38142270001117;None;303.6146368999907;303.93119500001194;305.0812705999997;305.0978774999967;312.6812699000002;None;8;0;312.6812699000002;None;;;;;;;;5;;;;;;314.239310200006;None;None;None;[];314.239310200006;None;None;314.239310200006;None;0.769351099996129;;;;S10736a;2021_Jul_08_1745;VideoMask;2021.1.2;120.05450475487541;
8.0;f;028_y_f_s_a.jpg;sad;7.0;sad_64.2ns.avi;sad;7.0;congruent;130.0;160.0;238.8507440172915;;;;;0;15;15;15;;;;;;;317.2642476000183;None;319.54751629999373;319.8640210000158;321.07229060001555;321.08912670001155;332.01376669999445;None;7;0;332.01376669999445;None;;;;;;;;5;;;;;;333.56372569999075;None;None;None;[];333.56372569999075;None;None;333.56372569999075;None;1.0287571999942884;;;;S10736a;2021_Jul_08_1745;VideoMask;2021.1.2;120.05450475487541;
2.0;f;012_o_f_s_a.jpg;sad;7.0;happy_139.1.wmv;happy;9.0;incongruent;130.0;150.0;185.59030554143408;;;;;0;16;16;16;;;;;;;336.5802873999928;None;338.33851200001664;338.65533790001064;339.78931130000274;339.81359400000656;341.78868930001045;None;9;0;341.78868930001045;None;;;;;;;;5;;;;;;343.37188350001816;None;None;None;[];343.37188350001816;None;None;343.37188350001816;None;0.477839800005313;;;;S10736a;2021_Jul_08_1745;VideoMask;2021.1.2;120.05450475487541;
3.0;m;033_o_m_s_a.jpg;sad;7.0;sad_64.5ns.avi;sad;7.0;congruent;130.0;160.0;159.52646627166388;;;;;0;17;17;17;;;;;;;346.3883378000173;None;347.971909600019;348.2881869999983;349.4379820000031;349.4550356999971;356.0131345000118;None;7;0;356.0131345000118;None;;;;;;;;4;;;;;;357.56304790001013;None;None;None;[];357.56304790001013;None;['7'];357.56304790001013;None;0.7175322000111919;[0.44748219999019057];;;S10736a;2021_Jul_08_1745;VideoMask;2021.1.2;120.05450475487541;
0.0;f;040_y_f_s_a.jpg;sad;7.0;happy_127.3.wmv;happy;9.0;incongruent;130.0;150.0;131.0431594605889;;;;;0;18;18;18;;;;;;;360.5628926999925;None;361.8712127000035;362.1878288000007;363.32132580000325;363.3379075000121;365.387857099995;None;9;0;365.387857099995;None;;;;;;;;5;;;;;;366.9379159999953;None;None;None;[];366.9379159999953;None;None;366.9379159999953;None;1.062616999988677;;;;S10736a;2021_Jul_08_1745;VideoMask;2021.1.2;120.05450475487541;
3.0;m;033_o_m_h_a.jpg;happy;9.0;sad_128.1.wmv;sad;7.0;incongruent;120.0;160.0;168.97426303437265;;;;;0;19;19;19;;;;;;;369.9711670000106;None;371.59589419999975;371.9127218000067;373.0376709999982;373.05437200001325;375.0543481000059;None;7;0;375.0543481000059;None;;;;;;;;4;;;;;;376.6042674999917;None;None;None;[];376.6042674999917;None;['7'];376.6042674999917;None;0.7723409000027459;[1.878175799996825];;;S10736a;2021_Jul_08_1745;VideoMask;2021.1.2;120.05450475487541;
9.0;f;019_m_f_h_a.jpg;happy;9.0;sad_115.1.wmv;sad;7.0;incongruent;120.0;160.0;202.13700247699333;;;;;0;20;20;20;;;;;;;379.6043210999924;None;381.49553270000615;381.81235089999973;382.9374805999978;382.9539985000156;384.94582150000497;None;None;0;384.94582150000497;None;;;;;;;;4;;;;;;386.4956968000042;None;None;None;[];386.4956968000042;None;['7'];386.4956968000042;None;;[0.16301280001061969];;;S10736a;2021_Jul_08_1745;VideoMask;2021.1.2;120.05450475487541;
8.0;m;008_y_m_h_a.jpg;happy;9.0;happy_1.2ns.avi;happy;9.0;congruent;140.0;150.0;155.22310421045015;;;;;0;21;21;21;;;;;;;389.50400829999126;None;391.07874190001166;391.39545219999854;392.57085000001825;392.58717849999084;405.3202517000027;None;9;0;405.3202517000027;None;;;;;;;;5;;;;;;406.8700182000175;None;None;None;[];406.8700182000175;None;None;406.8700182000175;None;0.3383157999778632;;;;S10736a;2021_Jul_08_1745;VideoMask;2021.1.2;120.05450475487541;
0.0;f;040_y_f_s_a.jpg;sad;7.0;sad_94.3ns.avi;sad;7.0;congruent;130.0;160.0;157.18644691248227;;;;;0;22;22;22;;;;;;;409.89511710000806;None;411.4114444000006;411.7282705999969;412.9203195000009;412.93664140001056;415.51207409999915;None;7;0;415.51207409999915;None;;;;;;;;5;;;;;;417.31145460001426;None;None;None;[];417.31145460001426;None;None;417.31145460001426;None;0.5146443000121508;;;;S10736a;2021_Jul_08_1745;VideoMask;2021.1.2;120.05450475487541;
6.0;m;016_y_m_s_a.jpg;sad;7.0;happy_60.4ns.avi;happy;9.0;incongruent;130.0;150.0;135.96622391936876;;;;;0;23;23;23;;;;;;;420.3279596999928;None;421.7113124000025;422.0369573000062;423.18637830001535;423.2029065999959;428.95269999999437;None;9;0;428.95269999999437;None;;;;;;;;5;;;;;;430.5028280999977;None;None;None;[];430.5028280999977;None;None;430.5028280999977;None;0.7304459000006318;;;;S10736a;2021_Jul_08_1745;VideoMask;2021.1.2;120.05450475487541;
0.0;f;030_o_f_h_a.jpg;happy;9.0;happy_24.1ns.avi;happy;9.0;congruent;140.0;150.0;187.2363405679046;;;;;0;24;24;24;;;;;;;433.5192629999947;None;435.30244840000523;435.6192922000191;436.7943237000145;436.81094290001784;440.0774611000088;None;9;0;440.0774611000088;None;;;;;;;;5;;;;;;441.6274537999998;None;None;None;[];441.6274537999998;None;None;441.6274537999998;None;0.4692046999989543;;;;S10736a;2021_Jul_08_1745;VideoMask;2021.1.2;120.05450475487541;
8.0;m;008_y_m_s_a.jpg;sad;7.0;happy_133.3.wmv;happy;9.0;incongruent;130.0;150.0;151.65964880545846;;;;;0;25;25;25;;;;;;;444.6607162000146;None;446.13549330001115;446.45226330001606;447.57738649999374;447.59393800000544;449.5861729000171;None;9;0;449.5861729000171;None;;;;;;;;5;;;;;;451.1355273000081;None;None;None;[];451.1355273000081;None;None;451.1355273000081;None;0.48852750001242384;;;;S10736a;2021_Jul_08_1745;VideoMask;2021.1.2;120.05450475487541;
1.0;f;021_o_f_s_a.jpg;sad;7.0;happy_61.2ns.avi;happy;9.0;incongruent;130.0;150.0;146.79956415721207;;;;;0;26;26;26;;;;;;;454.1687898999953;None;455.63538829999743;455.95218670001486;457.1101134000055;457.1269256999949;461.61887060001027;None;9;0;461.61887060001027;None;;;;;;;;5;;;;;;463.4768441999913;None;None;None;[];463.4768441999913;None;None;463.4768441999913;None;0.7197693000198342;;;;S10736a;2021_Jul_08_1745;VideoMask;2021.1.2;120.05450475487541;
1.0;f;021_o_f_h_a.jpg;happy;9.0;sad_116.1.wmv;sad;7.0;incongruent;120.0;160.0;205.93899364307754;;;;;0;27;27;27;;;;;;;466.5017624000029;None;468.4265796999971;468.7432397000084;469.8767104000144;469.89322790000006;471.87681590000284;None;7;0;471.87681590000284;None;;;;;;;;5;;;;;;473.43490720001864;None;None;None;[];473.43490720001864;None;None;473.43490720001864;None;0.6059858999797143;;;;S10736a;2021_Jul_08_1745;VideoMask;2021.1.2;120.05450475487541;
7.0;m;027_o_m_h_a.jpg;happy;9.0;happy_20.1ns.avi;happy;9.0;congruent;140.0;150.0;145.4488529976734;;;;;0;28;28;28;;;;;;;476.4513951000117;None;477.88467180001317;478.2014737999998;479.3597670000163;479.3763675999944;482.3514375000086;None;None;0;482.3514375000086;None;;;;;;;;5;;;;;;483.90148020000197;None;None;None;[];483.90148020000197;None;None;483.90148020000197;None;;;;;S10736a;2021_Jul_08_1745;VideoMask;2021.1.2;120.05450475487541;
3.0;m;033_o_m_s_a.jpg;sad;7.0;happy_126.3.wmv;happy;9.0;incongruent;130.0;150.0;220.47504181707743;;;;;0;29;29;29;;;;;;;486.91777870000806;None;488.9760111999931;489.2927527000138;490.42585739999777;490.4427618999907;492.4261111000087;None;9;0;492.4261111000087;None;;;;;;;;5;;;;;;493.9760130000068;None;None;None;[];493.9760130000068;None;None;493.9760130000068;None;0.800736200006213;;;;S10736a;2021_Jul_08_1745;VideoMask;2021.1.2;120.05450475487541;
4.0;m;004_o_m_s_a.jpg;sad;7.0;sad_2.4ns.avi;sad;7.0;congruent;130.0;160.0;153.9424691910033;;;;;0;30;30;30;;;;;;;497.0093395000149;None;498.50926540000364;498.8258187000174;499.99254360000486;500.00914139999077;507.9175537000119;None;7;0;507.9175537000119;None;;;;;;;;4;;;;;;509.5005800999934;None;None;None;[];509.5005800999934;None;['7'];509.5005800999934;None;0.3572713999892585;[0.5263651999994181];;;S10736a;2021_Jul_08_1745;VideoMask;2021.1.2;120.05450475487541;
8.0;m;008_y_m_h_a.jpg;happy;9.0;sad_111.1.wmv;sad;7.0;incongruent;120.0;160.0;182.0123397825363;;;;;0;31;31;31;;;;;;;512.5088628999947;None;514.2335504000075;514.5504112000053;515.6755238999904;515.6920009000169;517.6836916000175;None;7;0;517.6836916000175;None;;;;;;;;3;;;;;;519.2335309000046;None;None;None;[];519.2335309000046;None;"['7', '7']";519.2335309000046;None;0.39114779999363236;"[0.32924950000597164, 0.6492266000132076]";;;S10736a;2021_Jul_08_1745;VideoMask;2021.1.2;120.05450475487541;
4.0;m;004_o_m_h_a.jpg;happy;9.0;happy_1.1ns.avi;happy;9.0;congruent;140.0;150.0;145.41905773865074;;;;;0;32;32;32;;;;;;;522.2336820999917;None;523.7250015000172;524.0419547999918;525.2169202000077;525.2335354000097;539.6582048000128;None;9;0;539.6582048000128;None;;;;;;;;5;;;;;;541.208019600017;None;None;None;[];541.208019600017;None;None;541.208019600017;None;0.592843599995831;;;;S10736a;2021_Jul_08_1745;VideoMask;2021.1.2;120.05450475487541;
4.0;m;004_o_m_s_a.jpg;sad;7.0;happy_131.2.wmv;happy;9.0;incongruent;130.0;150.0;163.9874412082805;;;;;0;33;33;33;;;;;;;544.2413798999914;None;545.8410101000045;546.1578264000127;547.2910084000032;547.3077118000074;549.2994880999904;None;9;0;549.2994880999904;None;;;;;;;;5;;;;;;550.8410860000004;None;None;None;[];550.8410860000004;None;None;550.8410860000004;None;0.8313870999845676;;;;S10736a;2021_Jul_08_1745;VideoMask;2021.1.2;120.05450475487541;
2.0;f;012_o_f_h_a.jpg;happy;9.0;happy_27.1ns.avi;happy;9.0;congruent;140.0;150.0;207.9053492649655;;;;;0;34;34;34;;;;;;;553.8660976999963;None;555.80749810001;556.1241225000122;557.2909542999987;557.3074518000067;559.7490888000175;None;9;0;559.7490888000175;None;;;;;;;;5;;;;;;561.3908318000031;None;None;None;[];561.3908318000031;None;None;561.3908318000031;None;0.8697837000072468;;;;S10736a;2021_Jul_08_1745;VideoMask;2021.1.2;120.05450475487541;
7.0;m;027_o_m_s_a.jpg;sad;7.0;happy_117.3.wmv;happy;9.0;incongruent;130.0;150.0;218.0520785974414;;;;;0;35;35;35;;;;;;;564.4072463000193;None;566.4572042000073;566.7739014000108;567.9073965999996;567.9245431000018;569.9072440000018;None;9;0;569.9072440000018;None;;;;;;;;5;;;;;;571.4572555999912;None;None;None;[];571.4572555999912;None;None;571.4572555999912;None;0.6156446999812033;;;;S10736a;2021_Jul_08_1745;VideoMask;2021.1.2;120.05450475487541;
2.0;f;012_o_f_h_a.jpg;happy;9.0;sad_113.1.wmv;sad;7.0;incongruent;120.0;160.0;192.53137802384992;;;;;0;36;36;36;;;;;;;574.4738389000122;None;576.290262399998;576.6070736999973;577.7403876000026;577.7570611000119;579.7402983999928;None;7;0;579.7402983999928;None;;;;;;;;5;;;;;;581.3318967999949;None;None;None;[];581.3318967999949;None;None;581.3318967999949;None;0.7185128999990411;;;;S10736a;2021_Jul_08_1745;VideoMask;2021.1.2;120.05450475487541;
8.0;f;028_y_f_h_a.jpg;happy;9.0;happy_23.1ns.avi;happy;9.0;congruent;140.0;150.0;159.76384515822056;;;;;0;37;37;37;;;;;;;584.3484227000154;None;585.8899797000049;586.2069472000003;587.3567959000065;587.3732643999974;591.9149862999911;None;9;0;591.9149862999911;None;;;;;;;;5;;;;;;593.8482685000054;None;None;None;[];593.8482685000054;None;None;593.8482685000054;None;0.5518384999886621;;;;S10736a;2021_Jul_08_1745;VideoMask;2021.1.2;120.05450475487541;
0.0;f;030_o_f_s_a.jpg;sad;7.0;sad_64.3ns.avi;sad;7.0;congruent;130.0;160.0;172.91738127163183;;;;;0;38;38;38;;;;;;;596.8731004000001;None;598.5313005000062;598.8480498999998;600.006215500005;600.0230902000039;604.9896518000169;None;7;0;604.9896518000169;None;;;;;;;;5;;;;;;606.5396054000012;None;None;None;[];606.5396054000012;None;None;606.5396054000012;None;0.7331567999790423;;;;S10736a;2021_Jul_08_1745;VideoMask;2021.1.2;120.05450475487541;
6.0;m;016_y_m_h_a.jpg;happy;9.0;sad_114.1.wmv;sad;7.0;incongruent;120.0;160.0;196.03539454983184;;;;;0;39;39;39;;;;;;;609.5728147000191;None;611.4226511000015;611.7394555000064;612.8725613999995;612.8892248000193;614.8726579000067;None;7;0;614.8726579000067;None;;;;;;;;5;;;;;;616.4225948000094;None;None;None;[];616.4225948000094;None;None;616.4225948000094;None;0.8263549999974202;;;;S10736a;2021_Jul_08_1745;VideoMask;2021.1.2;120.05450475487541;
6.0;m;016_y_m_s_a.jpg;sad;7.0;sad_8.3ns.avi;sad;7.0;congruent;130.0;160.0;139.87174075953956;;;;;0;40;40;40;;;;;;;619.4559553000145;None;620.880820099992;621.197490599996;622.3391577000148;622.3558036000177;630.0890232000093;None;7;0;630.0890232000093;None;;;;;;;;5;;;;;;631.63886430001;None;None;None;[];631.63886430001;None;None;631.63886430001;None;0.5621441999974195;;;;S10736a;2021_Jul_08_1745;VideoMask;2021.1.2;120.05450475487541;
7.0;m;027_o_m_s_a.jpg;sad;7.0;sad_10.4ns.avi;sad;7.0;congruent;130.0;160.0;163.89298117292617;;;;;0;41;41;41;;;;;;;634.6637784999912;None;636.2470764000027;636.5636989999912;637.7138661000063;637.7304529999965;640.8637426999921;None;7;0;640.8637426999921;None;;;;;;;;3;;;;;;642.413575899991;None;None;None;[];642.413575899991;None;"['7', '7']";642.413575899991;None;0.778985199984163;"[0.7575205999892205, 1.3655102000047918]";;;S10736a;2021_Jul_08_1745;VideoMask;2021.1.2;120.05450475487541;
3.0;m;013_y_m_h_a.jpg;happy;9.0;happy_9.1ns.avi;happy;9.0;congruent;140.0;150.0;128.37211756912527;;;;;0;42;42;42;;;;;;;645.4218795000052;None;646.7215583999932;647.038352100004;648.171775099996;648.1884426000179;651.3967766000133;None;None;0;651.3967766000133;None;;;;;;;;6;;;;;;652.9465099000081;None;None;None;[];652.9465099000081;None;['9'];652.9465099000081;None;;[0.0724869999976363];;;S10736a;2021_Jul_08_1745;VideoMask;2021.1.2;120.05450475487541;
7.0;m;027_o_m_h_a.jpg;happy;9.0;sad_117.1.wmv;sad;7.0;incongruent;120.0;160.0;163.19466748508617;;;;;0;43;43;43;;;;;;;655.9466249000106;None;657.5296710999974;657.8463855000155;658.9965148000047;659.0131474999944;660.9805060999934;None;7;0;660.9805060999934;None;;;;;;;;4;;;;;;662.5296800000069;None;None;None;[];662.5296800000069;None;['7'];662.5296800000069;None;0.7026518999773543;[0.5693817000137642];;;S10736a;2021_Jul_08_1745;VideoMask;2021.1.2;120.05450475487541;
4.0;m;004_o_m_h_a.jpg;happy;9.0;sad_95.1ns.avi;sad;7.0;incongruent;120.0;160.0;162.95060606286506;;;;;0;44;44;44;;;;;;;665.5295973000175;None;667.1553105000057;667.4711021000112;668.621512600017;668.637950400007;677.3960768000106;None;7;0;677.3960768000106;None;;;;;;;;4;;;;;;678.9459416000172;None;None;None;[];678.9459416000172;None;"['7', '7']";678.9459416000172;None;0.5827906999911647;"[0.3853850999730639, 0.8811336999933701]";;;S10736a;2021_Jul_08_1745;VideoMask;2021.1.2;120.05450475487541;
0.0;f;040_y_f_h_a.jpg;happy;9.0;sad_128.2.wmv;sad;7.0;incongruent;120.0;160.0;121.98396994352893;;;;;0;45;45;45;;;;;;;681.9459358000022;None;683.1706505000184;683.4873838000058;684.6205470999994;684.6374799000041;686.6206071999914;None;7;0;686.6206071999914;None;;;;;;;;5;;;;;;688.1706396999944;None;None;None;[];688.1706396999944;None;None;688.1706396999944;None;1.118602499976987;;;;S10736a;2021_Jul_08_1745;VideoMask;2021.1.2;120.05450475487541;
0.0;f;040_y_f_h_a.jpg;happy;9.0;sad_138.1.wmv;sad;7.0;incongruent;120.0;160.0;195.60264978061832;;;;;0;46;46;46;;;;;;;691.2040118000004;None;693.0453741000092;693.3620604000171;694.4954875000112;694.5120303000149;696.495453600015;None;8;0;696.495453600015;None;;;;;;;;5;;;;;;698.0453933000099;None;None;None;[];698.0453933000099;None;None;698.0453933000099;None;0.42754770000465214;;;;S10736a;2021_Jul_08_1745;VideoMask;2021.1.2;120.05450475487541;
8.0;m;008_y_m_s_a.jpg;sad;7.0;happy_29.1ns.avi;happy;9.0;incongruent;130.0;150.0;212.92407054126133;;;;;0;47;47;47;;;;;;;701.0786725000071;None;703.070432700013;703.3868654000107;704.5368606999982;704.5533971000114;707.2118774999981;None;9;0;707.2118774999981;None;;;;;;;;5;;;;;;708.7617134000175;None;None;None;[];708.7617134000175;None;None;708.7617134000175;None;0.7512969999806955;;;;S10736a;2021_Jul_08_1745;VideoMask;2021.1.2;120.05450475487541;
0.0;f;040_y_f_h_a.jpg;happy;9.0;happy_24.3ns.avi;happy;9.0;congruent;140.0;150.0;190.23859628619445;;;;;0;48;48;48;;;;;;;711.7950319999945;None;713.5781064000039;713.8949126999942;715.0284992000088;715.0533790999907;716.9531653000158;None;9;0;716.9531653000158;None;;;;;;;;5;;;;;;718.5030965000042;None;None;None;[];718.5030965000042;None;None;718.5030965000042;None;0.5540788999933284;;;;S10736a;2021_Jul_08_1745;VideoMask;2021.1.2;120.05450475487541;
3.0;m;033_o_m_h_a.jpg;happy;9.0;happy_24.2ns.avi;happy;9.0;congruent;140.0;150.0;127.28107088671867;;;;;0;49;49;49;;;;;;;721.5364091999945;None;722.81949970001;723.1361758999992;724.3360985000036;724.3529723999964;728.0028529000119;None;9;0;728.0028529000119;None;;;;;;;;5;;;;;;729.5528454000014;None;None;None;[];729.5528454000014;None;None;729.5528454000014;None;0.6723522999964189;;;;S10736a;2021_Jul_08_1745;VideoMask;2021.1.2;120.05450475487541;
9.0;f;019_m_f_s_a.jpg;sad;7.0;happy_61.1ns.avi;happy;9.0;incongruent;130.0;150.0;190.9434091532566;;;;;0;50;50;50;;;;;;;732.5692088000069;None;734.4277459000004;734.7443131000036;735.9109824000043;735.9276341999939;743.2692052999919;None;9;0;743.2692052999919;None;;;;;;;;5;;;;;;744.8273110000009;None;None;None;[];744.8273110000009;None;None;744.8273110000009;None;0.5979506000003312;;;;S10736a;2021_Jul_08_1745;VideoMask;2021.1.2;120.05450475487541;
8.0;f;028_y_f_h_a.jpg;happy;9.0;sad_119.1.wmv;sad;7.0;incongruent;120.0;160.0;178.10396226647933;;;;;0;51;51;51;;;;;;;747.8522736000014;None;749.552078800014;749.8688035999949;751.002080700011;751.0189075999951;753.0771222000185;None;7;0;753.0771222000185;None;;;;;;;;5;;;;;;754.6271168999956;None;None;None;[];754.6271168999956;None;None;754.6271168999956;None;0.5498525000002701;;;;S10736a;2021_Jul_08_1745;VideoMask;2021.1.2;120.05450475487541;
3.0;m;033_o_m_h_a.jpg;happy;9.0;sad_136.1.wmv;sad;7.0;incongruent;120.0;160.0;206.04367658109783;;;;;0;52;52;52;;;;;;;757.6521140999976;None;759.5934833000065;759.9102263000095;761.0436398000165;761.0603006000165;763.0435946999933;None;7;0;763.0435946999933;None;;;;;;;;4;;;;;;764.5934377000085;None;None;None;[];764.5934377000085;None;['7'];764.5934377000085;None;0.9677143000008073;[0.3297735000087414];;;S10736a;2021_Jul_08_1745;VideoMask;2021.1.2;120.05450475487541;
6.0;m;016_y_m_h_a.jpg;happy;9.0;happy_9.2ns.avi;happy;9.0;congruent;140.0;150.0;136.52220806776708;;;;;0;53;53;53;;;;;;;767.5934860999987;None;768.9684140000027;769.2849743000115;770.4182914000121;770.4352945999999;776.343305300019;None;9;0;776.343305300019;None;;;;;;;;5;;;;;;777.8931504999928;None;None;None;[];777.8931504999928;None;None;777.8931504999928;None;0.4199864999973215;;;;S10736a;2021_Jul_08_1745;VideoMask;2021.1.2;120.05450475487541;
9.0;f;019_m_f_h_a.jpg;happy;9.0;happy_10.1ns.avi;happy;9.0;congruent;140.0;150.0;180.35091595488527;;;;;0;54;54;54;;;;;;;780.9264888000034;None;782.6929863000114;783.0095846000186;784.1679695000057;784.1846327999956;791.5843997999909;None;9;0;791.5843997999909;None;;;;;;;;5;;;;;;793.1344107000041;None;None;None;[];793.1344107000041;None;None;793.1344107000041;None;0.5068094999878667;;;;S10736a;2021_Jul_08_1745;VideoMask;2021.1.2;120.05450475487541;
8.0;f;028_y_f_s_a.jpg;sad;7.0;happy_122.3.wmv;happy;9.0;incongruent;130.0;150.0;204.27932588393085;;;;;0;55;55;55;;;;;;;796.1593799999973;None;798.0839957999997;798.400870100013;799.534252500016;799.5509182999958;801.5342003999976;None;9;0;801.5342003999976;None;;;;;;;;5;;;;;;803.0841251999955;None;None;None;[];803.0841251999955;None;None;803.0841251999955;None;0.5809748999890871;;;;S10736a;2021_Jul_08_1745;VideoMask;2021.1.2;120.05450475487541;
3.0;m;013_y_m_s_a.jpg;sad;7.0;sad_7.7ns.avi;sad;7.0;congruent;130.0;160.0;192.40728800739942;;;;;0;56;56;56;;;;;;;806.1007482999994;None;807.9339021999913;808.2591064000153;809.4339382000035;809.450562700018;815.3839143000077;None;7;0;815.3839143000077;None;;;;;;;;3;;;;;;816.9254194000096;None;None;None;[];816.9254194000096;None;"['7', '7']";816.9254194000096;None;0.4274069000093732;"[0.37394530000165105, 0.5899648999911733]";;;S10736a;2021_Jul_08_1745;VideoMask;2021.1.2;120.05450475487541;
3.0;m;013_y_m_h_a.jpg;happy;9.0;sad_113.2.wmv;sad;7.0;incongruent;120.0;160.0;219.6544115751568;;;;;0;57;57;57;;;;;;;819.9337396000046;None;821.9834259999916;822.3001621000003;823.4335841000138;823.4502227000194;825.4335552999983;None;7;0;825.4335552999983;None;;;;;;;;4;;;;;;826.9834050000063;None;None;None;[];826.9834050000063;None;['7'];826.9834050000063;None;0.6819475000083912;[0.5396591000026092];;;S10736a;2021_Jul_08_1745;VideoMask;2021.1.2;120.05450475487541;
4.0;m;004_o_m_h_a.jpg;happy;9.0;happy_25.1ns.avi;happy;9.0;congruent;140.0;150.0;237.98255695511958;;;;;0;58;58;58;;;;;;;829.9918530000141;None;832.1999752999982;832.5166424000054;833.6834163000167;833.699927300011;837.3416674000036;None;9;0;837.3416674000036;None;;;;;;;;5;;;;;;838.899840500002;None;None;None;[];838.899840500002;None;None;838.899840500002;None;0.5657867999980226;;;;S10736a;2021_Jul_08_1745;VideoMask;2021.1.2;120.05450475487541;
0.0;f;030_o_f_h_a.jpg;happy;9.0;sad_127.1.wmv;sad;7.0;incongruent;120.0;160.0;231.85538291836468;;;;;0;59;59;59;;;;;;;841.9245848999999;None;844.0661635000142;844.3828176000097;845.5080413999967;845.5246451999992;847.5163672000053;None;7;0;847.5163672000053;None;;;;;;;;5;;;;;;849.0662579000054;None;None;None;[];849.0662579000054;None;None;849.0662579000054;None;0.599054399994202;;;;S10736a;2021_Jul_08_1745;VideoMask;2021.1.2;120.05450475487541;
;;;;;;;;;;;;;;;;;;;;;;;;;;;;;;;;;;;;;;;;;;;;;;;;;;;;;;;;;;;;;;;852.0995175999997;None;;;;;;
