primePerson;primeGender;prime;primeEmotion;corrAnsPrime;target;targetEmotion;corrAnsTar;Cond;ID_Primer;ID_Target;JitterTime;Condition;example.thisRepN;example.thisTrialN;example.thisN;example.thisIndex;study.thisRepN;study.thisTrialN;study.thisN;study.thisIndex;MR_trigger_time;MR_trigger_number;text_intro.started;text_intro.stopped;text_probe.started;text_probe.stopped;polygon_ISI.started;polygon_ISI.stopped;polygon.started;polygon.stopped;primerImage.started;primerImage.stopped;response.started;response.stopped;key_resp.keys;key_resp.corr;key_resp.rt;key_resp.started;key_resp.stopped;slider_Text.started;slider_Text.stopped;slider_ex.response;slider_ex.rt;slider_ex.history;slider_ex.started;slider_ex.stopped;Rating;slider_resp_response.keys;slider_resp_response.rt;slider_resp_response.started;slider_resp_response.stopped;text_start.started;text_start.stopped;text_slider.started;text_slider.stopped;slider_stud.response;slider_stud.rt;slider_stud.history;slider_stud.started;slider_stud.stopped;slider_resp_study.keys;slider_resp_study.rt;slider_resp_study.started;slider_resp_study.stopped;text_ende.started;text_ende.stopped;participant;date;expName;psychopyVersion;frameRate;
1111;m;1111_m_m_h_a.jpg;happy;9;example_30.4ns.avi;neutral;7;incongruent;120.0;170.0;189.5874364012288;;0;0;0;0;;;;;30.147167899878696;1;30.22530149994418;32.22547259996645;32.22547259996645;None;34.24196009989828;None;36.20866769994609;36.52529039978981;37.666921800002456;37.68337979982607;42.01691489992663;None;9;0;0.6417962000705302;42.01691489992663;None;43.575129999779165;None;None;None;[];43.575129999779165;None;6;"['9', '9']";"[2.1874712998978794, 2.6435539999511093]";43.575129999779165;None;;;;;;;;;;;;;;;;S11554;2022_Jul_01_1233;VideoMask;2021.1.2;119.97039147298824;
1113;f;1113_y_f_s_a.jpg;sad;7;example_30.3ns.avi;neutral;7;incongruent;130.0;170.0;229.02432995836998;;0;1;1;1;;;;;;;;;;;46.566773699829355;None;48.68317430000752;48.999803899787366;50.208223399939016;50.22483309987001;52.1332147999201;None;None;0;;52.1332147999201;None;53.68292439985089;None;None;None;[];53.68292439985089;None;8;"['9', '9', '9', '7']";"[1.3038929000031203, 1.6080936000216752, 1.9039098999928683, 2.7358425001148134]";53.68292439985089;None;;;;;;;;;;;;;;;;S11554;2022_Jul_01_1233;VideoMask;2021.1.2;119.97039147298824;
9.0;f;019_m_f_h_a.jpg;happy;9.0;sad_115.1.wmv;sad;7.0;incongruent;120.0;160.0;128.09063432376465;h_s;;;;;0;0;0;0;;;;;;;57.71633769990876;None;58.99119529989548;59.30784619995393;60.4410211998038;60.45786859979853;62.441203999798745;None;7;0;0.4894977998919785;62.441203999798745;None;;;;;;;;2;;;;;56.691441899864;None;63.99108329997398;None;None;None;[];63.99108329997398;None;"['7', '7', '7']";"[0.4037159997969866, 0.6595654999837279, 1.37171719991602]";63.99108329997398;None;;;S11554;2022_Jul_01_1233;VideoMask;2021.1.2;119.97039147298824;
3.0;m;033_o_m_s_a.jpg;sad;7.0;sad_94.2ns.avi;sad;7.0;congruent;130.0;160.0;182.29120173647655;s_s;;;;;0;1;1;1;;;;;;;66.98274439992383;None;68.69918499980122;69.01587169989944;70.2076678997837;70.22425869992003;72.84088849998079;None;7;0;0.737884699832648;72.84088849998079;None;;;;;;;;4;;;;;;;74.39078069990501;None;None;None;[];74.39078069990501;None;['7'];[0.9800005001015961];74.39078069990501;None;;;S11554;2022_Jul_01_1233;VideoMask;2021.1.2;119.97039147298824;
8.0;m;008_y_m_h_a.jpg;happy;9.0;happy_26.1ns.avi;happy;9.0;congruent;120.0;150.0;155.9437854594882;h_h;;;;;0;2;2;2;;;;;;;77.39911509980448;None;78.8905175998807;79.20724449981935;80.40728299994953;80.4239046999719;82.33220759988762;None;9;0;0.43080319999717176;82.33220759988762;None;;;;;;;;9;;;;;;;83.88215029984713;None;None;None;[];83.88215029984713;None;"['9', '9', '9', '9']";"[0.4485948998481035, 0.6565254998859018, 0.8564949999563396, 1.1126836000476032]";83.88215029984713;None;;;S11554;2022_Jul_01_1233;VideoMask;2021.1.2;119.97039147298824;
0.0;f;040_y_f_h_a.jpg;happy;9.0;sad_138.1.wmv;sad;7.0;incongruent;120.0;160.0;133.99071306426532;h_s;;;;;0;3;3;3;;;;;;;86.89045259985141;None;88.20675479993224;88.5235864999704;89.65700609982014;89.67365899984725;91.65686719981022;None;7;0;1.2178615999873728;91.65686719981022;None;;;;;;;;5;;;;;;;93.2068358999677;None;None;None;[];93.2068358999677;None;None;;93.2068358999677;None;;;S11554;2022_Jul_01_1233;VideoMask;2021.1.2;119.97039147298824;
8.0;f;028_y_f_s_a.jpg;sad;7.0;sad_64.2ns.avi;sad;7.0;congruent;130.0;160.0;229.88540597086478;s_s;;;;;0;4;4;4;;;;;;;96.22323459992185;None;98.37325109983794;98.69002179987729;99.83992699999362;99.85666069993749;110.82294949982315;None;7;0;0.41978500015102327;110.82294949982315;None;;;;;;;;2;;;;;;;112.37292609992437;None;None;None;[];112.37292609992437;None;"['7', '7', '7']";"[0.5100881000980735, 0.8299151000101119, 1.1497418000362813]";112.37292609992437;None;;;S11554;2022_Jul_01_1233;VideoMask;2021.1.2;119.97039147298824;
7.0;m;027_o_m_s_a.jpg;sad;7.0;sad_10.4ns.avi;sad;7.0;congruent;130.0;160.0;185.20129417468752;s_s;;;;;0;5;5;5;;;;;;;115.38117259996943;None;117.13100029993802;117.44771049986593;118.60670399991795;118.62328689987771;121.747675599996;None;7;0;0.6389031000435352;121.747675599996;None;;;;;;;;1;;;;;;;123.29754129983485;None;None;None;[];123.29754129983485;None;"['7', '7', '7', '7', '7']";"[0.32125310017727315, 0.5530481000896543, 0.7610182000789791, 0.9851316001731902, 1.4012321999762207]";123.29754129983485;None;;;S11554;2022_Jul_01_1233;VideoMask;2021.1.2;119.97039147298824;
2.0;f;012_o_f_s_a.jpg;sad;7.0;sad_7.5ns.avi;sad;7.0;congruent;130.0;160.0;220.27842655424388;s_s;;;;;0;6;6;6;;;;;;;126.29744419991039;None;128.31395949982107;128.63059329986572;129.83061499986798;129.8473125998862;132.5556537997909;None;7;0;0.40717300004325807;132.5556537997909;None;;;;;;;;3;;;;;;;134.10554939997382;None;None;None;[];134.10554939997382;None;"['7', '7']";"[0.4574088999070227, 0.7452540998347104]";134.10554939997382;None;;;S11554;2022_Jul_01_1233;VideoMask;2021.1.2;119.97039147298824;
2.0;f;012_o_f_h_a.jpg;happy;9.0;happy_27.1ns.avi;happy;9.0;congruent;120.0;150.0;146.44967055810616;h_h;;;;;0;7;7;7;;;;;;;137.11393489991315;None;138.52197139989585;138.8386418998707;139.97197389998473;139.9886646999512;142.46366759994999;None;9;0;0.3311306000687182;142.46366759994999;None;;;;;;;;9;;;;;;;144.01357589988038;None;None;None;[];144.01357589988038;None;"['9', '9', '9', '9', '9']";"[0.4290658999234438, 0.6450114999897778, 0.8449887000024319, 1.0690846000798047, 1.5814374000765383]";144.01357589988038;None;;;S11554;2022_Jul_01_1233;VideoMask;2021.1.2;119.97039147298824;
8.0;f;028_y_f_h_a.jpg;happy;9.0;sad_119.1.wmv;sad;7.0;incongruent;120.0;160.0;148.71526953572538;h_s;;;;;0;8;8;8;;;;;;;147.01360799977556;None;148.46331249992363;148.78002029983327;149.91339169978164;149.93122639996;151.97998419986106;None;7;0;0.5189129000063986;151.97998419986106;None;;;;;;;;3;;;;;;;153.5299702999182;None;None;None;[];153.5299702999182;None;"['7', '7']";"[0.7446747000794858, 1.0565617000684142]";153.5299702999182;None;;;S11554;2022_Jul_01_1233;VideoMask;2021.1.2;119.97039147298824;
6.0;m;016_y_m_s_a.jpg;sad;7.0;happy_60.4ns.avi;happy;9.0;incongruent;130.0;150.0;126.02367393611817;s_h;;;;;0;9;9;9;;;;;;;156.53827719995752;None;157.79631729982793;158.11309549980797;159.2881020999048;159.3047795998864;165.0379439999815;None;9;0;0.5087641000282019;165.0379439999815;None;;;;;;;;8;;;;;;;166.58786359988153;None;None;None;[];166.58786359988153;None;"['9', '9', '9']";"[0.44691219995729625, 0.6788071999326348, 0.9509618999436498]";166.58786359988153;None;;;S11554;2022_Jul_01_1233;VideoMask;2021.1.2;119.97039147298824;
9.0;f;019_m_f_s_a.jpg;sad;7.0;sad_8.4ns.avi;sad;7.0;congruent;130.0;160.0;171.6633093155257;s_s;;;;;0;10;10;10;;;;;;;169.59623539983295;None;171.26274159993045;171.57926519983448;172.8299173999112;172.854327699868;180.84583989996463;None;7;0;0.5648841999936849;180.84583989996463;None;;;;;;;;2;;;;;;;183.1123244999908;None;None;None;[];183.1123244999908;None;"['7', '7', '7']";"[0.31441130000166595, 0.5783031999599189, 0.8423808999359608]";183.1123244999908;None;;;S11554;2022_Jul_01_1233;VideoMask;2021.1.2;119.97039147298824;
4.0;m;004_o_m_h_a.jpg;happy;9.0;happy_1.1ns.avi;happy;9.0;congruent;120.0;150.0;203.50057144619865;h_h;;;;;0;11;11;11;;;;;;;186.12074709986337;None;188.10375029989518;188.42037499998696;189.6288127999287;189.64550259988755;204.04499339987524;None;9;0;0.5097328999545425;204.04499339987524;None;;;;;;;;7;;;;;;;205.59491899982095;None;None;None;[];205.59491899982095;None;"['9', '9']";"[0.37570589990355074, 0.6636781000997871]";205.59491899982095;None;;;S11554;2022_Jul_01_1233;VideoMask;2021.1.2;119.97039147298824;
7.0;m;027_o_m_h_a.jpg;happy;9.0;happy_20.1ns.avi;happy;9.0;congruent;120.0;150.0;152.91127178874285;h_h;;;;;0;12;12;12;;;;;;;208.60323629993945;None;210.10315989982337;210.41976959980093;211.5447955999989;211.56141419988126;214.56978449993767;None;9;0;0.6729319000151008;214.56978449993767;None;;;;;;;;8;;;;;;;216.12001929990947;None;None;None;[];216.12001929990947;None;"['9', '9', '9']";"[0.3306903000921011, 0.5786019000224769, 0.8586661000736058]";216.12001929990947;None;;;S11554;2022_Jul_01_1233;VideoMask;2021.1.2;119.97039147298824;
0.0;f;040_y_f_s_a.jpg;sad;7.0;sad_94.3ns.avi;sad;7.0;congruent;130.0;160.0;155.27414203894395;s_s;;;;;0;13;13;13;;;;;;;219.1279196999967;None;220.61938930000179;220.93606109987013;222.15339899994433;222.18605709983967;224.6944379999768;None;7;0;0.5082775999326259;224.6944379999768;None;;;;;;;;5;;;;;;;226.25265089981258;None;None;None;[];226.25265089981258;None;None;;226.25265089981258;None;;;S11554;2022_Jul_01_1233;VideoMask;2021.1.2;119.97039147298824;
0.0;f;030_o_f_s_a.jpg;sad;7.0;sad_68.1ns.avi;sad;7.0;congruent;130.0;160.0;158.9411396037211;s_s;;;;;0;14;14;14;;;;;;;229.28590319980867;None;230.82730959984474;231.14404049981385;232.3690194999799;232.38575929985382;239.70223799999803;None;7;0;0.4523610998876393;239.70223799999803;None;;;;;;;;4;;;;;;;241.25217529991642;None;None;None;[];241.25217529991642;None;['7'];[0.42268559988588095];241.25217529991642;None;;;S11554;2022_Jul_01_1233;VideoMask;2021.1.2;119.97039147298824;
0.0;f;030_o_f_h_a.jpg;happy;9.0;sad_127.1.wmv;sad;7.0;incongruent;120.0;160.0;180.59976631384873;h_s;;;;;0;15;15;15;;;;;;;244.25205979985185;None;245.9602675999049;246.27695439988747;247.41029299981892;247.42735799984075;249.41858099983074;None;7;0;1.0322078000754118;249.41858099983074;None;;;;;;;;3;;;;;;;250.96850369987078;None;None;None;[];250.96850369987078;None;"['7', '7']";"[0.674661299912259, 1.0101373998913914]";250.96850369987078;None;;;S11554;2022_Jul_01_1233;VideoMask;2021.1.2;119.97039147298824;
8.0;m;008_y_m_s_a.jpg;sad;7.0;happy_133.3.wmv;happy;9.0;incongruent;130.0;150.0;152.577966552593;s_h;;;;;0;16;16;16;;;;;;;253.97691259998828;None;255.45171709987335;255.76826299983077;256.89335799985565;256.90999019984156;258.9016185000073;None;9;0;0.4132744998205453;258.9016185000073;None;;;;;;;;8;;;;;;;260.44320739991963;None;None;None;[];260.44320739991963;None;"['9', '9', '9']";"[0.28745600022375584, 0.5353063000366092, 0.7673568001482636]";260.44320739991963;None;;;S11554;2022_Jul_01_1233;VideoMask;2021.1.2;119.97039147298824;
3.0;m;033_o_m_h_a.jpg;happy;9.0;sad_128.1.wmv;sad;7.0;incongruent;120.0;160.0;171.0492454518585;h_s;;;;;0;17;17;17;;;;;;;263.4430897999555;None;265.0845990998205;265.4013679998461;266.551820299821;266.57618029997684;268.5346285998821;None;7;0;0.4999262001365423;268.5346285998821;None;;;;;;;;3;;;;;;;270.08458339981735;None;None;None;[];270.08458339981735;None;"['7', '7']";"[0.44605190004222095, 0.7503106000367552]";270.08458339981735;None;;;S11554;2022_Jul_01_1233;VideoMask;2021.1.2;119.97039147298824;
1.0;f;021_o_f_h_a.jpg;happy;9.0;sad_116.1.wmv;sad;7.0;incongruent;120.0;160.0;184.06847610053055;h_s;;;;;0;18;18;18;;;;;;;273.0845539998263;None;274.8343529999256;275.1510166998487;276.2851148999762;276.3096019998193;278.2926641998347;None;7;0;0.5500429000239819;278.2926641998347;None;;;;;;;;2;;;;;;;279.8425875999965;None;None;None;[];279.8425875999965;None;"['7', '7', '7']";"[0.40009919996373355, 0.6720191999338567, 0.9525520000606775]";279.8425875999965;None;;;S11554;2022_Jul_01_1233;VideoMask;2021.1.2;119.97039147298824;
4.0;m;004_o_m_s_a.jpg;sad;7.0;happy_28.1ns.avi;happy;9.0;incongruent;130.0;150.0;157.40741103039684;s_h;;;;;0;19;19;19;;;;;;;282.8508359999396;None;284.3506863999646;284.66737639997154;285.85887419991195;285.8755332999863;290.1923322000075;None;9;0;0.33825279981829226;290.1923322000075;None;;;;;;;;8;;;;;;;291.7422359997872;None;None;None;[];291.7422359997872;None;"['9', '9', '9']";"[0.3802841000724584, 0.6363663000520319, 0.8843660999555141]";291.7422359997872;None;;;S11554;2022_Jul_01_1233;VideoMask;2021.1.2;119.97039147298824;
8.0;f;028_y_f_s_a.jpg;sad;7.0;happy_122.3.wmv;happy;9.0;incongruent;130.0;150.0;171.8670540936116;s_h;;;;;0;20;20;20;;;;;;;294.75057049980387;None;296.3836216998752;296.7003370998427;297.8337359998841;297.8503716997802;299.8336479999125;None;9;0;0.4489692999050021;299.8336479999125;None;;;;;;;;9;;;;;;;301.37526479992084;None;None;None;[];301.37526479992084;None;"['9', '9', '9', '9']";"[0.38743799994699657, 0.5953969999682158, 0.8032684999052435, 1.0593882000539452]";301.37526479992084;None;;;S11554;2022_Jul_01_1233;VideoMask;2021.1.2;119.97039147298824;
8.0;m;008_y_m_s_a.jpg;sad;7.0;sad_6.5ns.avi;sad;7.0;congruent;130.0;160.0;170.39333839271438;s_s;;;;;0;21;21;21;;;;;;;304.3751649998594;None;306.00834199995734;306.325118499808;307.50825449987315;307.5249804998748;312.45818919991143;None;7;0;0.3603785000741482;312.45818919991143;None;;;;;;;;3;;;;;;;314.00818439992145;None;None;None;[];314.00818439992145;None;"['7', '7', '7']";"[0.32265620003454387, 0.6025026999413967, 1.0827452999074012]";314.00818439992145;None;;;S11554;2022_Jul_01_1233;VideoMask;2021.1.2;119.97039147298824;
8.0;f;028_y_f_h_a.jpg;happy;9.0;happy_23.1ns.avi;happy;9.0;congruent;120.0;150.0;225.70986890587952;h_h;;;;;0;22;22;22;;;;;;;317.00816139997914;None;319.0828711998183;319.3996199998073;320.5576753998175;320.574443699792;325.1078667999245;None;9;0;0.5107674999162555;325.1078667999245;None;;;;;;;;8;;;;;;;326.65775279980153;None;None;None;[];326.65775279980153;None;"['9', '9', '9', '9']";"[0.36885589989833534, 0.6728296999353915, 1.0171695000026375, 1.7209212000016123]";326.65775279980153;None;;;S11554;2022_Jul_01_1233;VideoMask;2021.1.2;119.97039147298824;
8.0;m;008_y_m_h_a.jpg;happy;9.0;sad_111.1.wmv;sad;7.0;incongruent;120.0;160.0;152.63076835312847;h_s;;;;;0;23;23;23;;;;;;;329.6578027999494;None;331.13255719980225;331.4491526999045;332.5830114998389;332.60757949994877;334.5826525997836;None;7;0;0.7240075999870896;334.5826525997836;None;;;;;;;;3;;;;;;;336.1325012999587;None;None;None;[];336.1325012999587;None;"['7', '7', '7']";"[0.7503555999137461, 1.1101319000590593, 1.606047400040552]";336.1325012999587;None;;;S11554;2022_Jul_01_1233;VideoMask;2021.1.2;119.97039147298824;
0.0;f;040_y_f_s_a.jpg;sad;7.0;sad_67.2ns.avi;sad;7.0;congruent;130.0;160.0;220.9892697323079;s_s;;;;;0;24;24;24;;;;;;;339.1325080997776;None;341.19056699983776;341.5072962997947;342.7240258997772;342.74040779983625;351.8654417998623;None;7;0;0.4572205999866128;351.8654417998623;None;;;;;;;;4;;;;;;;353.41527449991554;None;None;None;[];353.41527449991554;None;"['7', '7']";"[0.04338399996049702, 0.7473015000578016]";353.41527449991554;None;;;S11554;2022_Jul_01_1233;VideoMask;2021.1.2;119.97039147298824;
8.0;m;008_y_m_s_a.jpg;sad;7.0;happy_29.1ns.avi;happy;9.0;incongruent;130.0;150.0;120.0316142834122;s_h;;;;;0;25;25;25;;;;;;;356.4235905997921;None;357.6234092998784;357.93999809981324;359.1151517999824;359.1317858998664;361.7651076999027;None;9;0;0.5413420000113547;361.7651076999027;None;;;;;;;;8;;;;;;;363.3233045998495;None;None;None;[];363.3233045998495;None;"['9', '9', '9']";"[0.3113183998502791, 0.5832410999573767, 0.8793054998386651]";363.3233045998495;None;;;S11554;2022_Jul_01_1233;VideoMask;2021.1.2;119.97039147298824;
6.0;m;016_y_m_s_a.jpg;sad;7.0;sad_8.3ns.avi;sad;7.0;congruent;130.0;160.0;152.85371098242734;s_s;;;;;0;26;26;26;;;;;;;366.33151759998873;None;367.8147047997918;368.13141959998757;369.3063166998327;369.3315357998945;377.02298089978285;None;7;0;0.6919794001150876;377.02298089978285;None;;;;;;;;3;;;;;;;378.5728197998833;None;None;None;[];378.5728197998833;None;"['7', '7']";"[0.6058432999998331, 1.2139637998770922]";378.5728197998833;None;;;S11554;2022_Jul_01_1233;VideoMask;2021.1.2;119.97039147298824;
6.0;m;016_y_m_h_a.jpg;happy;9.0;sad_114.1.wmv;sad;7.0;incongruent;120.0;160.0;136.20550699298644;h_s;;;;;0;27;27;27;;;;;;;381.58117499994114;None;382.9225854999386;383.23928419989534;384.3643833999522;384.3809112999588;386.38092129980214;None;7;0;0.4377427001018077;386.38092129980214;None;;;;;;;;2;;;;;;;387.93087489996105;None;None;None;[];387.93087489996105;None;"['7', '7', '7']";"[0.4957675999030471, 0.8397423999849707, 1.2398868000600487]";387.93087489996105;None;;;S11554;2022_Jul_01_1233;VideoMask;2021.1.2;119.97039147298824;
7.0;m;027_o_m_s_a.jpg;sad;7.0;happy_117.3.wmv;happy;9.0;incongruent;130.0;150.0;215.61964028550614;s_h;;;;;0;28;28;28;;;;;;;390.9307844999712;None;392.9306210000068;393.24728319980204;394.3723800999578;394.38897319999523;396.38897929992527;None;9;0;0.75771540007554;396.38897929992527;None;;;;;;;;7;;;;;;;397.93885269993916;None;None;None;[];397.93885269993916;None;"['9', '9']";"[0.3516754999291152, 0.6397309999447316]";397.93885269993916;None;;;S11554;2022_Jul_01_1233;VideoMask;2021.1.2;119.97039147298824;
6.0;m;016_y_m_h_a.jpg;happy;9.0;happy_9.2ns.avi;happy;9.0;congruent;120.0;150.0;130.52042428082717;h_h;;;;;0;29;29;29;;;;;;;400.94709909986705;None;402.23860399983823;402.5553398998454;403.6803596999962;403.6970034998376;409.6135429998394;None;9;0;0.48503510002046824;409.6135429998394;None;;;;;;;;9;;;;;;;411.1634492999874;None;None;None;[];411.1634492999874;None;"['9', '9', '9', '9']";"[0.35915679996833205, 0.6549774000886828, 0.967088800156489, 1.25502649997361]";411.1634492999874;None;;;S11554;2022_Jul_01_1233;VideoMask;2021.1.2;119.97039147298824;
0.0;f;040_y_f_s_a.jpg;sad;7.0;happy_127.3.wmv;happy;9.0;incongruent;130.0;150.0;131.7195455720239;s_h;;;;;0;30;30;30;;;;;;;414.163358299993;None;415.47157979989424;415.7882220998872;416.9133323999122;416.92998799984343;418.9882537999656;None;9;0;1.2702442000154406;418.9882537999656;None;;;;;;;;7;;;;;;;420.5299164999742;None;None;None;[];420.5299164999742;None;"['9', '9']";"[0.5771351000294089, 0.9126184999477118]";420.5299164999742;None;;;S11554;2022_Jul_01_1233;VideoMask;2021.1.2;119.97039147298824;
0.0;f;030_o_f_s_a.jpg;sad;7.0;happy_125.3.wmv;happy;9.0;incongruent;130.0;150.0;220.51454909128134;s_h;;;;;0;31;31;31;;;;;;;423.52969409991056;None;425.5711519999895;425.887915099971;427.0296969998162;427.04628619994037;429.0295945999678;None;9;0;0.5169329999480397;429.0295945999678;None;;;;;;;;9;;;;;;;430.57953409990296;None;None;None;[];430.57953409990296;None;"['9', '9', '9', '9', '9']";"[0.4551711000967771, 0.743007899960503, 1.0631373999640346, 1.4150435999035835, 2.1431472001131624]";430.57953409990296;None;;;S11554;2022_Jul_01_1233;VideoMask;2021.1.2;119.97039147298824;
0.0;f;030_o_f_s_a.jpg;sad;7.0;sad_64.3ns.avi;sad;7.0;congruent;130.0;160.0;165.78667874766072;s_s;;;;;0;32;32;32;;;;;;;433.5876458999701;None;435.1709188998211;435.4961513997987;436.6626844999846;436.6792607998941;441.62080039992;None;7;0;0.685726199997589;441.62080039992;None;;;;;;;;2;;;;;;;443.17072689998895;None;None;None;[];443.17072689998895;None;"['7', '7', '7']";"[0.3919667999725789, 0.7038880998734385, 0.9917687999550253]";443.17072689998895;None;;;S11554;2022_Jul_01_1233;VideoMask;2021.1.2;119.97039147298824;
3.0;m;013_y_m_s_a.jpg;sad;7.0;sad_7.7ns.avi;sad;7.0;congruent;130.0;160.0;196.24182255763262;s_s;;;;;0;33;33;33;;;;;;;446.1706425999291;None;448.01229319977574;448.3287952998653;449.5286700997967;449.55396129982546;455.4621635999065;None;7;0;0.756380699807778;455.4621635999065;None;;;;;;;;4;;;;;;;457.01201869989745;None;None;None;[];457.01201869989745;None;"['7', '7']";"[0.3826250999700278, 0.694547199876979]";457.01201869989745;None;;;S11554;2022_Jul_01_1233;VideoMask;2021.1.2;119.97039147298824;
3.0;m;013_y_m_h_a.jpg;happy;9.0;happy_9.1ns.avi;happy;9.0;congruent;120.0;150.0;165.1890303600433;h_h;;;;;0;34;34;34;;;;;;;460.020302799996;None;461.6034498999361;461.92006169981323;463.086644299794;463.1033082997892;466.2785003997851;None;9;0;0.48400670010596514;466.2785003997851;None;;;;;;;;8;;;;;;;467.8282292999793;None;None;None;[];467.8282292999793;None;"['9', '9', '9', '9']";"[0.26237340015359223, 0.5743814001325518, 0.9264013001229614, 1.3344036000780761]";467.8282292999793;None;;;S11554;2022_Jul_01_1233;VideoMask;2021.1.2;119.97039147298824;
4.0;m;004_o_m_h_a.jpg;happy;9.0;sad_95.1ns.avi;sad;7.0;incongruent;120.0;160.0;152.68270002069931;h_s;;;;;0;35;35;35;;;;;;;470.8283411997836;None;472.3279642998241;472.6447730998043;473.7785898000002;473.79515429981984;482.56953719980083;None;7;0;0.6249124000314623;482.56953719980083;None;;;;;;;;1;;;;;;;484.1277848999016;None;None;None;[];484.1277848999016;None;"['7', '7', '7', '7']";"[0.45883939997293055, 0.874828000087291, 1.2670040999073535, 1.642774899955839]";484.1277848999016;None;;;S11554;2022_Jul_01_1233;VideoMask;2021.1.2;119.97039147298824;
3.0;m;013_y_m_h_a.jpg;happy;9.0;sad_113.2.wmv;sad;7.0;incongruent;120.0;160.0;217.4973891947951;h_s;;;;;0;36;36;36;;;;;;;487.1278122998774;None;489.15257179993205;489.4692309999373;490.594362200005;490.6108572999947;492.6026712998282;None;7;0;0.6319770999252796;492.6026712998282;None;;;;;;;;2;;;;;;;494.1525001998525;None;None;None;[];494.1525001998525;None;"['7', '7', '7']";"[0.3701539000030607, 0.7061050001066178, 1.042106500128284]";494.1525001998525;None;;;S11554;2022_Jul_01_1233;VideoMask;2021.1.2;119.97039147298824;
4.0;m;004_o_m_h_a.jpg;happy;9.0;happy_25.1ns.avi;happy;9.0;congruent;120.0;150.0;216.63044503818386;h_h;;;;;0;37;37;37;;;;;;;497.1525249998085;None;499.15207039983943;499.4689208997879;500.65233089984395;500.66887279995717;504.2939402998891;None;9;0;0.42895660013891757;504.2939402998891;None;;;;;;;;9;;;;;;;505.8521466997918;None;None;None;[];505.8521466997918;None;"['9', '9', '9', '9']";"[0.36627850006334484, 0.6785124999005347, 0.9585746999364346, 1.2704396999906749]";505.8521466997918;None;;;S11554;2022_Jul_01_1233;VideoMask;2021.1.2;119.97039147298824;
4.0;m;004_o_m_s_a.jpg;sad;7.0;happy_131.2.wmv;happy;9.0;incongruent;130.0;150.0;181.38407540847405;s_h;;;;;0;38;38;38;;;;;;;508.8521585999988;None;510.56853309995495;510.8852250999771;512.0183186999056;512.0352560000028;514.0185219999403;None;9;0;0.536084600025788;514.0185219999403;None;;;;;;;;9;;;;;;;515.5684883999638;None;None;None;[];515.5684883999638;None;"['9', '9', '9', '9']";"[0.5382545001339167, 0.8502786001190543, 1.1540229001548141, 2.034546700073406]";515.5684883999638;None;;;S11554;2022_Jul_01_1233;VideoMask;2021.1.2;119.97039147298824;
0.0;f;040_y_f_h_a.jpg;happy;9.0;happy_24.3ns.avi;happy;9.0;congruent;120.0;150.0;213.25460698950434;h_h;;;;;0;39;39;39;;;;;;;518.5767011998687;None;520.5348082999699;520.8516203998588;522.0515077000018;522.068251799792;523.9100032998249;None;9;0;0.6925926001276821;523.9100032998249;None;;;;;;;;9;;;;;;;525.4598008999601;None;None;None;[];525.4598008999601;None;"['9', '9', '9', '9']";"[0.37481149984523654, 0.6867249999195337, 0.9987419999670237, 1.6948539998847991]";525.4598008999601;None;;;S11554;2022_Jul_01_1233;VideoMask;2021.1.2;119.97039147298824;
2.0;f;012_o_f_s_a.jpg;sad;7.0;happy_139.1.wmv;happy;9.0;incongruent;130.0;150.0;162.31500468041804;s_h;;;;;0;40;40;40;;;;;;;528.4596605999395;None;530.0179216999095;530.3346722999122;531.4679931998253;531.4846685999073;533.4678929999936;None;9;0;0.4787101000547409;533.4678929999936;None;;;;;;;;7;;;;;;;535.8511634999886;None;None;None;[];535.8511634999886;None;"['9', '9', '9']";"[0.4072533999569714, 0.7194399998988956, 1.1514258000534028]";535.8511634999886;None;;;S11554;2022_Jul_01_1233;VideoMask;2021.1.2;119.97039147298824;
0.0;f;030_o_f_h_a.jpg;happy;9.0;happy_24.1ns.avi;happy;9.0;congruent;120.0;150.0;168.36256624020774;h_h;;;;;0;41;41;41;;;;;;;538.8511493999977;None;540.4509494998492;540.7675720998086;541.9926410999615;542.0093463999219;545.2425212999806;None;9;0;0.3601220999844372;545.2425212999806;None;;;;;;;;8;;;;;;;546.8008314999752;None;None;None;[];546.8008314999752;None;"['9', '9', '9', '9']";"[0.33774570003151894, 0.6096693999134004, 0.945726899895817, 1.2415797000285238]";546.8008314999752;None;;;S11554;2022_Jul_01_1233;VideoMask;2021.1.2;119.97039147298824;
2.0;f;012_o_f_h_a.jpg;happy;9.0;sad_113.1.wmv;sad;7.0;incongruent;120.0;160.0;177.44551734737394;h_s;;;;;0;42;42;42;;;;;;;549.8008954999968;None;551.4839252999518;551.8006386999041;552.9506641998887;552.9670854997821;554.9339137999341;None;7;0;0.5246499001514167;554.9339137999341;None;;;;;;;;3;;;;;;;556.4755072998814;None;None;None;[];556.4755072998814;None;"['7', '7', '7']";"[0.3591105998493731, 0.687073600012809, 1.439104399876669]";556.4755072998814;None;;;S11554;2022_Jul_01_1233;VideoMask;2021.1.2;119.97039147298824;
3.0;m;033_o_m_s_a.jpg;sad;7.0;sad_64.5ns.avi;sad;7.0;congruent;130.0;160.0;130.55717223801247;s_s;;;;;0;43;43;43;;;;;;;559.4755953999702;None;560.7752800998278;561.0919695999473;562.2586717999075;562.2753740998451;568.8084199998993;None;7;0;0.6581978998146951;568.8084199998993;None;;;;;;;;1;;;;;;;570.3584098999854;None;None;None;[];570.3584098999854;None;"['7', '7', '7', '7']";"[0.34804409998469055, 0.7003701000940055, 1.0201692001428455, 1.340141599997878]";570.3584098999854;None;;;S11554;2022_Jul_01_1233;VideoMask;2021.1.2;119.97039147298824;
7.0;m;027_o_m_h_a.jpg;happy;9.0;sad_117.1.wmv;sad;7.0;incongruent;120.0;160.0;181.28665202824095;h_s;;;;;0;44;44;44;;;;;;;573.3583947999869;None;575.0831400000025;575.399903499987;576.5336272998247;576.5581282998901;578.533152599819;None;7;0;0.4214160998817533;578.533152599819;None;;;;;;;;3;;;;;;;580.0830929998774;None;None;None;[];580.0830929998774;None;"['7', '7']";"[0.4633625999558717, 0.7754685000982136]";580.0830929998774;None;;;S11554;2022_Jul_01_1233;VideoMask;2021.1.2;119.97039147298824;
3.0;m;033_o_m_s_a.jpg;sad;7.0;happy_126.3.wmv;happy;9.0;incongruent;130.0;150.0;198.85252030535366;s_h;;;;;0;45;45;45;;;;;;;583.0915031998884;None;584.9495521998033;585.2661935999058;586.399433999788;586.4244650998153;588.3995192998555;None;9;0;0.6910019998904318;588.3995192998555;None;;;;;;;;7;;;;;;;589.9494235999882;None;None;None;[];589.9494235999882;None;"['9', '9']";"[0.34096599998883903, 0.6530077999923378]";589.9494235999882;None;;;S11554;2022_Jul_01_1233;VideoMask;2021.1.2;119.97039147298824;
3.0;m;033_o_m_h_a.jpg;happy;9.0;sad_136.1.wmv;sad;7.0;incongruent;120.0;160.0;176.97002883463455;h_s;;;;;0;46;46;46;;;;;;;592.9578561999369;None;594.6324512998108;594.949267799966;596.0743572998326;596.0907867997885;598.0826130998321;None;7;0;1.1599598999600857;598.0826130998321;None;;;;;;;;3;;;;;;;599.6324784997851;None;None;None;[];599.6324784997851;None;"['7', '7', '7']";"[0.47419629991054535, 0.8180792999919504, 1.2740998999215662]";599.6324784997851;None;;;S11554;2022_Jul_01_1233;VideoMask;2021.1.2;119.97039147298824;
9.0;f;019_m_f_h_a.jpg;happy;9.0;happy_10.1ns.avi;happy;9.0;congruent;120.0;150.0;157.2463435658512;h_h;;;;;0;47;47;47;;;;;;;602.640743299853;None;604.1655732998624;604.4822996999137;605.6157087997999;605.6322870999575;613.0737189999782;None;9;0;0.4728727999608964;613.0737189999782;None;;;;;;;;7;;;;;;;614.6236652999651;None;None;None;[];614.6236652999651;None;"['9', '9']";"[0.4429105999879539, 0.762877400033176]";614.6236652999651;None;;;S11554;2022_Jul_01_1233;VideoMask;2021.1.2;119.97039147298824;
2.0;f;012_o_f_h_a.jpg;happy;9.0;happy_2.2ns.avi;happy;9.0;congruent;120.0;150.0;206.34800317295262;h_h;;;;;0;48;48;48;;;;;;;617.6237338997889;None;619.5817012998741;619.8984260999132;621.0568388998508;621.0734281998593;633.2317645999137;None;9;0;0.4508092999458313;633.2317645999137;None;;;;;;;;8;;;;;;;634.7896392999683;None;None;None;[];634.7896392999683;None;"['9', '9', '9']";"[0.3572794001083821, 0.6208641999401152, 0.9171518001239747]";634.7896392999683;None;;;S11554;2022_Jul_01_1233;VideoMask;2021.1.2;119.97039147298824;
3.0;m;033_o_m_h_a.jpg;happy;9.0;happy_24.2ns.avi;happy;9.0;congruent;120.0;150.0;167.9423847659953;h_h;;;;;0;49;49;49;;;;;;;637.7896358999424;None;639.3811226999387;639.6978102999274;640.8562186998315;640.8728479999118;644.5560190998949;None;9;0;0.574631999945268;644.5560190998949;None;;;;;;;;9;;;;;;;646.106010899879;None;None;None;[];646.106010899879;None;"['9', '9', '9', '9', '9']";"[0.3525169000495225, 0.5764365000650287, 0.8965120001230389, 1.184622999979183, 1.496593900024891]";646.106010899879;None;;;S11554;2022_Jul_01_1233;VideoMask;2021.1.2;119.97039147298824;
1.0;f;021_o_f_s_a.jpg;sad;7.0;happy_61.2ns.avi;happy;9.0;incongruent;130.0;150.0;210.94664004826666;s_h;;;;;0;50;50;50;;;;;;;649.1144092998002;None;651.0640652999282;651.3808130999096;652.5725060999393;652.5891445998568;657.0389089998789;None;9;0;0.5076950001530349;657.0389089998789;None;;;;;;;;6;;;;;;;658.5889067999087;None;None;None;[];658.5889067999087;None;['9'];[0.3736922999378294];658.5889067999087;None;;;S11554;2022_Jul_01_1233;VideoMask;2021.1.2;119.97039147298824;
4.0;m;004_o_m_s_a.jpg;sad;7.0;sad_2.4ns.avi;sad;7.0;congruent;130.0;160.0;153.02079367163634;s_s;;;;;0;51;51;51;;;;;;;661.5888940999284;None;663.0886946998071;663.4054352999665;664.5811319998465;664.6137494998984;672.5049798998516;None;7;0;0.5375079000368714;672.5049798998516;None;;;;;;;;2;;;;;;;674.0551465998869;None;None;None;[];674.0551465998869;None;"['7', '7', '7']";"[0.475168599979952, 0.7632283999118954, 1.0754777998663485]";674.0551465998869;None;;;S11554;2022_Jul_01_1233;VideoMask;2021.1.2;119.97039147298824;
8.0;m;008_y_m_h_a.jpg;happy;9.0;happy_1.2ns.avi;happy;9.0;congruent;120.0;150.0;210.98946429383824;h_h;;;;;0;52;52;52;;;;;;;677.063360599801;None;679.0714830998331;679.3881444998551;680.5549700998235;680.5722333998419;693.3129620999098;None;9;0;0.46552969980984926;693.3129620999098;None;;;;;;;;8;;;;;;;694.862798999995;None;None;None;[];694.862798999995;None;"['9', '9', '9']";"[0.33983270009048283, 0.6036617001518607, 0.9155689000617713]";694.862798999995;None;;;S11554;2022_Jul_01_1233;VideoMask;2021.1.2;119.97039147298824;
2.0;f;012_o_f_s_a.jpg;sad;7.0;happy_52.2ns.avi;happy;9.0;incongruent;130.0;150.0;172.57202848318138;s_h;;;;;0;53;53;53;;;;;;;697.8712176999543;None;699.4958156999201;699.8126336999703;701.0209579998627;701.0373725998215;704.4956862998661;None;9;0;0.4268723998684436;704.4956862998661;None;;;;;;;;9;;;;;;;706.0457504999358;None;None;None;[];706.0457504999358;None;"['9', '9', '9', '9', '9', '9']";"[0.2688480999786407, 0.5888066000770777, 0.8847364999819547, 1.1809431000147015, 1.484705900074914, 1.9167297000531107]";706.0457504999358;None;;;S11554;2022_Jul_01_1233;VideoMask;2021.1.2;119.97039147298824;
9.0;f;019_m_f_s_a.jpg;sad;7.0;happy_61.1ns.avi;happy;9.0;incongruent;130.0;150.0;181.3003220572762;s_h;;;;;0;54;54;54;;;;;;;709.054120699875;None;710.7873299999628;711.1038423997816;712.2787064998411;712.2955723998602;719.628710199846;None;9;0;0.3497403000947088;719.628710199846;None;;;;;;;;5;;;;;;;721.1786373998038;None;None;None;[];721.1786373998038;None;None;;721.1786373998038;None;;;S11554;2022_Jul_01_1233;VideoMask;2021.1.2;119.97039147298824;
0.0;f;030_o_f_h_a.jpg;happy;9.0;sad_133.1.wmv;sad;7.0;incongruent;120.0;160.0;198.86251500867985;h_s;;;;;0;55;55;55;;;;;;;724.1951194999274;None;726.0617279999424;726.3784080999903;727.5118336998858;727.5283452998847;729.5118419998325;None;7;0;0.9067168000619859;729.5118419998325;None;;;;;;;;4;;;;;;;731.069903699914;None;None;None;[];731.069903699914;None;['7'];[0.30073029990307987];731.069903699914;None;;;S11554;2022_Jul_01_1233;VideoMask;2021.1.2;119.97039147298824;
0.0;f;040_y_f_h_a.jpg;happy;9.0;sad_128.2.wmv;sad;7.0;incongruent;120.0;160.0;206.10005857915363;h_s;;;;;0;56;56;56;;;;;;;734.0699000000022;None;735.994741999777;736.3113371999934;737.453064999776;737.4697702999692;739.4447404998355;None;7;0;0.373778099892661;739.4447404998355;None;;;;;;;;3;;;;;;;740.9946684997994;None;None;None;[];740.9946684997994;None;"['7', '7']";"[0.29581280006095767, 0.6159389000386]";740.9946684997994;None;;;S11554;2022_Jul_01_1233;VideoMask;2021.1.2;119.97039147298824;
1.0;f;021_o_f_s_a.jpg;sad;7.0;sad_9.5ns.avi;sad;7.0;congruent;130.0;160.0;206.16642757875042;s_s;;;;;0;57;57;57;;;;;;;744.0030053998344;None;745.9277756998781;746.2444968000054;747.3859575998504;747.4027298998553;753.1026122998446;None;7;0;0.36402769992128015;753.1026122998446;None;;;;;;;;2;;;;;;;754.6525767999701;None;None;None;[];754.6525767999701;None;"['7', '7', '7', '7']";"[0.28579599992372096, 0.6140838998835534, 0.9183473999146372, 1.2458287999033928]";754.6525767999701;None;;;S11554;2022_Jul_01_1233;VideoMask;2021.1.2;119.97039147298824;
1.0;f;021_o_f_h_a.jpg;happy;9.0;happy_12.1ns.avi;happy;9.0;congruent;120.0;150.0;132.59080005900228;h_h;;;;;0;58;58;58;;;;;;;757.6524949998129;None;758.9771427998785;759.2941214998718;760.4361304999329;760.4527888000011;768.0438843998127;None;9;0;0.38267230009660125;768.0438843998127;None;;;;;;;;9;;;;;;;769.5937260999344;None;None;None;[];769.5937260999344;None;"['9', '9', '9', '9', '9']";"[0.23296880000270903, 0.4966814999934286, 0.7767572000157088, 1.0810384999495, 1.3767411999870092]";769.5937260999344;None;;;S11554;2022_Jul_01_1233;VideoMask;2021.1.2;119.97039147298824;
3.0;m;013_y_m_s_a.jpg;sad;7.0;happy_56.2ns.avi;happy;9.0;incongruent;130.0;150.0;163.39234110935848;s_h;;;;;0;59;59;59;;;;;;;772.5938461998012;None;774.1601581999566;774.4768747999333;775.6269171999302;775.6435740999877;780.6351151999552;None;9;0;0.40740859997458756;780.6351151999552;None;;;;;;;;7;;;;;;;782.201714299852;None;None;None;[];782.201714299852;None;"['9', '9']";"[0.2411475998815149, 0.5447273999452591]";782.201714299852;None;;;S11554;2022_Jul_01_1233;VideoMask;2021.1.2;119.97039147298824;
;;;;;;;;;;;;;;;;;;;;;;;;;;;;;;;;;;;;;;;;;;;;;;;;;;;;;;;;;;;;;;;;;785.2100073997863;None;;;;;;
