primePerson;primeGender;prime;primeEmotion;corrAnsPrime;target;targetEmotion;corrAnsTar;Cond;ID_Primer;ID_Target;JitterTime;Condition;example.thisRepN;example.thisTrialN;example.thisN;example.thisIndex;study.thisRepN;study.thisTrialN;study.thisN;study.thisIndex;MR_trigger_time;MR_trigger_number;text_intro.started;text_intro.stopped;text_probe.started;text_probe.stopped;polygon_ISI.started;polygon_ISI.stopped;polygon.started;polygon.stopped;primerImage.started;primerImage.stopped;response.started;response.stopped;key_resp.keys;key_resp.corr;key_resp.started;key_resp.stopped;slider_Text.started;slider_Text.stopped;slider_ex.response;slider_ex.rt;slider_ex.history;slider_ex.started;slider_ex.stopped;Rating;slider_resp_response.keys;slider_resp_response.started;slider_resp_response.stopped;text_start.started;text_start.stopped;text_slider.started;text_slider.stopped;slider_stud.response;slider_stud.rt;slider_stud.history;slider_stud.started;slider_stud.stopped;slider_resp_study.keys;slider_resp_study.rt;slider_resp_study.started;slider_resp_study.stopped;key_resp.rt;text_ende.started;text_ende.stopped;participant;date;expName;psychopyVersion;frameRate;
1111;m;1111_m_m_h_a.jpg;happy;9;example_30.4ns.avi;neutral;7;incongruent;120.0;170.0;189.5874364012288;;0;0;0;0;;;;;53.96821349998936;1;54.045554599986644;56.045772499986924;56.045772499986924;None;58.07901069999207;None;60.33715549999033;60.67125759998453;61.86225710000144;61.87900659997831;66.12882019998506;None;None;0;66.12882019998506;None;67.69519470000523;None;None;None;[];67.69519470000523;None;5;None;67.69519470000523;None;;;;;;;;;;;;;;;;;S11161;2022_Jan_21_1221;VideoMask;2021.1.2;119.99011283719713;
1113;f;1113_y_f_s_a.jpg;sad;7;example_30.3ns.avi;neutral;7;incongruent;130.0;170.0;229.02432995836998;;0;1;1;1;;;;;;;;;;;70.71201849999488;None;72.82857689997763;73.1451728999964;74.28692389998469;74.30357200000435;76.29511989999446;None;None;0;76.29511989999446;None;77.84494310000446;None;None;None;[];77.84494310000446;None;5;None;77.84494310000446;None;;;;;;;;;;;;;;;;;S11161;2022_Jan_21_1221;VideoMask;2021.1.2;119.99011283719713;
9.0;f;019_m_f_h_a.jpg;happy;9.0;sad_115.1.wmv;sad;7.0;incongruent;120.0;160.0;128.09063432376465;h_s;;;;;0;0;0;0;;;;;;;81.89500789999147;None;83.16975479997927;83.48654630000237;84.63656019998598;84.65323100000387;86.61985580000328;None;None;0;86.61985580000328;None;;;;;;;;4;;;;80.87001929999678;None;88.16956239999854;None;None;None;[];88.16956239999854;None;['7'];[0.12598459998844191];88.16956239999854;None;;;;S11161;2022_Jan_21_1221;VideoMask;2021.1.2;119.99011283719713;
3.0;m;033_o_m_s_a.jpg;sad;7.0;sad_94.2ns.avi;sad;7.0;congruent;130.0;160.0;182.29120173647655;s_s;;;;;0;1;1;1;;;;;;;91.18661559998873;None;92.92787139999564;93.24458860000595;94.42793399997754;94.44461669999873;97.06953079998493;None;None;0;97.06953079998493;None;;;;;;;;5;;;;;;98.61953709999216;None;None;None;[];98.61953709999216;None;None;;98.61953709999216;None;;;;S11161;2022_Jan_21_1221;VideoMask;2021.1.2;119.99011283719713;
8.0;m;008_y_m_h_a.jpg;happy;9.0;happy_26.1ns.avi;happy;9.0;congruent;120.0;150.0;155.9437854594882;h_h;;;;;0;2;2;2;;;;;;;101.65280749998055;None;103.16925380000612;103.48593490000349;104.66933129998506;104.68593389997841;106.6109848000051;None;9;0;106.6109848000051;None;;;;;;;;9;;;;;;108.16088729997864;None;None;None;[];108.16088729997864;None;"['9', '9', '9', '9']";"[0.9024581999983639, 1.2462734000000637, 1.662273699999787, 1.9660957000160124]";108.16088729997864;None;0.404088099981891;;;S11161;2022_Jan_21_1221;VideoMask;2021.1.2;119.99011283719713;
0.0;f;040_y_f_h_a.jpg;happy;9.0;sad_138.1.wmv;sad;7.0;incongruent;120.0;160.0;133.99071306426532;h_s;;;;;0;3;3;3;;;;;;;111.16932449999149;None;112.50220369998715;112.81901259999722;113.95242339998367;113.96901499998057;115.95233209998696;None;None;0;115.95233209998696;None;;;;;;;;5;;;;;;117.50209589998121;None;None;None;[];117.50209589998121;None;None;;117.50209589998121;None;;;;S11161;2022_Jan_21_1221;VideoMask;2021.1.2;119.99011283719713;
8.0;f;028_y_f_s_a.jpg;sad;7.0;sad_64.2ns.avi;sad;7.0;congruent;130.0;160.0;229.88540597086478;s_s;;;;;0;4;4;4;;;;;;;120.51879030000418;None;122.72713270000531;123.04369130000123;124.23541269998532;124.25206699999399;135.17691919999197;None;7;0;135.17691919999197;None;;;;;;;;4;;;;;;136.7267409999913;None;None;None;[];136.7267409999913;None;['7'];[1.3525818000198342];136.7267409999913;None;0.9101758000033442;;;S11161;2022_Jan_21_1221;VideoMask;2021.1.2;119.99011283719713;
7.0;m;027_o_m_s_a.jpg;sad;7.0;sad_10.4ns.avi;sad;7.0;congruent;130.0;160.0;185.20129417468752;s_s;;;;;0;5;5;5;;;;;;;139.7267004000023;None;141.47651869998663;141.79315459998907;143.02654140000232;143.0431408000004;146.09311210000305;None;7;0;146.09311210000305;None;;;;;;;;2;;;;;;147.6430088999914;None;None;None;[];147.6430088999914;None;"['7', '7', '7']";"[1.1403863999876194, 1.4602266000001691, 1.828356599988183]";147.6430088999914;None;0.9299457000161055;;;S11161;2022_Jan_21_1221;VideoMask;2021.1.2;119.99011283719713;
2.0;f;012_o_f_s_a.jpg;sad;7.0;sad_7.5ns.avi;sad;7.0;congruent;130.0;160.0;220.27842655424388;s_s;;;;;0;6;6;6;;;;;;;150.65135519998148;None;152.69280369998887;153.00948759997846;154.1843169000058;154.20101570000406;156.93465129999095;None;7;0;156.93465129999095;None;;;;;;;;4;;;;;;158.48438989999704;None;None;None;[];158.48438989999704;None;['7'];[1.4029340000124648];158.48438989999704;None;1.0644258999964222;;;S11161;2022_Jan_21_1221;VideoMask;2021.1.2;119.99011283719713;
2.0;f;012_o_f_h_a.jpg;happy;9.0;happy_27.1ns.avi;happy;9.0;congruent;120.0;150.0;146.44967055810616;h_h;;;;;0;7;7;7;;;;;;;161.48439870000584;None;162.9175069000048;163.23418679999304;164.42555610000272;164.44258519998402;166.85928269999567;None;9;0;166.85928269999567;None;;;;;;;;9;;;;;;168.409127299994;None;None;None;[];168.409127299994;None;"['9', '9', '9', '9']";"[0.3503342000185512, 0.5901250000169966, 0.7979095000191592, 0.9577636000176426]";168.409127299994;None;1.067938599997433;;;S11161;2022_Jan_21_1221;VideoMask;2021.1.2;119.99011283719713;
8.0;f;028_y_f_h_a.jpg;happy;9.0;sad_119.1.wmv;sad;7.0;incongruent;120.0;160.0;148.71526953572538;h_s;;;;;0;8;8;8;;;;;;;171.40909219998866;None;172.85888449999038;173.17548700000043;174.3180744999845;174.34225600000354;176.3755414999905;None;7;0;176.3755414999905;None;;;;;;;;5;;;;;;177.92548959999112;None;None;None;[];177.92548959999112;None;None;;177.92548959999112;None;0.8798618000000715;;;S11161;2022_Jan_21_1221;VideoMask;2021.1.2;119.99011283719713;
6.0;m;016_y_m_s_a.jpg;sad;7.0;happy_60.4ns.avi;happy;9.0;incongruent;130.0;150.0;126.02367393611817;s_h;;;;;0;9;9;9;;;;;;;180.9502707000065;None;182.25898290000623;182.57525039999746;183.7503432999947;183.76698109999415;189.5000691000023;None;9;0;189.5000691000023;None;;;;;;;;8;;;;;;191.05009579999023;None;None;None;[];191.05009579999023;None;"['9', '9', '9']";"[0.4371441999974195, 0.765190399979474, 1.309551799990004]";191.05009579999023;None;0.4433439999993425;;;S11161;2022_Jan_21_1221;VideoMask;2021.1.2;119.99011283719713;
9.0;f;019_m_f_s_a.jpg;sad;7.0;sad_8.4ns.avi;sad;7.0;congruent;130.0;160.0;171.6633093155257;s_s;;;;;0;10;10;10;;;;;;;194.05015480000293;None;195.74136439998983;196.05829869999434;197.19160769999144;197.20825799999875;205.32472720000078;None;7;0;205.32472720000078;None;;;;;;;;5;;;;;;206.87464460000047;None;None;None;[];206.87464460000047;None;"['7', '9']";"[1.556772700016154, 2.404661800013855]";206.87464460000047;None;0.9227751999860629;;;S11161;2022_Jan_21_1221;VideoMask;2021.1.2;119.99011283719713;
4.0;m;004_o_m_h_a.jpg;happy;9.0;happy_1.1ns.avi;happy;9.0;congruent;120.0;150.0;203.50057144619865;h_h;;;;;0;11;11;11;;;;;;;209.8746567000053;None;211.85766189999413;212.1744206000003;213.32447379999212;213.34111419998226;227.7990576000011;None;9;0;227.7990576000011;None;;;;;;;;5;;;;;;229.34063459999743;None;None;None;[];229.34063459999743;None;None;;229.34063459999743;None;1.160212299990235;;;S11161;2022_Jan_21_1221;VideoMask;2021.1.2;119.99011283719713;
7.0;m;027_o_m_h_a.jpg;happy;9.0;happy_20.1ns.avi;happy;9.0;congruent;120.0;150.0;152.91127178874285;h_h;;;;;0;12;12;12;;;;;;;232.3572537;None;233.85707739999634;234.1736566000036;235.3070289999887;235.32378740000422;238.32373189998907;None;9;0;238.32373189998907;None;;;;;;;;7;;;;;;239.873677399999;None;None;None;[];239.873677399999;None;"['9', '9', '9']";"[0.6857819000142626, 0.9417378000216559, 1.5414165000256617]";239.873677399999;None;0.7876135999977123;;;S11161;2022_Jan_21_1221;VideoMask;2021.1.2;119.99011283719713;
0.0;f;040_y_f_s_a.jpg;sad;7.0;sad_94.3ns.avi;sad;7.0;congruent;130.0;160.0;155.27414203894395;s_s;;;;;0;13;13;13;;;;;;;242.8820749000006;None;244.3984511999879;244.71508510000422;245.87320000000182;245.88999429999967;248.47351129999151;None;7;0;248.47351129999151;None;;;;;;;;5;;;;;;250.02336550000473;None;None;None;[];250.02336550000473;None;None;;250.02336550000473;None;0.9094699999841396;;;S11161;2022_Jan_21_1221;VideoMask;2021.1.2;119.99011283719713;
0.0;f;030_o_f_s_a.jpg;sad;7.0;sad_68.1ns.avi;sad;7.0;congruent;130.0;160.0;158.9411396037211;s_s;;;;;0;14;14;14;;;;;;;253.04811000000336;None;254.62325909998617;254.93986729998142;256.11550069999066;256.1402078999963;263.49786979999044;None;7;0;263.49786979999044;None;;;;;;;;4;;;;;;265.04781119999825;None;None;None;[];265.04781119999825;None;['7'];[0.9994949999963865];265.04781119999825;None;0.7816138000052888;;;S11161;2022_Jan_21_1221;VideoMask;2021.1.2;119.99011283719713;
0.0;f;030_o_f_h_a.jpg;happy;9.0;sad_127.1.wmv;sad;7.0;incongruent;120.0;160.0;180.59976631384873;h_s;;;;;0;15;15;15;;;;;;;268.0479717999988;None;269.78097900000284;270.0976182000013;271.22280180000234;271.23944429997937;273.2310102999909;None;7;0;273.2310102999909;None;;;;;;;;5;;;;;;274.7809479999996;None;None;None;[];274.7809479999996;None;None;;274.7809479999996;None;0.9524108000041451;;;S11161;2022_Jan_21_1221;VideoMask;2021.1.2;119.99011283719713;
8.0;m;008_y_m_s_a.jpg;sad;7.0;happy_133.3.wmv;happy;9.0;incongruent;130.0;150.0;152.577966552593;s_h;;;;;0;16;16;16;;;;;;;277.7975349999906;None;279.280692899978;279.59737380000297;280.7225395999849;280.73909529999946;282.73074679999263;None;9;0;282.73074679999263;None;;;;;;;;6;;;;;;284.2806753999903;None;None;None;[];284.2806753999903;None;['9'];[1.4708856000215746];284.2806753999903;None;0.9245823000092059;;;S11161;2022_Jan_21_1221;VideoMask;2021.1.2;119.99011283719713;
3.0;m;033_o_m_h_a.jpg;happy;9.0;sad_128.1.wmv;sad;7.0;incongruent;120.0;160.0;171.0492454518585;h_s;;;;;0;17;17;17;;;;;;;287.28895550000016;None;288.9471305999905;289.26383579999674;290.3971047999803;290.41365509998286;292.397183699999;None;7;0;292.397183699999;None;;;;;;;;4;;;;;;293.9470301999827;None;None;None;[];293.9470301999827;None;['7'];[2.7005475999903865];293.9470301999827;None;1.1061009999830276;;;S11161;2022_Jan_21_1221;VideoMask;2021.1.2;119.99011283719713;
1.0;f;021_o_f_h_a.jpg;happy;9.0;sad_116.1.wmv;sad;7.0;incongruent;120.0;160.0;184.06847610053055;h_s;;;;;0;18;18;18;;;;;;;296.9469576999836;None;298.7051857000042;299.0218593000027;300.155608400004;300.1806234999967;302.16350039999816;None;7;0;302.16350039999816;None;;;;;;;;3;;;;;;303.71344959997805;None;None;None;[];303.71344959997805;None;"['7', '7']";"[0.9099734000046737, 1.3819681000022683]";303.71344959997805;None;0.7719294000125956;;;S11161;2022_Jan_21_1221;VideoMask;2021.1.2;119.99011283719713;
4.0;m;004_o_m_s_a.jpg;sad;7.0;happy_28.1ns.avi;happy;9.0;incongruent;130.0;150.0;157.40741103039684;s_h;;;;;0;19;19;19;;;;;;;306.7134357999894;None;308.2632179999782;308.5799720999785;309.72997319998103;309.7463964000053;314.1048014999833;None;9;0;314.1048014999833;None;;;;;;;;9;;;;;;315.65476659999695;None;None;None;[];315.65476659999695;None;"['9', '9', '9', '9', '9']";"[0.31250669999280944, 0.5445257999817841, 0.736531999980798, 0.9284574999765027, 1.3046245999867097]";315.65476659999695;None;0.32661290001124144;;;S11161;2022_Jan_21_1221;VideoMask;2021.1.2;119.99011283719713;
8.0;f;028_y_f_s_a.jpg;sad;7.0;happy_122.3.wmv;happy;9.0;incongruent;130.0;150.0;171.8670540936116;s_h;;;;;0;20;20;20;;;;;;;318.65474430000177;None;320.3211737999809;320.6378703999799;321.7711925999902;321.78769909997936;323.7711859999981;None;9;0;323.7711859999981;None;;;;;;;;9;;;;;;325.32111600000644;None;None;None;[];325.32111600000644;None;"['9', '9', '9', '9']";"[0.35828099999343976, 0.5822200000111479, 0.7740854999865405, 1.286301399988588]";325.32111600000644;None;0.5722194999980275;;;S11161;2022_Jan_21_1221;VideoMask;2021.1.2;119.99011283719713;
8.0;m;008_y_m_s_a.jpg;sad;7.0;sad_6.5ns.avi;sad;7.0;congruent;130.0;160.0;170.39333839271438;s_s;;;;;0;21;21;21;;;;;;;328.3210474999796;None;329.9708652999834;330.2876469999901;331.4876863999816;331.5041022999794;336.4209667999821;None;7;0;336.4209667999821;None;;;;;;;;3;;;;;;337.9707881999784;None;None;None;[];337.9707881999784;None;"['7', '7']";"[0.3404689999879338, 0.72456040000543]";337.9707881999784;None;0.6824252000078559;;;S11161;2022_Jan_21_1221;VideoMask;2021.1.2;119.99011283719713;
8.0;f;028_y_f_h_a.jpg;happy;9.0;happy_23.1ns.avi;happy;9.0;congruent;120.0;150.0;225.70986890587952;h_h;;;;;0;22;22;22;;;;;;;340.97918579998077;None;343.0621842999826;343.37893789997906;344.57047789997887;344.5870603999938;349.0871993000037;None;9;0;349.0871993000037;None;;;;;;;;9;;;;;;350.6370320999995;None;None;None;[];350.6370320999995;None;"['9', '9', '9', '9', '9']";"[0.25023599999258295, 0.522238000005018, 0.7862254999927245, 1.1544760999968275, 1.554290400003083]";350.6370320999995;None;0.6481801000190899;;;S11161;2022_Jan_21_1221;VideoMask;2021.1.2;119.99011283719713;
8.0;m;008_y_m_h_a.jpg;happy;9.0;sad_111.1.wmv;sad;7.0;incongruent;120.0;160.0;152.63076835312847;h_s;;;;;0;23;23;23;;;;;;;353.6370625999989;None;355.1368100999971;355.45352300000377;356.58686489998945;356.60350589998416;358.58680980000645;None;7;0;358.58680980000645;None;;;;;;;;2;;;;;;360.13679669998237;None;None;None;[];360.13679669998237;None;"['7', '7', '7']";"[0.39055340000777505, 0.6866482000041287, 1.4867967999889515]";360.13679669998237;None;0.7406740000005811;;;S11161;2022_Jan_21_1221;VideoMask;2021.1.2;119.99011283719713;
0.0;f;040_y_f_s_a.jpg;sad;7.0;sad_67.2ns.avi;sad;7.0;congruent;130.0;160.0;220.9892697323079;s_s;;;;;0;24;24;24;;;;;;;363.13677630000166;None;365.2365648999985;365.5532148999919;366.6865012999915;366.7032483999792;375.91130619999603;None;7;0;375.91130619999603;None;;;;;;;;1;;;;;;377.46126409998396;None;None;None;[];377.46126409998396;None;"['7', '7', '7', '7']";"[0.44245949998730794, 0.6660091000085231, 0.8500365999934729, 1.0420483000052627]";377.46126409998396;None;0.42412310000509024;;;S11161;2022_Jan_21_1221;VideoMask;2021.1.2;119.99011283719713;
8.0;m;008_y_m_s_a.jpg;sad;7.0;happy_29.1ns.avi;happy;9.0;incongruent;130.0;150.0;120.0316142834122;s_h;;;;;0;25;25;25;;;;;;;380.46118579999893;None;381.6944697999861;382.0111068999977;383.15279920000467;383.16944669999066;385.83600769998156;None;9;0;385.83600769998156;None;;;;;;;;8;;;;;;387.3943351999915;None;None;None;[];387.3943351999915;None;"['9', '9', '9']";"[0.33294500000192784, 0.6371217999840155, 1.005235199991148]";387.3943351999915;None;0.811448799999198;;;S11161;2022_Jan_21_1221;VideoMask;2021.1.2;119.99011283719713;
6.0;m;016_y_m_s_a.jpg;sad;7.0;sad_8.3ns.avi;sad;7.0;congruent;130.0;160.0;152.85371098242734;s_s;;;;;0;26;26;26;;;;;;;390.39436939998996;None;391.92741549998755;392.2440789999964;393.3940437999845;393.4108181000047;401.13558539998485;None;7;0;401.13558539998485;None;;;;;;;;4;;;;;;402.7188571000006;None;None;None;[];402.7188571000006;None;['7'];[0.6725585000240244];402.7188571000006;None;0.9764176999742631;;;S11161;2022_Jan_21_1221;VideoMask;2021.1.2;119.99011283719713;
6.0;m;016_y_m_h_a.jpg;happy;9.0;sad_114.1.wmv;sad;7.0;incongruent;120.0;160.0;136.20550699298644;h_s;;;;;0;27;27;27;;;;;;;405.7187886000029;None;407.0686429000052;407.3853165000037;408.5353562999808;408.5520155999984;410.51864729999215;None;7;0;410.51864729999215;None;;;;;;;;2;;;;;;412.0685764999944;None;None;None;[];412.0685764999944;None;"['7', '7', '7']";"[0.3709662000183016, 0.6588676999963354, 1.0429762999992818]";412.0685764999944;None;0.5607924000069033;;;S11161;2022_Jan_21_1221;VideoMask;2021.1.2;119.99011283719713;
7.0;m;027_o_m_s_a.jpg;sad;7.0;happy_117.3.wmv;happy;9.0;incongruent;130.0;150.0;215.61964028550614;s_h;;;;;0;28;28;28;;;;;;;415.0685889000015;None;417.08492289998685;417.40161380000063;418.5267204999982;418.5433947999845;420.5349905999901;None;9;0;420.5349905999901;None;;;;;;;;8;;;;;;422.1016594999819;None;None;None;[];422.1016594999819;None;"['9', '9', '9']";"[0.42578239997965284, 0.7299914000032004, 1.0977304999832995]";422.1016594999819;None;0.9045989000005648;;;S11161;2022_Jan_21_1221;VideoMask;2021.1.2;119.99011283719713;
6.0;m;016_y_m_h_a.jpg;happy;9.0;happy_9.2ns.avi;happy;9.0;congruent;120.0;150.0;130.52042428082717;h_h;;;;;0;29;29;29;;;;;;;425.1100219999789;None;426.4431500000064;426.7597453999915;427.90983399999095;427.9264187999943;433.81788600000436;None;9;0;433.81788600000436;None;;;;;;;;9;;;;;;435.3677944999945;None;None;None;[];435.3677944999945;None;"['9', '9', '9', '9', '9']";"[0.43953940001665615, 0.70347100001527, 0.9677481000253465, 1.3436439000070095, 1.8477945000049658]";435.3677944999945;None;0.46166589998756535;;;S11161;2022_Jan_21_1221;VideoMask;2021.1.2;119.99011283719713;
0.0;f;040_y_f_s_a.jpg;sad;7.0;happy_127.3.wmv;happy;9.0;incongruent;130.0;150.0;131.7195455720239;s_h;;;;;0;30;30;30;;;;;;;438.37613879999844;None;439.69283329998143;440.0093846999807;441.1345027999778;441.1510441999999;443.2093271999911;None;9;0;443.2093271999911;None;;;;;;;;8;;;;;;444.75921409999137;None;None;None;[];444.75921409999137;None;"['9', '9', '9']";"[0.3284233000013046, 0.8243866999982856, 1.192137099977117]";444.75921409999137;None;0.7021615999983624;;;S11161;2022_Jan_21_1221;VideoMask;2021.1.2;119.99011283719713;
0.0;f;030_o_f_s_a.jpg;sad;7.0;happy_125.3.wmv;happy;9.0;incongruent;130.0;150.0;220.51454909128134;s_h;;;;;0;31;31;31;;;;;;;447.75932260000263;None;449.82567469999776;450.142388999986;451.2763466000033;451.3007715999847;453.2756851000013;None;9;0;453.2756851000013;None;;;;;;;;9;;;;;;454.8256088999915;None;None;None;[];454.8256088999915;None;"['9', '9', '9', '9', '9']";"[0.22995050001190975, 0.47780440002679825, 0.7018512000213377, 1.0459401000116486, 1.8620317000022624]";454.8256088999915;None;0.6676881999883335;;;S11161;2022_Jan_21_1221;VideoMask;2021.1.2;119.99011283719713;
0.0;f;030_o_f_s_a.jpg;sad;7.0;sad_64.3ns.avi;sad;7.0;congruent;130.0;160.0;165.78667874766072;s_s;;;;;0;32;32;32;;;;;;;457.82555519999005;None;459.4253114000021;459.74210639999365;460.8671367999923;460.8837904999964;465.8759824000008;None;7;0;465.8759824000008;None;;;;;;;;2;;;;;;467.62523400000646;None;None;None;[];467.62523400000646;None;"['7', '7', '7']";"[0.47008530001039617, 0.7664520000107586, 1.1423018999921624]";467.62523400000646;None;0.9315071000019088;;;S11161;2022_Jan_21_1221;VideoMask;2021.1.2;119.99011283719713;
3.0;m;013_y_m_s_a.jpg;sad;7.0;sad_7.7ns.avi;sad;7.0;congruent;130.0;160.0;196.24182255763262;s_s;;;;;0;33;33;33;;;;;;;470.62519289998454;None;472.49159409999265;472.80833259999054;474.0000924000051;474.0166849999805;479.9499113000056;None;None;0;479.9499113000056;None;;;;;;;;4;;;;;;481.499920799979;None;None;None;[];481.499920799979;None;['7'];[0.731656899995869];481.499920799979;None;;;;S11161;2022_Jan_21_1221;VideoMask;2021.1.2;119.99011283719713;
3.0;m;013_y_m_h_a.jpg;happy;9.0;happy_9.1ns.avi;happy;9.0;congruent;120.0;150.0;165.1890303600433;h_h;;;;;0;34;34;34;;;;;;;484.4997882999887;None;486.1079804000037;486.4331971000065;487.6161127999949;487.6328789999825;490.79126899997937;None;9;0;490.79126899997937;None;;;;;;;;9;;;;;;492.3412214999844;None;None;None;[];492.3412214999844;None;"['9', '9', '9', '9']";"[0.27440569997997954, 0.5060323000070639, 0.9541986999975052, 1.3385536999849137]";492.3412214999844;None;0.7122165999899153;;;S11161;2022_Jan_21_1221;VideoMask;2021.1.2;119.99011283719713;
4.0;m;004_o_m_h_a.jpg;happy;9.0;sad_95.1ns.avi;sad;7.0;incongruent;120.0;160.0;152.68270002069931;h_s;;;;;0;35;35;35;;;;;;;495.34109430000535;None;496.882523999986;497.1992559999926;498.3327010999783;498.34944289998384;507.1242917999916;None;7;0;507.1242917999916;None;;;;;;;;1;;;;;;508.6824454999878;None;None;None;[];508.6824454999878;None;"['7', '7', '7', '7', '7']";"[0.28525300000910647, 0.5492828999995254, 0.8130964000010863, 1.053081900026882, 1.341049100010423]";508.6824454999878;None;0.45938910002587363;;;S11161;2022_Jan_21_1221;VideoMask;2021.1.2;119.99011283719713;
3.0;m;013_y_m_h_a.jpg;happy;9.0;sad_113.2.wmv;sad;7.0;incongruent;120.0;160.0;217.4973891947951;h_s;;;;;0;36;36;36;;;;;;;511.682364599983;None;513.7237693999778;514.0406272999826;515.1655780999863;515.1820346000022;517.1738068999839;None;8;0;517.1738068999839;None;;;;;;;;5;;;;;;518.7237673999916;None;None;None;[];518.7237673999916;None;None;;518.7237673999916;None;1.3458070999768097;;;S11161;2022_Jan_21_1221;VideoMask;2021.1.2;119.99011283719713;
4.0;m;004_o_m_h_a.jpg;happy;9.0;happy_25.1ns.avi;happy;9.0;congruent;120.0;150.0;216.63044503818386;h_h;;;;;0;37;37;37;;;;;;;521.748546399991;None;523.7900876999774;524.1068957999814;525.2736255000054;525.2902620999957;528.932070299983;None;9;0;528.932070299983;None;;;;;;;;9;;;;;;530.490052899986;None;None;None;[];530.490052899986;None;"['9', '9', '9', '9']";"[0.2537513999850489, 0.5253904999990482, 0.7815574999840464, 1.1416063999931794]";530.490052899986;None;0.4755199000064749;;;S11161;2022_Jan_21_1221;VideoMask;2021.1.2;119.99011283719713;
4.0;m;004_o_m_s_a.jpg;sad;7.0;happy_131.2.wmv;happy;9.0;incongruent;130.0;150.0;181.38407540847405;s_h;;;;;0;38;38;38;;;;;;;533.4984076999826;None;535.239857699984;535.5565332999977;536.6980890999839;536.7148751000059;538.6898786999809;None;9;0;538.6898786999809;None;;;;;;;;9;;;;;;540.6064555000048;None;None;None;[];540.6064555000048;None;"['9', '9', '9', '9', '9']";"[0.2252102000056766, 0.48090990001219325, 0.6890845000161789, 0.9850645000115037, 1.4090695999911986]";540.6064555000048;None;0.6141154999786522;;;S11161;2022_Jan_21_1221;VideoMask;2021.1.2;119.99011283719713;
0.0;f;040_y_f_h_a.jpg;happy;9.0;happy_24.3ns.avi;happy;9.0;congruent;120.0;150.0;213.25460698950434;h_h;;;;;0;39;39;39;;;;;;;543.6064664000005;None;545.5979019999795;545.9236712999991;547.0812278999947;547.0981325999892;548.9729599999846;None;9;0;548.9729599999846;None;;;;;;;;9;;;;;;550.5227827999915;None;None;None;[];550.5227827999915;None;"['9', '9', '9', '9', '9']";"[0.3412557999836281, 0.6367174999904819, 0.9006775000016205, 1.180769300000975, 1.5805362999963108]";550.5227827999915;None;0.4826918999897316;;;S11161;2022_Jan_21_1221;VideoMask;2021.1.2;119.99011283719713;
2.0;f;012_o_f_s_a.jpg;sad;7.0;happy_139.1.wmv;happy;9.0;incongruent;130.0;150.0;162.31500468041804;s_h;;;;;0;40;40;40;;;;;;;553.5228803000064;None;555.0892249000026;555.4059139000019;556.5397950999904;556.5643102999893;558.5392578000028;None;9;0;558.5392578000028;None;;;;;;;;9;;;;;;560.0892285000009;None;None;None;[];560.0892285000009;None;"['9', '9', '9', '9', '9', '9', '9']";"[0.2306442999979481, 0.4781821999931708, 0.7104686000093352, 1.1743023000017274, 1.4782839000108652, 1.9022140000015497, 2.350684500008356]";560.0892285000009;None;0.4524547999899369;;;S11161;2022_Jan_21_1221;VideoMask;2021.1.2;119.99011283719713;
0.0;f;030_o_f_h_a.jpg;happy;9.0;happy_24.1ns.avi;happy;9.0;congruent;120.0;150.0;168.36256624020774;h_h;;;;;0;41;41;41;;;;;;;563.0975499000051;None;564.7307715999777;565.0473510999873;566.2473368000065;566.2640233999991;569.5057133999944;None;9;0;569.5057133999944;None;;;;;;;;9;;;;;;571.0555378999852;None;None;None;[];571.0555378999852;None;"['9', '9', '9', '9', '9']";"[0.3520495000120718, 0.6239185000013094, 0.9200195999874268, 1.2239609000098426, 1.7520155000092927]";571.0555378999852;None;0.4857971000019461;;;S11161;2022_Jan_21_1221;VideoMask;2021.1.2;119.99011283719713;
2.0;f;012_o_f_h_a.jpg;happy;9.0;sad_113.1.wmv;sad;7.0;incongruent;120.0;160.0;177.44551734737394;h_s;;;;;0;42;42;42;;;;;;;574.0638315999822;None;575.747020699986;576.0636784999806;577.2052779999794;577.2220552999934;579.1969832000032;None;8;0;579.1969832000032;None;;;;;;;;5;;;;;;580.8802823000005;None;None;None;[];580.8802823000005;None;None;;580.8802823000005;None;1.0030931000073906;;;S11161;2022_Jan_21_1221;VideoMask;2021.1.2;119.99011283719713;
3.0;m;033_o_m_s_a.jpg;sad;7.0;sad_64.5ns.avi;sad;7.0;congruent;130.0;160.0;130.55717223801247;s_s;;;;;0;43;43;43;;;;;;;583.9050064999901;None;585.2551914999785;585.5716745999816;586.7717527000059;586.7882634999987;593.288422099984;None;7;0;593.288422099984;None;;;;;;;;1;;;;;;594.8881798999791;None;None;None;[];594.8881798999791;None;"['7', '7', '7', '7']";"[0.40757229999871925, 0.6392291999945883, 0.831304999999702, 1.023231700004544]";594.8881798999791;None;0.7358726000238676;;;S11161;2022_Jan_21_1221;VideoMask;2021.1.2;119.99011283719713;
7.0;m;027_o_m_h_a.jpg;happy;9.0;sad_117.1.wmv;sad;7.0;incongruent;120.0;160.0;181.28665202824095;h_s;;;;;0;44;44;44;;;;;;;597.8881089999923;None;599.621310699993;599.9378699999943;601.0963471999858;601.1128128999844;603.0712693999812;None;7;0;603.0712693999812;None;;;;;;;;2;;;;;;604.6129004999821;None;None;None;[];604.6129004999821;None;"['7', '7', '7']";"[0.4428470999991987, 0.6988689999852795, 1.0510115000070073]";604.6129004999821;None;0.8963668999786023;;;S11161;2022_Jan_21_1221;VideoMask;2021.1.2;119.99011283719713;
3.0;m;033_o_m_s_a.jpg;sad;7.0;happy_126.3.wmv;happy;9.0;incongruent;130.0;150.0;198.85252030535366;s_h;;;;;0;45;45;45;;;;;;;607.6297140999814;None;609.4959497999807;609.8127417999785;610.9457931999932;610.9625032999902;612.9460012000054;None;9;0;612.9460012000054;None;;;;;;;;7;;;;;;614.495906600001;None;None;None;[];614.495906600001;None;"['9', '9']";"[0.41592599998693913, 0.7679676999978255]";614.495906600001;None;0.9097059000050649;;;S11161;2022_Jan_21_1221;VideoMask;2021.1.2;119.99011283719713;
3.0;m;033_o_m_h_a.jpg;happy;9.0;sad_136.1.wmv;sad;7.0;incongruent;120.0;160.0;176.97002883463455;h_s;;;;;0;46;46;46;;;;;;;617.4958126999845;None;619.1873423999932;619.5125877999817;620.6375186999794;620.6541476999992;622.637304599979;None;None;0;622.637304599979;None;;;;;;;;5;;;;;;624.1871412000037;None;None;None;[];624.1871412000037;None;None;;624.1871412000037;None;;;;S11161;2022_Jan_21_1221;VideoMask;2021.1.2;119.99011283719713;
9.0;f;019_m_f_h_a.jpg;happy;9.0;happy_10.1ns.avi;happy;9.0;congruent;120.0;150.0;157.2463435658512;h_h;;;;;0;47;47;47;;;;;;;627.2205931000062;None;628.7872213999799;629.1037790999981;630.2372204999847;630.2538347999798;637.6958821000007;None;9;0;637.6958821000007;None;;;;;;;;6;;;;;;639.4118282999843;None;None;None;[];639.4118282999843;None;['9'];[0.2758183999976609];639.4118282999843;None;0.37588860001415014;;;S11161;2022_Jan_21_1221;VideoMask;2021.1.2;119.99011283719713;
2.0;f;012_o_f_h_a.jpg;happy;9.0;happy_2.2ns.avi;happy;9.0;congruent;120.0;150.0;206.34800317295262;h_h;;;;;0;48;48;48;;;;;;;642.4202235999983;None;644.403169600002;644.7199803999974;645.8617302000057;645.8782207999902;658.0619276999787;None;9;0;658.0619276999787;None;;;;;;;;7;;;;;;659.6529409999785;None;None;None;[];659.6529409999785;None;"['9', '9']";"[0.25072199999704026, 0.6345739999960642]";659.6529409999785;None;0.48973189998650923;;;S11161;2022_Jan_21_1221;VideoMask;2021.1.2;119.99011283719713;
3.0;m;033_o_m_h_a.jpg;happy;9.0;happy_24.2ns.avi;happy;9.0;congruent;120.0;150.0;167.9423847659953;h_h;;;;;0;49;49;49;;;;;;;662.6612811999803;None;664.2777453000017;664.5943924000021;665.7527992999821;665.7693992999848;669.4526659999974;None;9;0;669.4526659999974;None;;;;;;;;9;;;;;;671.0026388999831;None;None;None;[];671.0026388999831;None;"['9', '9', '9', '9']";"[0.26118380000116304, 0.5248575999867171, 0.7728544999845326, 1.1570583999855444]";671.0026388999831;None;0.5792342000058852;;;S11161;2022_Jan_21_1221;VideoMask;2021.1.2;119.99011283719713;
1.0;f;021_o_f_s_a.jpg;sad;7.0;happy_61.2ns.avi;happy;9.0;incongruent;130.0;150.0;210.94664004826666;s_h;;;;;0;50;50;50;;;;;;;674.0110255999898;None;676.0190122000058;676.3356658999983;677.502410999994;677.5190553999855;681.994077099982;None;9;0;681.994077099982;None;;;;;;;;6;;;;;;683.5439024999796;None;None;None;[];683.5439024999796;None;['9'];[0.25599840001086704];683.5439024999796;None;0.6537207999790553;;;S11161;2022_Jan_21_1221;VideoMask;2021.1.2;119.99011283719713;
4.0;m;004_o_m_s_a.jpg;sad;7.0;sad_2.4ns.avi;sad;7.0;congruent;130.0;160.0;153.02079367163634;s_s;;;;;0;51;51;51;;;;;;;686.5439262999862;None;688.0436073000019;688.3602614999982;689.576822300005;689.5938989999995;697.460411899985;None;7;0;697.460411899985;None;;;;;;;;4;;;;;;699.0184619000065;None;None;None;[];699.0184619000065;None;['7'];[0.7812615000002552];699.0184619000065;None;1.0193828000046778;;;S11161;2022_Jan_21_1221;VideoMask;2021.1.2;119.99011283719713;
8.0;m;008_y_m_h_a.jpg;happy;9.0;happy_1.2ns.avi;happy;9.0;congruent;120.0;150.0;210.98946429383824;h_h;;;;;0;52;52;52;;;;;;;702.0267705000006;None;704.0682609999785;704.3848386000027;705.5353102999798;705.5516822999925;718.3096692999825;None;9;0;718.3096692999825;None;;;;;;;;7;;;;;;719.8595182999852;None;None;None;[];719.8595182999852;None;"['9', '9']";"[0.24409759999252856, 0.5404645999951754]";719.8595182999852;None;0.6341356000048108;;;S11161;2022_Jan_21_1221;VideoMask;2021.1.2;119.99011283719713;
2.0;f;012_o_f_s_a.jpg;sad;7.0;happy_52.2ns.avi;happy;9.0;incongruent;130.0;150.0;172.57202848318138;s_h;;;;;0;53;53;53;;;;;;;722.8595198999974;None;724.5259374000016;724.842685199983;726.0513994999928;726.0757422999886;729.5343250999867;None;9;0;729.5343250999867;None;;;;;;;;9;;;;;;731.0841679000005;None;None;None;[];731.0841679000005;None;"['9', '9', '9', '9']";"[0.2437229000206571, 0.49158400000305846, 0.7793972000072245, 1.1635088000039104]";731.0841679000005;None;0.7295309999899473;;;S11161;2022_Jan_21_1221;VideoMask;2021.1.2;119.99011283719713;
9.0;f;019_m_f_s_a.jpg;sad;7.0;happy_61.1ns.avi;happy;9.0;incongruent;130.0;150.0;181.3003220572762;s_h;;;;;0;54;54;54;;;;;;;734.0925484999898;None;735.8757087999838;736.1923271999985;737.3596604999912;737.3839711000037;744.7171535999805;None;9;0;744.7171535999805;None;;;;;;;;5;;;;;;746.2753943999996;None;None;None;[];746.2753943999996;None;None;;746.2753943999996;None;0.7389312000013888;;;S11161;2022_Jan_21_1221;VideoMask;2021.1.2;119.99011283719713;
0.0;f;030_o_f_h_a.jpg;happy;9.0;sad_133.1.wmv;sad;7.0;incongruent;120.0;160.0;198.86251500867985;h_s;;;;;0;55;55;55;;;;;;;749.3086563999823;None;751.1833475999883;751.5002311999851;752.6252571999794;752.6418958999857;754.6334750999813;None;7;0;754.6334750999813;None;;;;;;;;4;;;;;;756.1834417000064;None;None;None;[];756.1834417000064;None;['7'];[0.6325498000078369];756.1834417000064;None;0.9423804999969434;;;S11161;2022_Jan_21_1221;VideoMask;2021.1.2;119.99011283719713;
0.0;f;040_y_f_h_a.jpg;happy;9.0;sad_128.2.wmv;sad;7.0;incongruent;120.0;160.0;206.10005857915363;h_s;;;;;0;56;56;56;;;;;;;759.1833216999948;None;761.1249045000004;761.4415909999807;762.6165192000044;762.6332831000036;764.5748371999944;None;7;0;764.5748371999944;None;;;;;;;;3;;;;;;766.1248093000031;None;None;None;[];766.1248093000031;None;"['7', '7']";"[0.2828385999891907, 0.5949757999915164]";766.1248093000031;None;0.7289447000075597;;;S11161;2022_Jan_21_1221;VideoMask;2021.1.2;119.99011283719713;
1.0;f;021_o_f_s_a.jpg;sad;7.0;sad_9.5ns.avi;sad;7.0;congruent;130.0;160.0;206.16642757875042;s_s;;;;;0;57;57;57;;;;;;;769.1248445999809;None;771.0579422999872;771.3746045999869;772.5412836000032;772.5589919000049;778.2327503999986;None;7;0;778.2327503999986;None;;;;;;;;2;;;;;;779.7827932999935;None;None;None;[];779.7827932999935;None;"['7', '7', '7']";"[0.31294140001409687, 0.5930727000231855, 0.9613165000046138]";779.7827932999935;None;0.7589407000050414;;;S11161;2022_Jan_21_1221;VideoMask;2021.1.2;119.99011283719713;
1.0;f;021_o_f_h_a.jpg;happy;9.0;happy_12.1ns.avi;happy;9.0;congruent;120.0;150.0;132.59080005900228;h_h;;;;;0;58;58;58;;;;;;;782.7827328999992;None;784.1409189999977;784.457528400002;785.6575937999878;785.6742291999981;793.2073077999812;None;9;0;793.2073077999812;None;;;;;;;;9;;;;;;794.7572362000064;None;None;None;[];794.7572362000064;None;"['9', '9', '9', '9', '9', '9']";"[0.2104991000087466, 0.5867949000094086, 0.8986399999994319, 1.2265156999928877, 1.5385998999990989, 1.8663057000085246]";794.7572362000064;None;0.4485508999787271;;;S11161;2022_Jan_21_1221;VideoMask;2021.1.2;119.99011283719713;
3.0;m;013_y_m_s_a.jpg;sad;7.0;happy_56.2ns.avi;happy;9.0;incongruent;130.0;150.0;163.39234110935848;s_h;;;;;0;59;59;59;;;;;;;797.757320499979;None;799.3403663999925;799.6570084999839;800.8819086999865;800.8988224999921;805.8152945000038;None;None;0;805.8152945000038;None;;;;;;;;5;;;;;;807.3651276000019;None;None;None;[];807.3651276000019;None;"['7', '9']";"[1.8987625000008848, 2.5866909000033047]";807.3651276000019;None;;;;S11161;2022_Jan_21_1221;VideoMask;2021.1.2;119.99011283719713;
;;;;;;;;;;;;;;;;;;;;;;;;;;;;;;;;;;;;;;;;;;;;;;;;;;;;;;;;;;;;;;;;810.3651213999838;None;;;;;;
