primePerson;primeGender;prime;primeEmotion;corrAnsPrime;target;targetEmotion;corrAnsTar;Cond;ID_Primer;ID_Target;JitterTime;example.thisRepN;example.thisTrialN;example.thisN;example.thisIndex;study.thisRepN;study.thisTrialN;study.thisN;study.thisIndex;MR_trigger_time;MR_trigger_number;text_intro.started;text_intro.stopped;text_probe.started;text_probe.stopped;polygon_ISI.started;polygon_ISI.stopped;polygon.started;polygon.stopped;primerImage.started;primerImage.stopped;response.started;response.stopped;key_resp.keys;key_resp.corr;key_resp.rt;key_resp.started;key_resp.stopped;slider_Text.started;slider_Text.stopped;slider_ex.response;slider_ex.rt;slider_ex.history;slider_ex.started;slider_ex.stopped;Rating;slider_resp_response.keys;slider_resp_response.started;slider_resp_response.stopped;text_start.started;text_start.stopped;text_slider.started;text_slider.stopped;slider_stud.response;slider_stud.rt;slider_stud.history;slider_stud.started;slider_stud.stopped;slider_resp_study.keys;slider_resp_study.started;slider_resp_study.stopped;slider_resp_study.rt;text_ende.started;text_ende.stopped;participant;date;expName;psychopyVersion;frameRate;
1111;m;1111_m_m_h_a.jpg;happy;9;example_30.4ns.avi;neutral;7;incongruent;120.0;170.0;189.5874364012288;0;0;0;0;;;;;82.3648389999289;1;82.44284779997543;84.44304359983653;84.44304359983653;None;86.45964989997447;None;88.65129439998418;88.97617219993845;90.12604769994505;90.14262049994431;94.44259719992988;None;9;0;0.6053045000880957;94.44259719992988;None;96.0009961000178;None;None;None;[];96.0009961000178;None;5;None;96.0009961000178;None;;;;;;;;;;;;;;;;S10795;2021_Aug_03_1734;VideoMask;2021.1.2;119.9565757799277;
1113;f;1113_y_f_s_a.jpg;sad;7;example_30.3ns.avi;neutral;7;incongruent;130.0;170.0;229.02432995836998;0;1;1;1;;;;;;;;;;;99.00913629983552;None;101.14234689995646;101.45909359981306;102.634143400006;102.65078629995696;104.59257530001923;None;9;0;0.6552608001511544;104.59257530001923;None;106.14237379981205;None;None;None;[];106.14237379981205;None;5;None;106.14237379981205;None;;;;;;;;;;;;;;;;S10795;2021_Aug_03_1734;VideoMask;2021.1.2;119.9565757799277;
3.0;m;033_o_m_s_a.jpg;sad;7.0;sad_94.2ns.avi;sad;7.0;congruent;130.0;160.0;228.63582583242618;;;;;0;0;0;0;;;;;;;110.18386009987444;None;112.28371310001239;112.60047639999539;113.74197909981012;113.75883659999818;116.43410620000213;None;8;0;0.70980259985663;116.43410620000213;None;;;;;;;;5;;;;109.17556579993106;None;118.00044089998119;None;None;None;[];118.00044089998119;None;None;118.00044089998119;None;;;;S10795;2021_Aug_03_1734;VideoMask;2021.1.2;119.9565757799277;
0.0;f;030_o_f_s_a.jpg;sad;7.0;sad_68.1ns.avi;sad;7.0;congruent;130.0;160.0;163.14738846961149;;;;;0;1;1;1;;;;;;;121.01698859990574;None;122.61677549988963;122.93348170001991;124.06678069988266;124.08345989999361;131.49172489997;None;8;0;0.6201460999436677;131.49172489997;None;;;;;;;;5;;;;;;133.0416007998865;None;None;None;[];133.0416007998865;None;None;133.0416007998865;None;;;;S10795;2021_Aug_03_1734;VideoMask;2021.1.2;119.9565757799277;
8.0;m;008_y_m_h_a.jpg;happy;9.0;happy_26.1ns.avi;happy;9.0;congruent;140.0;150.0;184.58211837191982;;;;;0;2;2;2;;;;;;;136.0665549999103;None;137.7996795999352;138.11630809982307;139.30785729992203;139.3246110000182;141.2415179000236;None;None;0;;141.2415179000236;None;;;;;;;;5;;;;;;142.7915441999212;None;None;None;[];142.7915441999212;None;None;142.7915441999212;None;;;;S10795;2021_Aug_03_1734;VideoMask;2021.1.2;119.9565757799277;
0.0;f;030_o_f_s_a.jpg;sad;7.0;happy_125.3.wmv;happy;9.0;incongruent;130.0;150.0;189.50417957278896;;;;;0;3;3;3;;;;;;;145.82463429984637;None;147.61596969980747;147.93275029980578;149.06638069986366;149.08271200000308;151.06618959992193;None;9;0;0.9017056000884622;151.06618959992193;None;;;;;;;;6;;;;;;152.61602179985493;None;None;None;[];152.61602179985493;None;['9'];152.61602179985493;None;[0.4639026001095772];;;S10795;2021_Aug_03_1734;VideoMask;2021.1.2;119.9565757799277;
1.0;f;021_o_f_s_a.jpg;sad;7.0;sad_9.5ns.avi;sad;7.0;congruent;130.0;160.0;156.55128602613038;;;;;0;4;4;4;;;;;;;155.62435840000398;None;157.13251979998313;157.44919329998083;158.6329697999172;158.6573932999745;164.30754940002225;None;8;0;0.8044347998220474;164.30754940002225;None;;;;;;;;5;;;;;;165.85734689980745;None;None;None;[];165.85734689980745;None;None;165.85734689980745;None;;;;S10795;2021_Aug_03_1734;VideoMask;2021.1.2;119.9565757799277;
4.0;m;004_o_m_s_a.jpg;sad;7.0;happy_28.1ns.avi;happy;9.0;incongruent;130.0;150.0;219.83540383939274;;;;;0;5;5;5;;;;;;;168.8906794998329;None;170.91535439994186;171.23213150002994;172.40701169986278;172.42383449990302;176.75707729998976;None;None;0;;176.75707729998976;None;;;;;;;;6;;;;;;178.30691339983605;None;None;None;[];178.30691339983605;None;"['9', '9']";178.30691339983605;None;"[2.0690671999473125, 2.2770911999978125]";;;S10795;2021_Aug_03_1734;VideoMask;2021.1.2;119.9565757799277;
2.0;f;012_o_f_s_a.jpg;sad;7.0;sad_7.5ns.avi;sad;7.0;congruent;130.0;160.0;147.95125229894379;;;;;0;6;6;6;;;;;;;181.31525969994254;None;182.7317206999287;183.0485017998144;184.19854789995588;184.2151098998729;186.97364109987393;None;8;0;0.4503968998324126;186.97364109987393;None;;;;;;;;5;;;;;;188.53170419996604;None;None;None;[];188.53170419996604;None;None;188.53170419996604;None;;;;S10795;2021_Aug_03_1734;VideoMask;2021.1.2;119.9565757799277;
2.0;f;012_o_f_s_a.jpg;sad;7.0;happy_52.2ns.avi;happy;9.0;incongruent;130.0;150.0;144.3898903070799;;;;;0;7;7;7;;;;;;;191.56501160003245;None;192.95636299997568;193.27316630003043;194.42321469984017;194.43994529987685;197.95660659996793;None;None;0;;197.95660659996793;None;;;;;;;;5;;;;;;199.50643019983545;None;None;None;[];199.50643019983545;None;None;199.50643019983545;None;;;;S10795;2021_Aug_03_1734;VideoMask;2021.1.2;119.9565757799277;
0.0;f;040_y_f_s_a.jpg;sad;7.0;sad_67.2ns.avi;sad;7.0;congruent;130.0;160.0;192.80086779892653;;;;;0;8;8;8;;;;;;;202.53973690001294;None;204.3727898998186;204.6895849998109;205.88132489984855;205.8978748000227;215.0476684998721;None;8;0;0.7046805999707431;215.0476684998721;None;;;;;;;;5;;;;;;216.59758990001865;None;None;None;[];216.59758990001865;None;None;216.59758990001865;None;;;;S10795;2021_Aug_03_1734;VideoMask;2021.1.2;119.9565757799277;
3.0;m;013_y_m_s_a.jpg;sad;7.0;happy_56.2ns.avi;happy;9.0;incongruent;130.0;150.0;134.62621969351147;;;;;0;9;9;9;;;;;;;219.6309110999573;None;220.95567179983482;221.27233710000291;222.46404169988818;222.48064629989676;227.4313176998403;None;None;0;;227.4313176998403;None;;;;;;;;5;;;;;;229.18095099995844;None;None;None;[];229.18095099995844;None;None;229.18095099995844;None;;;;S10795;2021_Aug_03_1734;VideoMask;2021.1.2;119.9565757799277;
0.0;f;030_o_f_h_a.jpg;happy;9.0;sad_133.1.wmv;sad;7.0;incongruent;120.0;160.0;238.4103736452693;;;;;0;10;10;10;;;;;;;232.2054009998683;None;234.40531609999016;234.72206850000657;235.85529619990848;235.87204389995895;237.85595969995484;None;None;0;;237.85595969995484;None;;;;;;;;5;;;;;;239.4055397999473;None;None;None;[];239.4055397999473;None;None;239.4055397999473;None;;;;S10795;2021_Aug_03_1734;VideoMask;2021.1.2;119.9565757799277;
2.0;f;012_o_f_h_a.jpg;happy;9.0;happy_2.2ns.avi;happy;9.0;congruent;140.0;150.0;120.08648649110712;;;;;0;11;11;11;;;;;;;242.42178299999796;None;243.66326319985092;243.98021249985322;245.1215627999045;245.13849069993012;257.3216899000108;None;None;0;;257.3216899000108;None;;;;;;;;5;;;;;;258.87960310000926;None;None;None;[];258.87960310000926;None;None;258.87960310000926;None;;;;S10795;2021_Aug_03_1734;VideoMask;2021.1.2;119.9565757799277;
9.0;f;019_m_f_s_a.jpg;sad;7.0;sad_8.4ns.avi;sad;7.0;congruent;130.0;160.0;169.3395974323834;;;;;0;12;12;12;;;;;;;261.9046491999179;None;263.54610199993476;263.8628835999407;265.06362869986333;265.0883146999404;273.1294388999231;None;8;0;0.542790099978447;273.1294388999231;None;;;;;;;;5;;;;;;274.7042356999591;None;None;None;[];274.7042356999591;None;None;274.7042356999591;None;;;;S10795;2021_Aug_03_1734;VideoMask;2021.1.2;119.9565757799277;
8.0;m;008_y_m_s_a.jpg;sad;7.0;sad_6.5ns.avi;sad;7.0;congruent;130.0;160.0;124.24628091899196;;;;;0;13;13;13;;;;;;;277.7292696000077;None;279.0042261998169;279.32082669995725;280.51248179981485;280.5290848999284;285.4546586999204;None;8;0;0.6974485998507589;285.4546586999204;None;;;;;;;;5;;;;;;287.2289378999267;None;None;None;[];287.2289378999267;None;None;287.2289378999267;None;;;;S10795;2021_Aug_03_1734;VideoMask;2021.1.2;119.9565757799277;
1.0;f;021_o_f_h_a.jpg;happy;9.0;happy_12.1ns.avi;happy;9.0;congruent;140.0;150.0;236.6487020138435;;;;;0;14;14;14;;;;;;;290.2538868000265;None;292.45361929992214;292.77038879995234;293.887423499953;293.9043591998052;301.5203251999337;None;None;0;;301.5203251999337;None;;;;;;;;5;;;;;;303.07860250002705;None;None;None;[];303.07860250002705;None;None;303.07860250002705;None;;;;S10795;2021_Aug_03_1734;VideoMask;2021.1.2;119.9565757799277;
8.0;f;028_y_f_s_a.jpg;sad;7.0;sad_64.2ns.avi;sad;7.0;congruent;130.0;160.0;238.8507440172915;;;;;0;15;15;15;;;;;;;306.09488149988465;None;308.3114910000004;308.6282595999073;309.76140840002336;309.7782566000242;320.76978999981657;None;8;0;1.094362299889326;320.76978999981657;None;;;;;;;;5;;;;;;322.31960449996404;None;None;None;[];322.31960449996404;None;None;322.31960449996404;None;;;;S10795;2021_Aug_03_1734;VideoMask;2021.1.2;119.9565757799277;
2.0;f;012_o_f_s_a.jpg;sad;7.0;happy_139.1.wmv;happy;9.0;incongruent;130.0;150.0;185.59030554143408;;;;;0;16;16;16;;;;;;;325.33615649980493;None;327.0775798999239;327.39437310001813;328.5278584000189;328.54443949996494;330.5279482998885;None;None;0;;330.5279482998885;None;;;;;;;;5;;;;;;332.078120799968;None;None;None;[];332.078120799968;None;None;332.078120799968;None;;;;S10795;2021_Aug_03_1734;VideoMask;2021.1.2;119.9565757799277;
3.0;m;033_o_m_s_a.jpg;sad;7.0;sad_64.5ns.avi;sad;7.0;congruent;130.0;160.0;159.52646627166388;;;;;0;17;17;17;;;;;;;335.11090229987167;None;336.64406019984744;336.9607764999382;338.10250719985925;338.1198122999631;344.6855295000132;None;8;0;0.5707113000098616;344.6855295000132;None;;;;;;;;5;;;;;;346.26059799990617;None;None;None;[];346.26059799990617;None;None;346.26059799990617;None;;;;S10795;2021_Aug_03_1734;VideoMask;2021.1.2;119.9565757799277;
0.0;f;040_y_f_s_a.jpg;sad;7.0;happy_127.3.wmv;happy;9.0;incongruent;130.0;150.0;131.0431594605889;;;;;0;18;18;18;;;;;;;349.2857323999051;None;350.576910499949;350.89390629995614;352.0188467998523;352.03535200003535;354.093651099829;None;None;0;;354.093651099829;None;;;;;;;;5;;;;;;355.64365640003234;None;None;None;[];355.64365640003234;None;None;355.64365640003234;None;;;;S10795;2021_Aug_03_1734;VideoMask;2021.1.2;119.9565757799277;
3.0;m;033_o_m_h_a.jpg;happy;9.0;sad_128.1.wmv;sad;7.0;incongruent;120.0;160.0;168.97426303437265;;;;;0;19;19;19;;;;;;;358.66013749991544;None;360.268297099974;360.58523389999755;361.71057299990207;361.7268774998374;363.7184396998491;None;8;0;0.889820700045675;363.7184396998491;None;;;;;;;;5;;;;;;365.26842350000516;None;None;None;[];365.26842350000516;None;None;365.26842350000516;None;;;;S10795;2021_Aug_03_1734;VideoMask;2021.1.2;119.9565757799277;
9.0;f;019_m_f_h_a.jpg;happy;9.0;sad_115.1.wmv;sad;7.0;incongruent;120.0;160.0;202.13700247699333;;;;;0;20;20;20;;;;;;;368.29316469980404;None;370.1847283998504;370.501572499983;371.62662129988894;371.64319760003127;373.63478880003095;None;8;0;0.6294673001393676;373.63478880003095;None;;;;;;;;5;;;;;;375.1764867999591;None;None;None;[];375.1764867999591;None;None;375.1764867999591;None;;;;S10795;2021_Aug_03_1734;VideoMask;2021.1.2;119.9565757799277;
8.0;m;008_y_m_h_a.jpg;happy;9.0;happy_1.2ns.avi;happy;9.0;congruent;140.0;150.0;155.22310421045015;;;;;0;21;21;21;;;;;;;378.20138260000385;None;379.7512767999433;380.06803449988365;381.2265419999603;381.24303549993783;393.9925938998349;None;None;0;;393.9925938998349;None;;;;;;;;5;;;;;;395.54263199982233;None;None;None;[];395.54263199982233;None;None;395.54263199982233;None;;;;S10795;2021_Aug_03_1734;VideoMask;2021.1.2;119.9565757799277;
0.0;f;040_y_f_s_a.jpg;sad;7.0;sad_94.3ns.avi;sad;7.0;congruent;130.0;160.0;157.18644691248227;;;;;0;22;22;22;;;;;;;398.5758742999751;None;400.08394049992785;400.4006717999;401.6008168000262;401.6173882998992;404.1590742999688;None;8;0;0.4413350000977516;404.1590742999688;None;;;;;;;;5;;;;;;405.9422720998991;None;None;None;[];405.9422720998991;None;None;405.9422720998991;None;;;;S10795;2021_Aug_03_1734;VideoMask;2021.1.2;119.9565757799277;
6.0;m;016_y_m_s_a.jpg;sad;7.0;happy_60.4ns.avi;happy;9.0;incongruent;130.0;150.0;135.96622391936876;;;;;0;23;23;23;;;;;;;408.9587677998934;None;410.3003113998566;410.61709439987317;411.75880199996755;411.7754257998895;417.54196959990077;None;9;0;0.4263655000831932;417.54196959990077;None;;;;;;;;7;;;;;;419.09189369995147;None;None;None;[];419.09189369995147;None;"['9', '9']";419.09189369995147;None;"[0.4844492000993341, 1.0764651999343187]";;;S10795;2021_Aug_03_1734;VideoMask;2021.1.2;119.9565757799277;
0.0;f;030_o_f_h_a.jpg;happy;9.0;happy_24.1ns.avi;happy;9.0;congruent;140.0;150.0;187.2363405679046;;;;;0;24;24;24;;;;;;;422.10027990001254;None;423.86740390001796;424.18336949986406;425.3758457999211;425.40047969995067;428.6423522999976;None;None;0;;428.6423522999976;None;;;;;;;;7;;;;;;430.1914257998578;None;None;None;[];430.1914257998578;None;"['9', '9']";430.1914257998578;None;"[0.8730363000649959, 2.8250160000752658]";;;S10795;2021_Aug_03_1734;VideoMask;2021.1.2;119.9565757799277;
8.0;m;008_y_m_s_a.jpg;sad;7.0;happy_133.3.wmv;happy;9.0;incongruent;130.0;150.0;151.65964880545846;;;;;0;25;25;25;;;;;;;433.191393799847;None;434.66639649984427;434.98302119993605;436.1081136998255;436.12467559985816;438.11638319981284;None;9;0;0.931948299985379;438.11638319981284;None;;;;;;;;7;;;;;;439.6913934999611;None;None;None;[];439.6913934999611;None;"['9', '9']";439.6913934999611;None;"[9.464870600029826, 0.12505959998816252]";;;S10795;2021_Aug_03_1734;VideoMask;2021.1.2;119.9565757799277;
1.0;f;021_o_f_s_a.jpg;sad;7.0;happy_61.2ns.avi;happy;9.0;incongruent;130.0;150.0;146.79956415721207;;;;;0;26;26;26;;;;;;;442.67459099995904;None;444.09106249990873;444.407841200009;445.6158484998159;445.6327355999965;450.06600199989043;None;8;0;1.1587360999546945;450.06600199989043;None;;;;;;;;5;;;;;;451.6742828998249;None;None;None;[];451.6742828998249;None;None;451.6742828998249;None;;;;S10795;2021_Aug_03_1734;VideoMask;2021.1.2;119.9565757799277;
1.0;f;021_o_f_h_a.jpg;happy;9.0;sad_116.1.wmv;sad;7.0;incongruent;120.0;160.0;205.93899364307754;;;;;0;27;27;27;;;;;;;454.70773509982973;None;456.6407421999611;456.95739899994805;458.0914304999169;458.1160464999266;460.0907181999646;None;None;0;;460.0907181999646;None;;;;;;;;4;;;;;;461.6407051999122;None;None;None;[];461.6407051999122;None;"['7', '7']";461.6407051999122;None;"[0.5355479000136256, 1.4237434000242501]";;;S10795;2021_Aug_03_1734;VideoMask;2021.1.2;119.9565757799277;
7.0;m;027_o_m_h_a.jpg;happy;9.0;happy_20.1ns.avi;happy;9.0;congruent;140.0;150.0;145.4488529976734;;;;;0;28;28;28;;;;;;;464.64074489986524;None;466.04883580002934;466.3659926999826;467.5326214998495;467.54881189996377;470.5154984998517;None;9;0;0.7808033998589963;470.5154984998517;None;;;;;;;;5;;;;;;472.0653184999246;None;None;None;[];472.0653184999246;None;"['9', '7', '9']";472.0653184999246;None;"[1.0870523999910802, 1.3031331999227405, 1.4871602999046445]";;;S10795;2021_Aug_03_1734;VideoMask;2021.1.2;119.9565757799277;
3.0;m;033_o_m_s_a.jpg;sad;7.0;happy_126.3.wmv;happy;9.0;incongruent;130.0;150.0;220.47504181707743;;;;;0;29;29;29;;;;;;;475.06523069995455;None;477.10678989998996;477.42350329994224;478.55670359986834;478.57358059985563;480.55683119990863;None;None;0;;480.55683119990863;None;;;;;;;;7;;;;;;482.10661419993266;None;None;None;[];482.10661419993266;None;"['9', '9']";482.10661419993266;None;"[0.8058923999778926, 1.5180460000410676]";;;S10795;2021_Aug_03_1734;VideoMask;2021.1.2;119.9565757799277;
4.0;m;004_o_m_s_a.jpg;sad;7.0;sad_2.4ns.avi;sad;7.0;congruent;130.0;160.0;153.9424691910033;;;;;0;30;30;30;;;;;;;485.1067784000188;None;486.6067150000017;486.9232546999119;488.131645699963;488.1480759999249;496.02309939987026;None;7;0;1.0572855998761952;496.02309939987026;None;;;;;;;;3;;;;;;497.58134339982644;None;None;None;[];497.58134339982644;None;"['7', '7', '7', '9']";497.58134339982644;None;"[0.3550303999800235, 1.0190077999141067, 2.339192199986428, 2.611002199817449]";;;S10795;2021_Aug_03_1734;VideoMask;2021.1.2;119.9565757799277;
8.0;m;008_y_m_h_a.jpg;happy;9.0;sad_111.1.wmv;sad;7.0;incongruent;120.0;160.0;182.0123397825363;;;;;0;31;31;31;;;;;;;500.58127179997973;None;502.3060857998207;502.62280739983544;503.74793129996397;503.7645188998431;505.75616059987806;None;7;0;0.7402674001641572;505.75616059987806;None;;;;;;;;3;;;;;;507.30605959985405;None;None;None;[];507.30605959985405;None;"['7', '7']";507.30605959985405;None;"[0.4463905000593513, 1.4463537000119686]";;;S10795;2021_Aug_03_1734;VideoMask;2021.1.2;119.9565757799277;
4.0;m;004_o_m_h_a.jpg;happy;9.0;happy_1.1ns.avi;happy;9.0;congruent;140.0;150.0;145.41905773865074;;;;;0;32;32;32;;;;;;;510.31429959996603;None;511.7807461998891;512.0975663999561;513.2476233998314;513.2642575998325;527.7139563998207;None;None;0;;527.7139563998207;None;;;;;;;;6;;;;;;529.263624999905;None;None;None;[];529.263624999905;None;['9'];529.263624999905;None;[0.6649460999760777];;;S10795;2021_Aug_03_1734;VideoMask;2021.1.2;119.9565757799277;
4.0;m;004_o_m_s_a.jpg;sad;7.0;happy_131.2.wmv;happy;9.0;incongruent;130.0;150.0;163.9874412082805;;;;;0;33;33;33;;;;;;;532.2638301998377;None;533.8385056999978;534.1553815000225;535.2968019999098;535.3134113999549;537.2886667998973;None;9;0;0.7597757000476122;537.2886667998973;None;;;;;;;;6;;;;;;538.8385203999933;None;None;None;[];538.8385203999933;None;['9'];538.8385203999933;None;[0.48177749989554286];;;S10795;2021_Aug_03_1734;VideoMask;2021.1.2;119.9565757799277;
2.0;f;012_o_f_h_a.jpg;happy;9.0;happy_27.1ns.avi;happy;9.0;congruent;140.0;150.0;207.9053492649655;;;;;0;34;34;34;;;;;;;541.8469092999585;None;543.7716008999851;544.0885746998247;545.2717388998717;545.2883460999001;547.713295100024;None;9;0;0.4552496001124382;547.713295100024;None;;;;;;;;7;;;;;;549.2882226998918;None;None;None;[];549.2882226998918;None;"['9', '9']";549.2882226998918;None;"[0.39223790005780756, 1.280249899951741]";;;S10795;2021_Aug_03_1734;VideoMask;2021.1.2;119.9565757799277;
7.0;m;027_o_m_s_a.jpg;sad;7.0;happy_117.3.wmv;happy;9.0;incongruent;130.0;150.0;218.0520785974414;;;;;0;35;35;35;;;;;;;552.2965897999238;None;554.3129137000069;554.6296594999731;555.7547251000069;555.7713428998832;557.771306199953;None;9;0;0.5893188999034464;557.771306199953;None;;;;;;;;6;;;;;;559.3212798999157;None;None;None;[];559.3212798999157;None;['9'];559.3212798999157;None;[0.29517469997517765];;;S10795;2021_Aug_03_1734;VideoMask;2021.1.2;119.9565757799277;
2.0;f;012_o_f_h_a.jpg;happy;9.0;sad_113.1.wmv;sad;7.0;incongruent;120.0;160.0;192.53137802384992;;;;;0;36;36;36;;;;;;;562.3295628998894;None;564.1293202999514;564.4461033998523;565.5712148998864;565.5877676999662;567.5794309999328;None;7;0;0.4049927999731153;567.5794309999328;None;;;;;;;;3;;;;;;569.1293507998344;None;None;None;[];569.1293507998344;None;"['7', '7']";569.1293507998344;None;"[0.3511705999262631, 1.2711929997894913]";;;S10795;2021_Aug_03_1734;VideoMask;2021.1.2;119.9565757799277;
8.0;f;028_y_f_h_a.jpg;happy;9.0;happy_23.1ns.avi;happy;9.0;congruent;140.0;150.0;159.76384515822056;;;;;0;37;37;37;;;;;;;572.1292879998218;None;573.6623986000195;573.9790945998393;575.1039146999829;575.1206108999904;579.6874728999101;None;9;0;0.7451536001171917;579.6874728999101;None;;;;;;;;8;;;;;;581.2373251998797;None;None;None;[];581.2373251998797;None;"['9', '9', '9']";581.2373251998797;None;"[0.3231609999202192, 0.7951946000102907, 1.9152395999990404]";;;S10795;2021_Aug_03_1734;VideoMask;2021.1.2;119.9565757799277;
0.0;f;030_o_f_s_a.jpg;sad;7.0;sad_64.3ns.avi;sad;7.0;congruent;130.0;160.0;172.91738127163183;;;;;0;38;38;38;;;;;;;584.2374646998942;None;585.8871939999517;586.2037678000052;587.387067399919;587.4038283999544;592.3371356998105;None;7;0;1.3915188999380916;592.3371356998105;None;;;;;;;;2;;;;;;593.8869896000251;None;None;None;[];593.8869896000251;None;"['7', '7', '7']";593.8869896000251;None;"[0.4574710000306368, 0.8175162998959422, 1.1296155999880284]";;;S10795;2021_Aug_03_1734;VideoMask;2021.1.2;119.9565757799277;
6.0;m;016_y_m_h_a.jpg;happy;9.0;sad_114.1.wmv;sad;7.0;incongruent;120.0;160.0;196.03539454983184;;;;;0;39;39;39;;;;;;;596.8870438998565;None;598.7367230998352;599.0534353000112;600.2200072999112;600.236593300011;602.1867115998175;None;7;0;0.509826899971813;602.1867115998175;None;;;;;;;;1;;;;;;603.7366894998122;None;None;None;[];603.7366894998122;None;"['7', '7', '7', '7', '7', '7']";603.7366894998122;None;"[0.5438427999615669, 0.8400350001174957, 1.1039551000576466, 1.3439593000803143, 1.6477268000598997, 2.2638563001528382]";;;S10795;2021_Aug_03_1734;VideoMask;2021.1.2;119.9565757799277;
6.0;m;016_y_m_s_a.jpg;sad;7.0;sad_8.3ns.avi;sad;7.0;congruent;130.0;160.0;139.87174075953956;;;;;0;40;40;40;;;;;;;606.7367868998554;None;608.1113721998408;608.4282552998047;609.6282641999424;609.6448633000255;617.3197619998828;None;7;0;0.4808258998673409;617.3197619998828;None;;;;;;;;1;;;;;;618.8945114000235;None;None;None;[];618.8945114000235;None;"['7', '7', '7', '7']";618.8945114000235;None;"[0.28216789988800883, 0.5140690999105573, 0.7220991000067443, 0.96201889985241]";;;S10795;2021_Aug_03_1734;VideoMask;2021.1.2;119.9565757799277;
7.0;m;027_o_m_s_a.jpg;sad;7.0;sad_10.4ns.avi;sad;7.0;congruent;130.0;160.0;163.89298117292617;;;;;0;41;41;41;;;;;;;621.89450389985;None;623.4609852998983;623.7777613999788;624.9027444999665;624.9194906998891;628.0778093999252;None;7;0;0.9147560999263078;628.0778093999252;None;;;;;;;;4;;;;;;629.6275924998336;None;None;None;[];629.6275924998336;None;['7'];629.6275924998336;None;[0.05302270012907684];;;S10795;2021_Aug_03_1734;VideoMask;2021.1.2;119.9565757799277;
3.0;m;013_y_m_h_a.jpg;happy;9.0;happy_9.1ns.avi;happy;9.0;congruent;140.0;150.0;128.37211756912527;;;;;0;42;42;42;;;;;;;632.6276308000088;None;633.894026799826;634.2108057998121;635.3775386998896;635.3940945998766;638.5693079999182;None;9;0;0.5752780998591334;638.5693079999182;None;;;;;;;;7;;;;;;640.219010300003;None;None;None;[];640.219010300003;None;"['9', '9']";640.219010300003;None;"[0.22946580010466278, 0.6216546001378447]";;;S10795;2021_Aug_03_1734;VideoMask;2021.1.2;119.9565757799277;
7.0;m;027_o_m_h_a.jpg;happy;9.0;sad_117.1.wmv;sad;7.0;incongruent;120.0;160.0;163.19466748508617;;;;;0;43;43;43;;;;;;;643.2274141998496;None;644.7936960000079;645.1105898998212;646.2356118999887;646.252181599848;648.2521851998754;None;7;0;0.49264459987170994;648.2521851998754;None;;;;;;;;2;;;;;;649.8020549998619;None;None;None;[];649.8020549998619;None;"['7', '7', '7', '7']";649.8020549998619;None;"[0.2946570999920368, 0.5908983000554144, 1.310701600043103, 2.358613000018522]";;;S10795;2021_Aug_03_1734;VideoMask;2021.1.2;119.9565757799277;
4.0;m;004_o_m_h_a.jpg;happy;9.0;sad_95.1ns.avi;sad;7.0;incongruent;120.0;160.0;162.95060606286506;;;;;0;44;44;44;;;;;;;652.8103249999695;None;654.3934231998865;654.7101716999896;655.9769119999837;655.9934582000133;664.6351927998476;None;7;0;0.5174030000343919;664.6351927998476;None;;;;;;;;1;;;;;;666.1932606999762;None;None;None;[];666.1932606999762;None;"['7', '7', '7', '7']";666.1932606999762;None;"[0.2393879999872297, 0.439382900018245, 0.6234023999422789, 0.8235069999936968]";;;S10795;2021_Aug_03_1734;VideoMask;2021.1.2;119.9565757799277;
0.0;f;040_y_f_h_a.jpg;happy;9.0;sad_128.2.wmv;sad;7.0;incongruent;120.0;160.0;121.98396994352893;;;;;0;45;45;45;;;;;;;669.2015432999469;None;670.4179952000268;670.7347114000004;671.8930098998826;671.9096079999581;673.8681703999173;None;7;0;0.508610500022769;673.8681703999173;None;;;;;;;;1;;;;;;675.4180109999143;None;None;None;[];675.4180109999143;None;"['7', '7', '7', '7']";675.4180109999143;None;"[0.4306510000023991, 0.6385331000201404, 0.8386496999301016, 1.0306960998568684]";;;S10795;2021_Aug_03_1734;VideoMask;2021.1.2;119.9565757799277;
0.0;f;040_y_f_h_a.jpg;happy;9.0;sad_138.1.wmv;sad;7.0;incongruent;120.0;160.0;195.60264978061832;;;;;0;46;46;46;;;;;;;678.4264171000104;None;680.2677354998887;680.5843989998102;681.7095675999299;681.7260694999713;683.7178609999828;None;7;0;0.36280190013349056;683.7178609999828;None;;;;;;;;4;;;;;;685.2927355000284;None;None;None;[];685.2927355000284;None;['7'];685.2927355000284;None;[0.06802599993534386];;;S10795;2021_Aug_03_1734;VideoMask;2021.1.2;119.9565757799277;
8.0;m;008_y_m_s_a.jpg;sad;7.0;happy_29.1ns.avi;happy;9.0;incongruent;130.0;150.0;212.92407054126133;;;;;0;47;47;47;;;;;;;688.2926510998514;None;690.2590741999447;690.5758097998332;691.7099250999745;691.734221199993;694.4009465000127;None;9;0;0.44777019997127354;694.4009465000127;None;;;;;;;;9;;;;;;695.9756585999858;None;None;None;[];695.9756585999858;None;"['9', '9', '9', '9', '9', '9', '9']";695.9756585999858;None;"[0.5290747000835836, 0.74519980000332, 1.089187600184232, 1.3690223000012338, 1.6410418001469225, 1.913062000181526, 2.5049305001739413]";;;S10795;2021_Aug_03_1734;VideoMask;2021.1.2;119.9565757799277;
0.0;f;040_y_f_h_a.jpg;happy;9.0;happy_24.3ns.avi;happy;9.0;congruent;140.0;150.0;190.23859628619445;;;;;0;48;48;48;;;;;;;698.9839553998318;None;700.7588310998399;701.0755850998685;702.342062599957;702.3588834998664;704.1338754999451;None;9;0;0.6348023999016732;704.1338754999451;None;;;;;;;;8;;;;;;705.6837937999517;None;None;None;[];705.6837937999517;None;"['9', '9', '9', '9', '9']";705.6837937999517;None;"[0.32482399977743626, 0.6128594998735934, 0.8449506999459118, 1.4690320999361575, 1.9890531999990344]";;;S10795;2021_Aug_03_1734;VideoMask;2021.1.2;119.9565757799277;
3.0;m;033_o_m_h_a.jpg;happy;9.0;happy_24.2ns.avi;happy;9.0;congruent;140.0;150.0;127.28107088671867;;;;;0;49;49;49;;;;;;;708.683903099969;None;709.9502162998542;710.2669393999968;711.4003406998236;711.4169826998841;715.1251004999503;None;9;0;0.43592899991199374;715.1251004999503;None;;;;;;;;8;;;;;;716.8918399999384;None;None;None;[];716.8918399999384;None;"['9', '9', '9']";716.8918399999384;None;"[0.308930000057444, 0.5491301999427378, 0.7730386999901384]";;;S10795;2021_Aug_03_1734;VideoMask;2021.1.2;119.9565757799277;
9.0;f;019_m_f_s_a.jpg;sad;7.0;happy_61.1ns.avi;happy;9.0;incongruent;130.0;150.0;190.9434091532566;;;;;0;50;50;50;;;;;;;719.8917884998955;None;721.6998862000182;722.0166120999493;723.2253512998577;723.2500241999514;730.5420950998086;None;8;0;0.4507021000608802;730.5420950998086;None;;;;;;;;5;;;;;;732.0997328998055;None;None;None;[];732.0997328998055;None;"['9', '7']";732.0997328998055;None;"[1.4131240998394787, 2.3490404998883605]";;;S10795;2021_Aug_03_1734;VideoMask;2021.1.2;119.9565757799277;
8.0;f;028_y_f_h_a.jpg;happy;9.0;sad_119.1.wmv;sad;7.0;incongruent;120.0;160.0;178.10396226647933;;;;;0;51;51;51;;;;;;;735.0997088998556;None;736.791176199913;737.1079259999096;738.2492572998162;738.2660483999643;740.3078632999677;None;7;0;0.5408799999859184;740.3078632999677;None;;;;;;;;3;;;;;;741.857865100028;None;None;None;[];741.857865100028;None;"['7', '7', '7']";741.857865100028;None;"[0.26288249995559454, 0.5349578999448568, 1.198906400008127]";;;S10795;2021_Aug_03_1734;VideoMask;2021.1.2;119.9565757799277;
3.0;m;033_o_m_h_a.jpg;happy;9.0;sad_136.1.wmv;sad;7.0;incongruent;120.0;160.0;206.04367658109783;;;;;0;52;52;52;;;;;;;744.8660866999999;None;746.7908693000209;747.1078537998255;748.2413768998813;748.2659135998692;750.2409224999137;None;7;0;0.5518017001450062;750.2409224999137;None;;;;;;;;2;;;;;;751.7908550000284;None;None;None;[];751.7908550000284;None;"['7', '7', '7']";751.7908550000284;None;"[0.3699038999620825, 0.6339841999579221, 1.473875200143084]";;;S10795;2021_Aug_03_1734;VideoMask;2021.1.2;119.9565757799277;
6.0;m;016_y_m_h_a.jpg;happy;9.0;happy_9.2ns.avi;happy;9.0;congruent;140.0;150.0;136.52220806776708;;;;;0;53;53;53;;;;;;;754.7991706000175;None;756.1405923999846;756.4573431999888;757.5906673998106;757.607713899808;763.5153371000197;None;9;0;0.5574211999773979;763.5153371000197;None;;;;;;;;8;;;;;;765.0654537999071;None;None;None;[];765.0654537999071;None;"['9', '9', '9', '9', '9', '9']";765.0654537999071;None;"[0.31934039993211627, 0.7193076000548899, 1.0152974999509752, 1.3352793999947608, 1.6552969000767916, 2.2875057000201195]";;;S10795;2021_Aug_03_1734;VideoMask;2021.1.2;119.9565757799277;
9.0;f;019_m_f_h_a.jpg;happy;9.0;happy_10.1ns.avi;happy;9.0;congruent;140.0;150.0;180.35091595488527;;;;;0;54;54;54;;;;;;;768.073829599889;None;769.790393400006;770.1069546998478;771.2654805998318;771.2819268000312;778.6818812999409;None;9;0;0.7268705000169575;778.6818812999409;None;;;;;;;;8;;;;;;780.2317150000017;None;None;None;[];780.2317150000017;None;"['9', '9', '9']";780.2317150000017;None;"[0.4090515000279993, 0.8172345999628305, 2.825192700140178]";;;S10795;2021_Aug_03_1734;VideoMask;2021.1.2;119.9565757799277;
8.0;f;028_y_f_s_a.jpg;sad;7.0;happy_122.3.wmv;happy;9.0;incongruent;130.0;150.0;204.27932588393085;;;;;0;55;55;55;;;;;;;783.2398860999383;None;785.1480570998974;785.4650619998574;786.5981965998653;786.6147753999103;788.5981673998758;None;9;0;0.6025904000271112;788.5981673998758;None;;;;;;;;6;;;;;;790.1397774999496;None;None;None;[];790.1397774999496;None;['9'];790.1397774999496;None;[0.24505029991269112];;;S10795;2021_Aug_03_1734;VideoMask;2021.1.2;119.9565757799277;
3.0;m;013_y_m_s_a.jpg;sad;7.0;sad_7.7ns.avi;sad;7.0;congruent;130.0;160.0;192.40728800739942;;;;;0;56;56;56;;;;;;;793.1398687998299;None;794.9477025999222;795.2644463998731;796.4812016999349;796.4979505999945;802.3978804999497;None;7;0;0.5869837999343872;802.3978804999497;None;;;;;;;;2;;;;;;803.9477017999161;None;None;None;[];803.9477017999161;None;"['7', '7', '7', '7']";803.9477017999161;None;"[0.26904379995539784, 0.5170465998817235, 0.8212592999916524, 1.4131928000133485]";;;S10795;2021_Aug_03_1734;VideoMask;2021.1.2;119.9565757799277;
3.0;m;013_y_m_h_a.jpg;happy;9.0;sad_113.2.wmv;sad;7.0;incongruent;120.0;160.0;219.6544115751568;;;;;0;57;57;57;;;;;;;806.9560257999692;None;808.9974267999642;809.3141508998815;810.4475344999228;810.4641668999102;812.4476085000206;None;7;0;1.2331813999917358;812.4476085000206;None;;;;;;;;4;;;;;;813.9973508999683;None;None;None;[];813.9973508999683;None;['7'];813.9973508999683;None;[0.3156284000724554];;;S10795;2021_Aug_03_1734;VideoMask;2021.1.2;119.9565757799277;
4.0;m;004_o_m_h_a.jpg;happy;9.0;happy_25.1ns.avi;happy;9.0;congruent;140.0;150.0;237.98255695511958;;;;;0;58;58;58;;;;;;;816.9975308999419;None;819.1805765000172;819.4972691999283;820.7472663000226;820.7638965998776;824.3222530998755;None;9;0;0.38257219991646707;824.3222530998755;None;;;;;;;;7;;;;;;825.8720829000231;None;None;None;[];825.8720829000231;None;"['9', '9']";825.8720829000231;None;"[0.4407251998782158, 0.6968676999676973]";;;S10795;2021_Aug_03_1734;VideoMask;2021.1.2;119.9565757799277;
0.0;f;030_o_f_h_a.jpg;happy;9.0;sad_127.1.wmv;sad;7.0;incongruent;120.0;160.0;231.85538291836468;;;;;0;59;59;59;;;;;;;828.8804946998134;None;831.0218326998875;831.3386432998814;832.4636494999286;832.4802492999006;834.472035399871;None;7;0;0.6969610000960529;834.472035399871;None;;;;;;;;3;;;;;;836.0216069000307;None;None;None;[];836.0216069000307;None;"['7', '7', '7', '7']";836.0216069000307;None;"[0.2752974999602884, 0.6113473000004888, 1.4114266999531537, 1.7313800000119954]";;;S10795;2021_Aug_03_1734;VideoMask;2021.1.2;119.9565757799277;
;;;;;;;;;;;;;;;;;;;;;;;;;;;;;;;;;;;;;;;;;;;;;;;;;;;;;;;;;;;;;;;839.0301035000011;None;;;;;;
