primePerson;primeGender;prime;primeEmotion;corrAnsPrime;target;targetEmotion;corrAnsTar;Cond;ID_Primer;ID_Target;JitterTime;Condition;example.thisRepN;example.thisTrialN;example.thisN;example.thisIndex;study.thisRepN;study.thisTrialN;study.thisN;study.thisIndex;MR_trigger_time;MR_trigger_number;text_intro.started;text_intro.stopped;text_probe.started;text_probe.stopped;polygon_ISI.started;polygon_ISI.stopped;polygon.started;polygon.stopped;primerImage.started;primerImage.stopped;response.started;response.stopped;key_resp.keys;key_resp.corr;key_resp.started;key_resp.stopped;slider_Text.started;slider_Text.stopped;slider_ex.response;slider_ex.rt;slider_ex.history;slider_ex.started;slider_ex.stopped;Rating;slider_resp_response.keys;slider_resp_response.started;slider_resp_response.stopped;text_start.started;text_start.stopped;text_slider.started;text_slider.stopped;slider_stud.response;slider_stud.rt;slider_stud.history;slider_stud.started;slider_stud.stopped;slider_resp_study.keys;slider_resp_study.started;slider_resp_study.stopped;slider_resp_study.rt;key_resp.rt;text_ende.started;text_ende.stopped;participant;date;expName;psychopyVersion;frameRate;
1111;m;1111_m_m_h_a.jpg;happy;9;example_30.4ns.avi;neutral;7;incongruent;120.0;170.0;189.5874364012288;;0;0;0;0;;;;;64.93803339987062;1;65.01537090004422;67.01561339991167;67.01561339991167;None;69.04115019994788;None;71.27354439999908;71.59038099995814;72.77364909998141;72.79029159992933;77.06515759998001;None;None;0;77.06515759998001;None;78.61511970008723;None;None;None;[];78.61511970008723;None;5;None;78.61511970008723;None;;;;;;;;;;;;;;;;;S11633;2022_Aug_02_1907;VideoMask;2021.1.2;120.14624216841948;
1113;f;1113_y_f_s_a.jpg;sad;7;example_30.3ns.avi;neutral;7;incongruent;130.0;170.0;229.02432995836998;;0;1;1;1;;;;;;;;;;;81.64843469997868;None;83.75651660002768;84.07319419994019;85.2648416000884;85.2814050000161;87.20651199994609;None;None;0;87.20651199994609;None;88.75648329989053;None;None;None;[];88.75648329989053;None;5;None;88.75648329989053;None;;;;;;;;;;;;;;;;;S11633;2022_Aug_02_1907;VideoMask;2021.1.2;120.14624216841948;
9.0;f;019_m_f_h_a.jpg;happy;9.0;sad_115.1.wmv;sad;7.0;incongruent;120.0;160.0;128.09063432376465;h_s;;;;;0;0;0;0;;;;;;;92.78963780007325;None;94.06448739999905;94.3811591998674;95.53164719999768;95.55603799992241;97.51440449990332;None;None;0;97.51440449990332;None;;;;;;;;5;;;;91.78138200007379;None;99.0643124000635;None;None;None;[];99.0643124000635;None;None;99.0643124000635;None;;;;;S11633;2022_Aug_02_1907;VideoMask;2021.1.2;120.14624216841948;
3.0;m;033_o_m_s_a.jpg;sad;7.0;sad_94.2ns.avi;sad;7.0;congruent;130.0;160.0;182.29120173647655;s_s;;;;;0;1;1;1;;;;;;;102.09774539992213;None;103.80572149995714;104.12247109995224;105.24760879995301;105.2640632998664;107.94754140009172;None;None;0;107.94754140009172;None;;;;;;;;5;;;;;;109.49739639996551;None;None;None;[];109.49739639996551;None;None;109.49739639996551;None;;;;;S11633;2022_Aug_02_1907;VideoMask;2021.1.2;120.14624216841948;
8.0;m;008_y_m_h_a.jpg;happy;9.0;happy_26.1ns.avi;happy;9.0;congruent;120.0;150.0;155.9437854594882;h_h;;;;;0;2;2;2;;;;;;;112.52236509998329;None;114.0138266000431;114.33054740005173;115.46391379996203;115.48043089988641;117.45560389989987;None;None;0;117.45560389989987;None;;;;;;;;5;;;;;;119.01367140002549;None;None;None;[];119.01367140002549;None;None;119.01367140002549;None;;;;;S11633;2022_Aug_02_1907;VideoMask;2021.1.2;120.14624216841948;
0.0;f;040_y_f_h_a.jpg;happy;9.0;sad_138.1.wmv;sad;7.0;incongruent;120.0;160.0;133.99071306426532;h_s;;;;;0;3;3;3;;;;;;;122.03020789986476;None;123.35522240004502;123.67192310001701;124.79694969998673;124.81345540005714;126.80520349997096;None;None;0;126.80520349997096;None;;;;;;;;5;;;;;;128.35498369997367;None;None;None;[];128.35498369997367;None;None;128.35498369997367;None;;;;;S11633;2022_Aug_02_1907;VideoMask;2021.1.2;120.14624216841948;
8.0;f;028_y_f_s_a.jpg;sad;7.0;sad_64.2ns.avi;sad;7.0;congruent;130.0;160.0;229.88540597086478;s_s;;;;;0;4;4;4;;;;;;;131.3715542999562;None;133.5214845999144;133.83826319989748;135.0053379999008;135.02990529988892;145.97125900001265;None;None;0;145.97125900001265;None;;;;;;;;5;;;;;;147.5209880999755;None;None;None;[];147.5209880999755;None;None;147.5209880999755;None;;;;;S11633;2022_Aug_02_1907;VideoMask;2021.1.2;120.14624216841948;
7.0;m;027_o_m_s_a.jpg;sad;7.0;sad_10.4ns.avi;sad;7.0;congruent;130.0;160.0;185.20129417468752;s_s;;;;;0;5;5;5;;;;;;;150.54589419998229;None;152.2875693999231;152.6041931998916;153.7550009000115;153.77919479995035;156.90413379995152;None;None;0;156.90413379995152;None;;;;;;;;5;;;;;;158.4627618000377;None;None;None;[];158.4627618000377;None;None;158.4627618000377;None;;;;;S11633;2022_Aug_02_1907;VideoMask;2021.1.2;120.14624216841948;
2.0;f;012_o_f_s_a.jpg;sad;7.0;sad_7.5ns.avi;sad;7.0;congruent;130.0;160.0;220.27842655424388;s_s;;;;;0;6;6;6;;;;;;;161.48719289992005;None;163.5121605999302;163.82896109996364;165.03706909995526;165.05373220006004;167.75406769989058;None;None;0;167.75406769989058;None;;;;;;;;5;;;;;;169.32884919992648;None;None;None;[];169.32884919992648;None;None;169.32884919992648;None;;;;;S11633;2022_Aug_02_1907;VideoMask;2021.1.2;120.14624216841948;
2.0;f;012_o_f_h_a.jpg;happy;9.0;happy_27.1ns.avi;happy;9.0;congruent;120.0;150.0;146.44967055810616;h_h;;;;;0;7;7;7;;;;;;;172.3620553999208;None;173.7784599000588;174.09525009989738;175.3116303998977;175.32868600008078;177.7203945000656;None;None;0;177.7203945000656;None;;;;;;;;5;;;;;;179.27002030005679;None;None;None;[];179.27002030005679;None;None;179.27002030005679;None;;;;;S11633;2022_Aug_02_1907;VideoMask;2021.1.2;120.14624216841948;
8.0;f;028_y_f_h_a.jpg;happy;9.0;sad_119.1.wmv;sad;7.0;incongruent;120.0;160.0;148.71526953572538;h_s;;;;;0;8;8;8;;;;;;;182.30335699999705;None;183.74474649992771;184.0616303998977;185.19493720005266;185.21160769998096;187.26153069990687;None;None;0;187.26153069990687;None;;;;;;;;5;;;;;;188.80297499988228;None;None;None;[];188.80297499988228;None;None;188.80297499988228;None;;;;;S11633;2022_Aug_02_1907;VideoMask;2021.1.2;120.14624216841948;
6.0;m;016_y_m_s_a.jpg;sad;7.0;happy_60.4ns.avi;happy;9.0;incongruent;130.0;150.0;126.02367393611817;s_h;;;;;0;9;9;9;;;;;;;191.84475159994327;None;193.1110807999503;193.4279280998744;194.60363829997368;194.62787030008622;200.36943199997768;None;None;0;200.36943199997768;None;;;;;;;;5;;;;;;201.91924010007642;None;None;None;[];201.91924010007642;None;None;201.91924010007642;None;;;;;S11633;2022_Aug_02_1907;VideoMask;2021.1.2;120.14624216841948;
9.0;f;019_m_f_s_a.jpg;sad;7.0;sad_8.4ns.avi;sad;7.0;congruent;130.0;160.0;171.6633093155257;s_s;;;;;0;10;10;10;;;;;;;204.93586859991774;None;206.59408769989386;206.91925580007955;208.1524722999893;208.16911639994942;216.18624239997007;None;None;0;216.18624239997007;None;;;;;;;;5;;;;;;217.79367049993016;None;None;None;[];217.79367049993016;None;None;217.79367049993016;None;;;;;S11633;2022_Aug_02_1907;VideoMask;2021.1.2;120.14624216841948;
4.0;m;004_o_m_h_a.jpg;happy;9.0;happy_1.1ns.avi;happy;9.0;congruent;120.0;150.0;203.50057144619865;h_h;;;;;0;11;11;11;;;;;;;220.81881770002656;None;222.77684809989296;223.0936984999571;224.268779899925;224.2853163999971;238.70998889999464;None;None;0;238.70998889999464;None;;;;;;;;5;;;;;;240.259707899997;None;None;None;[];240.259707899997;None;None;240.259707899997;None;;;;;S11633;2022_Aug_02_1907;VideoMask;2021.1.2;120.14624216841948;
7.0;m;027_o_m_h_a.jpg;happy;9.0;happy_20.1ns.avi;happy;9.0;congruent;120.0;150.0;152.91127178874285;h_h;;;;;0;12;12;12;;;;;;;243.2845574999228;None;244.76774520007893;245.08456639992073;246.2593817000743;246.2761140000075;249.23460919992067;None;None;0;249.23460919992067;None;;;;;;;;5;;;;;;250.7842494000215;None;None;None;[];250.7842494000215;None;None;250.7842494000215;None;;;;;S11633;2022_Aug_02_1907;VideoMask;2021.1.2;120.14624216841948;
0.0;f;040_y_f_s_a.jpg;sad;7.0;sad_94.3ns.avi;sad;7.0;congruent;130.0;160.0;155.27414203894395;s_s;;;;;0;13;13;13;;;;;;;253.80081889987923;None;255.30907880002633;255.62590039987117;256.85910549992695;256.87586629996076;259.38414300000295;None;None;0;259.38414300000295;None;;;;;;;;5;;;;;;260.9341601000633;None;None;None;[];260.9341601000633;None;None;260.9341601000633;None;;;;;S11633;2022_Aug_02_1907;VideoMask;2021.1.2;120.14624216841948;
0.0;f;030_o_f_s_a.jpg;sad;7.0;sad_68.1ns.avi;sad;7.0;congruent;130.0;160.0;158.9411396037211;s_s;;;;;0;14;14;14;;;;;;;263.9673393999692;None;265.50884260004386;265.8255441999063;267.03393110004254;267.0506045999937;274.38366899988614;None;None;0;274.38366899988614;None;;;;;;;;5;;;;;;275.93341769999824;None;None;None;[];275.93341769999824;None;None;275.93341769999824;None;;;;;S11633;2022_Aug_02_1907;VideoMask;2021.1.2;120.14624216841948;
0.0;f;030_o_f_h_a.jpg;happy;9.0;sad_127.1.wmv;sad;7.0;incongruent;120.0;160.0;180.59976631384873;h_s;;;;;0;15;15;15;;;;;;;278.9500877999235;None;280.6583618998993;280.97509979992174;282.1002017999999;282.11672709998675;284.1167613998987;None;None;0;284.1167613998987;None;;;;;;;;5;;;;;;285.6748394998722;None;None;None;[];285.6748394998722;None;None;285.6748394998722;None;;;;;S11633;2022_Aug_02_1907;VideoMask;2021.1.2;120.14624216841948;
8.0;m;008_y_m_s_a.jpg;sad;7.0;happy_133.3.wmv;happy;9.0;incongruent;130.0;150.0;152.577966552593;s_h;;;;;0;16;16;16;;;;;;;288.69969630008563;None;290.18303729989566;290.49973160005175;291.62480170000345;291.64133220002986;293.6413588998839;None;None;0;293.6413588998839;None;;;;;;;;5;;;;;;295.31612539989874;None;None;None;[];295.31612539989874;None;None;295.31612539989874;None;;;;;S11633;2022_Aug_02_1907;VideoMask;2021.1.2;120.14624216841948;
3.0;m;033_o_m_h_a.jpg;happy;9.0;sad_128.1.wmv;sad;7.0;incongruent;120.0;160.0;171.0492454518585;h_s;;;;;0;17;17;17;;;;;;;298.3327248999849;None;299.9742618999444;300.2910356000066;301.4331038999371;301.45753360004164;303.4243815999944;None;None;0;303.4243815999944;None;;;;;;;;5;;;;;;304.97433970007114;None;None;None;[];304.97433970007114;None;None;304.97433970007114;None;;;;;S11633;2022_Aug_02_1907;VideoMask;2021.1.2;120.14624216841948;
1.0;f;021_o_f_h_a.jpg;happy;9.0;sad_116.1.wmv;sad;7.0;incongruent;120.0;160.0;184.06847610053055;h_s;;;;;0;18;18;18;;;;;;;307.99912380008027;None;309.7406730998773;310.0574054000899;311.1911714000162;311.2158226999454;313.1907808999531;None;None;0;313.1907808999531;None;;;;;;;;5;;;;;;314.74052969994955;None;None;None;[];314.74052969994955;None;None;314.74052969994955;None;;;;;S11633;2022_Aug_02_1907;VideoMask;2021.1.2;120.14624216841948;
4.0;m;004_o_m_s_a.jpg;sad;7.0;happy_28.1ns.avi;happy;9.0;incongruent;130.0;150.0;157.40741103039684;s_h;;;;;0;19;19;19;;;;;;;317.75705850007944;None;319.2737135000061;319.59046410000883;320.7653089000378;320.7819983998779;325.11531029990874;None;None;0;325.11531029990874;None;;;;;;;;5;;;;;;326.6568402000703;None;None;None;[];326.6568402000703;None;None;326.6568402000703;None;;;;;S11633;2022_Aug_02_1907;VideoMask;2021.1.2;120.14624216841948;
8.0;f;028_y_f_s_a.jpg;sad;7.0;happy_122.3.wmv;happy;9.0;incongruent;130.0;150.0;171.8670540936116;s_h;;;;;0;20;20;20;;;;;;;329.6818208999466;None;331.3399829999544;331.65670270007104;332.7899982999079;332.80670260009356;334.7899935999885;None;None;0;334.7899935999885;None;;;;;;;;5;;;;;;336.3398046998773;None;None;None;[];336.3398046998773;None;None;336.3398046998773;None;;;;;S11633;2022_Aug_02_1907;VideoMask;2021.1.2;120.14624216841948;
8.0;m;008_y_m_s_a.jpg;sad;7.0;sad_6.5ns.avi;sad;7.0;congruent;130.0;160.0;170.39333839271438;s_s;;;;;0;21;21;21;;;;;;;339.35640769987367;None;340.997973700054;341.314674400026;342.514537199866;342.5312427999452;347.4562484000344;None;None;0;347.4562484000344;None;;;;;;;;5;;;;;;349.0060552000068;None;None;None;[];349.0060552000068;None;None;349.0060552000068;None;;;;;S11633;2022_Aug_02_1907;VideoMask;2021.1.2;120.14624216841948;
8.0;f;028_y_f_h_a.jpg;happy;9.0;happy_23.1ns.avi;happy;9.0;congruent;120.0;150.0;225.70986890587952;h_h;;;;;0;22;22;22;;;;;;;352.0226459999103;None;354.10596229997464;354.4225450998638;355.63973019993864;355.6640921998769;360.1309569000732;None;None;0;360.1309569000732;None;;;;;;;;5;;;;;;361.6806089000311;None;None;None;[];361.6806089000311;None;None;361.6806089000311;None;;;;;S11633;2022_Aug_02_1907;VideoMask;2021.1.2;120.14624216841948;
8.0;m;008_y_m_h_a.jpg;happy;9.0;sad_111.1.wmv;sad;7.0;incongruent;120.0;160.0;152.63076835312847;h_s;;;;;0;23;23;23;;;;;;;364.70549610001035;None;366.18040609988384;366.4971278999001;367.63052699994296;367.64724100008607;369.6388964999933;None;None;0;369.6388964999933;None;;;;;;;;5;;;;;;371.1969365000259;None;None;None;[];371.1969365000259;None;None;371.1969365000259;None;;;;;S11633;2022_Aug_02_1907;VideoMask;2021.1.2;120.14624216841948;
0.0;f;040_y_f_s_a.jpg;sad;7.0;sad_67.2ns.avi;sad;7.0;congruent;130.0;160.0;220.9892697323079;s_s;;;;;0;24;24;24;;;;;;;374.213608100079;None;376.2718487000093;376.58848479995504;377.82194359996356;377.83961439994164;386.94672079989687;None;None;0;386.94672079989687;None;;;;;;;;5;;;;;;388.49638730008155;None;None;None;[];388.49638730008155;None;None;388.49638730008155;None;;;;;S11633;2022_Aug_02_1907;VideoMask;2021.1.2;120.14624216841948;
8.0;m;008_y_m_s_a.jpg;sad;7.0;happy_29.1ns.avi;happy;9.0;incongruent;130.0;150.0;120.0316142834122;s_h;;;;;0;25;25;25;;;;;;;391.51292139990255;None;392.7212350999471;393.038000700064;394.2051061000675;394.2300690000411;396.86302879988216;None;None;0;396.86302879988216;None;;;;;;;;5;;;;;;398.4129423999693;None;None;None;[];398.4129423999693;None;None;398.4129423999693;None;;;;;S11633;2022_Aug_02_1907;VideoMask;2021.1.2;120.14624216841948;
6.0;m;016_y_m_s_a.jpg;sad;7.0;sad_8.3ns.avi;sad;7.0;congruent;130.0;160.0;152.85371098242734;s_s;;;;;0;26;26;26;;;;;;;401.437649599975;None;402.93755499995314;403.2542965998873;404.47092729993165;404.48758030007593;412.14584539993666;None;None;0;412.14584539993666;None;;;;;;;;5;;;;;;413.69558479986154;None;None;None;[];413.69558479986154;None;None;413.69558479986154;None;;;;;S11633;2022_Aug_02_1907;VideoMask;2021.1.2;120.14624216841948;
6.0;m;016_y_m_h_a.jpg;happy;9.0;sad_114.1.wmv;sad;7.0;incongruent;120.0;160.0;136.20550699298644;h_s;;;;;0;27;27;27;;;;;;;416.72900109994225;None;418.07050230004825;418.387187599903;419.57057929993607;419.58715909998864;421.5204582000151;None;None;0;421.5204582000151;None;;;;;;;;5;;;;;;423.07047969987616;None;None;None;[];423.07047969987616;None;None;423.07047969987616;None;;;;;S11633;2022_Aug_02_1907;VideoMask;2021.1.2;120.14624216841948;
7.0;m;027_o_m_s_a.jpg;sad;7.0;happy_117.3.wmv;happy;9.0;incongruent;130.0;150.0;215.61964028550614;s_h;;;;;0;28;28;28;;;;;;;426.10367250000127;None;428.1034526999574;428.4201302998699;429.5452755999286;429.56176920002326;431.56245690002106;None;None;0;431.56245690002106;None;;;;;;;;5;;;;;;433.1615655000787;None;None;None;[];433.1615655000787;None;None;433.1615655000787;None;;;;;S11633;2022_Aug_02_1907;VideoMask;2021.1.2;120.14624216841948;
6.0;m;016_y_m_h_a.jpg;happy;9.0;happy_9.2ns.avi;happy;9.0;congruent;120.0;150.0;130.52042428082717;h_h;;;;;0;29;29;29;;;;;;;436.17823609989136;None;437.4864574999083;437.80326749989763;438.96983129996806;438.98712820000947;444.8613829999231;None;None;0;444.8613829999231;None;;;;;;;;5;;;;;;446.4113417000044;None;None;None;[];446.4113417000044;None;None;446.4113417000044;None;;;;;S11633;2022_Aug_02_1907;VideoMask;2021.1.2;120.14624216841948;
0.0;f;040_y_f_s_a.jpg;sad;7.0;happy_127.3.wmv;happy;9.0;incongruent;130.0;150.0;131.7195455720239;s_h;;;;;0;30;30;30;;;;;;;449.43603469990194;None;450.73604049999267;451.0527158000041;452.17781229992397;452.19443989987485;454.2527167999651;None;None;0;454.2527167999651;None;;;;;;;;5;;;;;;455.80333760008216;None;None;None;[];455.80333760008216;None;None;455.80333760008216;None;;;;;S11633;2022_Aug_02_1907;VideoMask;2021.1.2;120.14624216841948;
0.0;f;030_o_f_s_a.jpg;sad;7.0;happy_125.3.wmv;happy;9.0;incongruent;130.0;150.0;220.51454909128134;s_h;;;;;0;31;31;31;;;;;;;458.8275194000453;None;460.8773683998734;461.1940784000326;462.327374599874;462.344110700069;464.327479199972;None;None;0;464.327479199972;None;;;;;;;;5;;;;;;465.877157199895;None;None;None;[];465.877157199895;None;None;465.877157199895;None;;;;;S11633;2022_Aug_02_1907;VideoMask;2021.1.2;120.14624216841948;
0.0;f;030_o_f_s_a.jpg;sad;7.0;sad_64.3ns.avi;sad;7.0;congruent;130.0;160.0;165.78667874766072;s_s;;;;;0;32;32;32;;;;;;;468.8937186000403;None;470.48539789998904;470.80209259991534;471.9854959999211;472.00205409992486;476.93533689994365;None;None;0;476.93533689994365;None;;;;;;;;5;;;;;;478.4850997000467;None;None;None;[];478.4850997000467;None;None;478.4850997000467;None;;;;;S11633;2022_Aug_02_1907;VideoMask;2021.1.2;120.14624216841948;
3.0;m;013_y_m_s_a.jpg;sad;7.0;sad_7.7ns.avi;sad;7.0;congruent;130.0;160.0;196.24182255763262;s_s;;;;;0;33;33;33;;;;;;;481.5016951998696;None;483.35154940001667;483.6683958999347;484.8098903999198;484.83510449994355;490.8105786999222;None;None;0;490.8105786999222;None;;;;;;;;5;;;;;;492.40961669990793;None;None;None;[];492.40961669990793;None;None;492.40961669990793;None;;;;;S11633;2022_Aug_02_1907;VideoMask;2021.1.2;120.14624216841948;
3.0;m;013_y_m_h_a.jpg;happy;9.0;happy_9.1ns.avi;happy;9.0;congruent;120.0;150.0;165.1890303600433;h_h;;;;;0;34;34;34;;;;;;;495.4262365999166;None;497.02617729990743;497.3428759998642;498.51792240003124;498.5346123999916;501.7094592000358;None;None;0;501.7094592000358;None;;;;;;;;5;;;;;;503.25934870005585;None;None;None;[];503.25934870005585;None;None;503.25934870005585;None;;;;;S11633;2022_Aug_02_1907;VideoMask;2021.1.2;120.14624216841948;
4.0;m;004_o_m_h_a.jpg;happy;9.0;sad_95.1ns.avi;sad;7.0;incongruent;120.0;160.0;152.68270002069931;h_s;;;;;0;35;35;35;;;;;;;506.2927168000024;None;507.79260839987546;508.10917919990607;509.30928159994073;509.3260826000478;518.0339071000926;None;None;0;518.0339071000926;None;;;;;;;;5;;;;;;519.5839233000297;None;None;None;[];519.5839233000297;None;None;519.5839233000297;None;;;;;S11633;2022_Aug_02_1907;VideoMask;2021.1.2;120.14624216841948;
3.0;m;013_y_m_h_a.jpg;happy;9.0;sad_113.2.wmv;sad;7.0;incongruent;120.0;160.0;217.4973891947951;h_s;;;;;0;36;36;36;;;;;;;522.608641800005;None;524.6335775000043;524.9502558000386;526.075333399931;526.0918973998632;528.0836372999474;None;None;0;528.0836372999474;None;;;;;;;;5;;;;;;529.6335956999101;None;None;None;[];529.6335956999101;None;None;529.6335956999101;None;;;;;S11633;2022_Aug_02_1907;VideoMask;2021.1.2;120.14624216841948;
4.0;m;004_o_m_h_a.jpg;happy;9.0;happy_25.1ns.avi;happy;9.0;congruent;120.0;150.0;216.63044503818386;h_h;;;;;0;37;37;37;;;;;;;532.6582736999262;None;534.6665918000508;534.9833150000777;536.1083255000412;536.1250350000337;539.8083472999278;None;None;0;539.8083472999278;None;;;;;;;;5;;;;;;541.3747016000561;None;None;None;[];541.3747016000561;None;None;541.3747016000561;None;;;;;S11633;2022_Aug_02_1907;VideoMask;2021.1.2;120.14624216841948;
4.0;m;004_o_m_s_a.jpg;sad;7.0;happy_131.2.wmv;happy;9.0;incongruent;130.0;150.0;181.38407540847405;s_h;;;;;0;38;38;38;;;;;;;544.408095400082;None;546.1245991000906;546.4413330000825;547.5828788999934;547.5993987999391;549.5745999999344;None;None;0;549.5745999999344;None;;;;;;;;5;;;;;;551.1245629999321;None;None;None;[];551.1245629999321;None;None;551.1245629999321;None;;;;;S11633;2022_Aug_02_1907;VideoMask;2021.1.2;120.14624216841948;
0.0;f;040_y_f_h_a.jpg;happy;9.0;happy_24.3ns.avi;happy;9.0;congruent;120.0;150.0;213.25460698950434;h_h;;;;;0;39;39;39;;;;;;;554.1409901999868;None;556.1075567998923;556.4242908000015;557.6493160000537;557.6659111999907;559.4825881000143;None;None;0;559.4825881000143;None;;;;;;;;5;;;;;;561.0325837000273;None;None;None;[];561.0325837000273;None;None;561.0325837000273;None;;;;;S11633;2022_Aug_02_1907;VideoMask;2021.1.2;120.14624216841948;
2.0;f;012_o_f_s_a.jpg;sad;7.0;happy_139.1.wmv;happy;9.0;incongruent;130.0;150.0;162.31500468041804;s_h;;;;;0;40;40;40;;;;;;;564.0573014998809;None;565.6155852000229;565.9322830000892;567.0660703999456;567.090660699876;569.0655775000341;None;None;0;569.0655775000341;None;;;;;;;;5;;;;;;570.6153818999883;None;None;None;[];570.6153818999883;None;None;570.6153818999883;None;;;;;S11633;2022_Aug_02_1907;VideoMask;2021.1.2;120.14624216841948;
0.0;f;030_o_f_h_a.jpg;happy;9.0;happy_24.1ns.avi;happy;9.0;congruent;120.0;150.0;168.36256624020774;h_h;;;;;0;41;41;41;;;;;;;573.6320020998828;None;575.2652527999599;575.581979499897;576.7403470999561;576.7569780000485;580.0403942000121;None;None;0;580.0403942000121;None;;;;;;;;5;;;;;;581.589988599997;None;None;None;[];581.589988599997;None;None;581.589988599997;None;;;;;S11633;2022_Aug_02_1907;VideoMask;2021.1.2;120.14624216841948;
2.0;f;012_o_f_h_a.jpg;happy;9.0;sad_113.1.wmv;sad;7.0;incongruent;120.0;160.0;177.44551734737394;h_s;;;;;0;42;42;42;;;;;;;584.6233969999012;None;586.3065178999677;586.6232688999735;587.756471700035;587.7732907000463;589.7565673000645;None;None;0;589.7565673000645;None;;;;;;;;5;;;;;;591.306331000058;None;None;None;[];591.306331000058;None;None;591.306331000058;None;;;;;S11633;2022_Aug_02_1907;VideoMask;2021.1.2;120.14624216841948;
3.0;m;033_o_m_s_a.jpg;sad;7.0;sad_64.5ns.avi;sad;7.0;congruent;130.0;160.0;130.55717223801247;s_s;;;;;0;43;43;43;;;;;;;594.3229737998918;None;595.6228893999942;595.9396126999054;597.1313310000114;597.147940200055;603.656298100017;None;None;0;603.656298100017;None;;;;;;;;5;;;;;;605.205872300081;None;None;None;[];605.205872300081;None;None;605.205872300081;None;;;;;S11633;2022_Aug_02_1907;VideoMask;2021.1.2;120.14624216841948;
7.0;m;027_o_m_h_a.jpg;happy;9.0;sad_117.1.wmv;sad;7.0;incongruent;120.0;160.0;181.28665202824095;h_s;;;;;0;44;44;44;;;;;;;608.2225494000595;None;609.9641440000851;610.2808904999401;611.414265899919;611.4309104999993;613.4141547998879;None;None;0;613.4141547998879;None;;;;;;;;5;;;;;;614.9639630999882;None;None;None;[];614.9639630999882;None;None;614.9639630999882;None;;;;;S11633;2022_Aug_02_1907;VideoMask;2021.1.2;120.14624216841948;
3.0;m;033_o_m_s_a.jpg;sad;7.0;happy_126.3.wmv;happy;9.0;incongruent;130.0;150.0;198.85252030535366;s_h;;;;;0;45;45;45;;;;;;;617.997127499897;None;619.8638267000206;620.1805694000795;621.3138071000576;621.3305361000821;623.3221726000775;None;None;0;623.3221726000775;None;;;;;;;;5;;;;;;624.8802267999854;None;None;None;[];624.8802267999854;None;None;624.8802267999854;None;;;;;S11633;2022_Aug_02_1907;VideoMask;2021.1.2;120.14624216841948;
3.0;m;033_o_m_h_a.jpg;happy;9.0;sad_136.1.wmv;sad;7.0;incongruent;120.0;160.0;176.97002883463455;h_s;;;;;0;46;46;46;;;;;;;627.9136447999626;None;629.5967894999776;629.9133895998821;631.0386025998741;631.0551694000605;633.0467713000253;None;None;0;633.0467713000253;None;;;;;;;;4;;;;;;634.5966977998614;None;None;None;[];634.5966977998614;None;['7'];634.5966977998614;None;[0.08791129989549518];;;;S11633;2022_Aug_02_1907;VideoMask;2021.1.2;120.14624216841948;
9.0;f;019_m_f_h_a.jpg;happy;9.0;happy_10.1ns.avi;happy;9.0;congruent;120.0;150.0;157.2463435658512;h_h;;;;;0;47;47;47;;;;;;;637.5967083999421;None;639.113126100041;639.4298409000039;640.5798180000857;640.5964963000733;648.0131238999311;None;8;0;648.0131238999311;None;;;;;;;;5;;;;;;649.6629306999967;None;None;None;[];649.6629306999967;None;None;649.6629306999967;None;;1.1914479001425207;;;S11633;2022_Aug_02_1907;VideoMask;2021.1.2;120.14624216841948;
2.0;f;012_o_f_h_a.jpg;happy;9.0;happy_2.2ns.avi;happy;9.0;congruent;120.0;150.0;206.34800317295262;h_h;;;;;0;48;48;48;;;;;;;652.6877919998951;None;654.6458944000769;654.9626819998957;656.1377864000387;656.1543686999939;668.3040217999369;None;9;0;668.3040217999369;None;;;;;;;;7;;;;;;669.8622610999737;None;None;None;[];669.8622610999737;None;"['9', '9']";669.8622610999737;None;"[0.8781823001336306, 1.4702355000190437]";1.0764695000834763;;;S11633;2022_Aug_02_1907;VideoMask;2021.1.2;120.14624216841948;
3.0;m;033_o_m_h_a.jpg;happy;9.0;happy_24.2ns.avi;happy;9.0;congruent;120.0;150.0;167.9423847659953;h_h;;;;;0;49;49;49;;;;;;;672.8705954998732;None;674.4703088998795;674.7869321999606;676.0037350999191;676.0203782999888;679.6535726999864;None;9;0;679.6535726999864;None;;;;;;;;7;;;;;;681.1952233000193;None;None;None;[];681.1952233000193;None;"['9', '9']";681.1952233000193;None;"[1.1933563998900354, 1.7212743998970836]";0.41491399984806776;;;S11633;2022_Aug_02_1907;VideoMask;2021.1.2;120.14624216841948;
1.0;f;021_o_f_s_a.jpg;sad;7.0;happy_61.2ns.avi;happy;9.0;incongruent;130.0;150.0;210.94664004826666;s_h;;;;;0;50;50;50;;;;;;;684.1952543999068;None;686.1532566999085;686.4699782000389;687.6448190000374;687.6866460999008;692.128100699978;None;8;0;692.128100699978;None;;;;;;;;5;;;;;;693.6780785000883;None;None;None;[];693.6780785000883;None;None;693.6780785000883;None;;0.5648084999993443;;;S11633;2022_Aug_02_1907;VideoMask;2021.1.2;120.14624216841948;
4.0;m;004_o_m_s_a.jpg;sad;7.0;sad_2.4ns.avi;sad;7.0;congruent;130.0;160.0;153.02079367163634;s_s;;;;;0;51;51;51;;;;;;;696.6946290999185;None;698.194498399971;698.5112135000527;699.6617006000597;699.6862975000404;707.6028527999297;None;7;0;707.6028527999297;None;;;;;;;;4;;;;;;709.1693106999155;None;None;None;[];709.1693106999155;None;['7'];709.1693106999155;None;[1.3471311000175774];0.5855416997801512;;;S11633;2022_Aug_02_1907;VideoMask;2021.1.2;120.14624216841948;
8.0;m;008_y_m_h_a.jpg;happy;9.0;happy_1.2ns.avi;happy;9.0;congruent;120.0;150.0;210.98946429383824;h_h;;;;;0;52;52;52;;;;;;;712.1693154999521;None;714.1688969999086;714.4856702000834;715.6441003999207;715.6607516999356;728.4104017000645;None;9;0;728.4104017000645;None;;;;;;;;6;;;;;;729.9602635998745;None;None;None;[];729.9602635998745;None;['9'];729.9602635998745;None;[0.9721610997803509];0.8979096000548452;;;S11633;2022_Aug_02_1907;VideoMask;2021.1.2;120.14624216841948;
2.0;f;012_o_f_s_a.jpg;sad;7.0;happy_52.2ns.avi;happy;9.0;incongruent;130.0;150.0;172.57202848318138;s_h;;;;;0;53;53;53;;;;;;;732.9601972000673;None;734.5933161999565;734.9099759999663;736.1105178999715;736.1351069998927;739.5932952000294;None;8;0;739.5932952000294;None;;;;;;;;5;;;;;;741.1432429999113;None;None;None;[];741.1432429999113;None;None;741.1432429999113;None;;0.8431933000683784;;;S11633;2022_Aug_02_1907;VideoMask;2021.1.2;120.14624216841948;
9.0;f;019_m_f_s_a.jpg;sad;7.0;happy_61.1ns.avi;happy;9.0;incongruent;130.0;150.0;181.3003220572762;s_h;;;;;0;54;54;54;;;;;;;744.1764060000423;None;745.9095938000828;746.2263265000656;747.4180495999753;747.4347035000101;754.7512425000314;None;8;0;754.7512425000314;None;;;;;;;;5;;;;;;756.309422600083;None;None;None;[];756.309422600083;None;None;756.309422600083;None;;1.0055006998591125;;;S11633;2022_Aug_02_1907;VideoMask;2021.1.2;120.14624216841948;
0.0;f;030_o_f_h_a.jpg;happy;9.0;sad_133.1.wmv;sad;7.0;incongruent;120.0;160.0;198.86251500867985;h_s;;;;;0;55;55;55;;;;;;;759.3257935000584;None;761.1923891999759;761.5090514998883;762.6342603000812;762.6508639999665;764.6425810998771;None;7;0;764.6425810998771;None;;;;;;;;4;;;;;;766.1924234000035;None;None;None;[];766.1924234000035;None;['7'];766.1924234000035;None;[1.0040329000912607];0.7857504999265075;;;S11633;2022_Aug_02_1907;VideoMask;2021.1.2;120.14624216841948;
0.0;f;040_y_f_h_a.jpg;happy;9.0;sad_128.2.wmv;sad;7.0;incongruent;120.0;160.0;206.10005857915363;h_s;;;;;0;56;56;56;;;;;;;769.1923718000762;None;771.1087879000697;771.4254862999078;772.5588652000297;772.5753297000192;774.5588177999016;None;7;0;774.5588177999016;None;;;;;;;;4;;;;;;776.1087293000892;None;None;None;[];776.1087293000892;None;['7'];776.1087293000892;None;[0.8875403001438826];0.6935382999945432;;;S11633;2022_Aug_02_1907;VideoMask;2021.1.2;120.14624216841948;
1.0;f;021_o_f_s_a.jpg;sad;7.0;sad_9.5ns.avi;sad;7.0;congruent;130.0;160.0;206.16642757875042;s_s;;;;;0;57;57;57;;;;;;;779.1087102000602;None;781.0333539999556;781.3502406000625;782.4916014000773;782.5083594000898;788.208304699976;None;7;0;788.208304699976;None;;;;;;;;3;;;;;;789.7581791998819;None;None;None;[];789.7581791998819;None;"['7', '7']";789.7581791998819;None;"[0.9501217999495566, 1.390154399909079]";0.6120670998934656;;;S11633;2022_Aug_02_1907;VideoMask;2021.1.2;120.14624216841948;
1.0;f;021_o_f_h_a.jpg;happy;9.0;happy_12.1ns.avi;happy;9.0;congruent;120.0;150.0;132.59080005900228;h_h;;;;;0;58;58;58;;;;;;;792.7666539000347;None;794.0996606999543;794.4163941000588;795.566412499873;795.5831047999673;803.1662546000443;None;9;0;803.1662546000443;None;;;;;;;;6;;;;;;804.7161095999181;None;None;None;[];804.7161095999181;None;['9'];804.7161095999181;None;[0.8000141000375152];0.5100497000385076;;;S11633;2022_Aug_02_1907;VideoMask;2021.1.2;120.14624216841948;
3.0;m;013_y_m_s_a.jpg;sad;7.0;happy_56.2ns.avi;happy;9.0;incongruent;130.0;150.0;163.39234110935848;s_h;;;;;0;59;59;59;;;;;;;807.7160215000622;None;809.2908238000236;809.607568099862;810.8323069000617;810.8491448999848;815.7659038999118;None;8;0;815.7659038999118;None;;;;;;;;5;;;;;;817.3157166999299;None;None;None;[];817.3157166999299;None;None;817.3157166999299;None;;0.6143164001405239;;;S11633;2022_Aug_02_1907;VideoMask;2021.1.2;120.14624216841948;
;;;;;;;;;;;;;;;;;;;;;;;;;;;;;;;;;;;;;;;;;;;;;;;;;;;;;;;;;;;;;;;;820.3406189000234;None;;;;;;
