primePerson;primeGender;prime;primeEmotion;corrAnsPrime;target;targetEmotion;corrAnsTar;Cond;ID_Primer;ID_Target;JitterTime;Condition;example.thisRepN;example.thisTrialN;example.thisN;example.thisIndex;study.thisRepN;study.thisTrialN;study.thisN;study.thisIndex;MR_trigger_time;MR_trigger_number;text_intro.started;text_intro.stopped;text_probe.started;text_probe.stopped;polygon_ISI.started;polygon_ISI.stopped;polygon.started;polygon.stopped;primerImage.started;primerImage.stopped;response.started;response.stopped;key_resp.keys;key_resp.corr;key_resp.rt;key_resp.started;key_resp.stopped;slider_Text.started;slider_Text.stopped;slider_ex.response;slider_ex.rt;slider_ex.history;slider_ex.started;slider_ex.stopped;Rating;slider_resp_response.keys;slider_resp_response.started;slider_resp_response.stopped;slider_resp_response.rt;text_start.started;text_start.stopped;text_slider.started;text_slider.stopped;slider_stud.response;slider_stud.rt;slider_stud.history;slider_stud.started;slider_stud.stopped;slider_resp_study.keys;slider_resp_study.rt;slider_resp_study.started;slider_resp_study.stopped;text_ende.started;text_ende.stopped;participant;date;expName;psychopyVersion;frameRate;
1111;m;1111_m_m_h_a.jpg;happy;9;example_30.4ns.avi;neutral;7;incongruent;120.0;170.0;189.5874364012288;;0;0;0;0;;;;;101.32484160014428;1;101.40236090007238;103.4025769000873;103.4025769000873;None;105.41909690015018;None;107.63575080013834;107.95220160018653;109.09402750013396;109.11075059999712;113.43566870014183;None;8;0;1.2606961000710726;113.43566870014183;None;114.99392130016349;None;None;None;[];114.99392130016349;None;5;None;114.99392130016349;None;;;;;;;;;;;;;;;;;S11187a;2022_Feb_03_1801;VideoMask;2021.1.2;119.88136539065283;
1113;f;1113_y_f_s_a.jpg;sad;7;example_30.3ns.avi;neutral;7;incongruent;130.0;170.0;229.02432995836998;;0;1;1;1;;;;;;;;;;;118.0103659001179;None;120.13522700010799;120.4519101001788;121.60197400022298;121.61861670017242;123.59349100012332;None;8;0;1.2388169998303056;123.59349100012332;None;125.13517980021425;None;None;None;[];125.13517980021425;None;5;"['9', '7']";125.13517980021425;None;"[1.4733597000595182, 1.8412516000680625]";;;;;;;;;;;;;;;;S11187a;2022_Feb_03_1801;VideoMask;2021.1.2;119.88136539065283;
9.0;f;019_m_f_h_a.jpg;happy;9.0;sad_115.1.wmv;sad;7.0;incongruent;120.0;160.0;128.09063432376465;h_s;;;;;0;0;0;0;;;;;;;129.1684136001859;None;130.44322620006278;130.75993460020982;131.91818280005828;131.93480830010958;133.8932855001185;None;None;0;;133.8932855001185;None;;;;;;;;3;;;;;128.14344810019247;None;135.44328040000983;None;None;None;[];135.44328040000983;None;"['7', '7', '7']";"[0.004946500062942505, 1.8688996999990195, 2.749345500022173]";135.44328040000983;None;;;S11187a;2022_Feb_03_1801;VideoMask;2021.1.2;119.88136539065283;
3.0;m;033_o_m_s_a.jpg;sad;7.0;sad_94.2ns.avi;sad;7.0;congruent;130.0;160.0;182.29120173647655;s_s;;;;;0;1;1;1;;;;;;;138.45153920003213;None;140.15967620001175;140.47637580009177;141.60972800012678;141.62637600000016;144.30141340009868;None;8;0;0.9469562999438494;144.30141340009868;None;;;;;;;;4;;;;;;;145.85125680011697;None;None;None;[];145.85125680011697;None;['7'];[1.661575899925083];145.85125680011697;None;;;S11187a;2022_Feb_03_1801;VideoMask;2021.1.2;119.88136539065283;
8.0;m;008_y_m_h_a.jpg;happy;9.0;happy_26.1ns.avi;happy;9.0;congruent;120.0;150.0;155.9437854594882;h_h;;;;;0;2;2;2;;;;;;;148.85962670017034;None;150.34266350022517;150.6593633000739;151.82614460005425;151.8427138000261;153.78437760006636;None;9;0;0.9119718000292778;153.78437760006636;None;;;;;;;;8;;;;;;;155.33430010010488;None;None;None;[];155.33430010010488;None;"['9', '9', '9']";"[0.7782139999326319, 1.266271699918434, 1.930045499932021]";155.33430010010488;None;;;S11187a;2022_Feb_03_1801;VideoMask;2021.1.2;119.88136539065283;
0.0;f;040_y_f_h_a.jpg;happy;9.0;sad_138.1.wmv;sad;7.0;incongruent;120.0;160.0;133.99071306426532;h_s;;;;;0;3;3;3;;;;;;;158.34251960017718;None;159.6590489000082;159.97576590022072;161.10083710006438;161.1174025000073;163.1090602001641;None;8;0;0.9873102998826653;163.1090602001641;None;;;;;;;;5;;;;;;;164.6590218001511;None;None;None;[];164.6590218001511;None;None;;164.6590218001511;None;;;S11187a;2022_Feb_03_1801;VideoMask;2021.1.2;119.88136539065283;
8.0;f;028_y_f_s_a.jpg;sad;7.0;sad_64.2ns.avi;sad;7.0;congruent;130.0;160.0;229.88540597086478;s_s;;;;;0;4;4;4;;;;;;;167.69231190020218;None;169.8336620000191;170.15044770017266;171.32539620017633;171.34200330008753;182.30014450009912;None;7;0;0.9323861999437213;182.30014450009912;None;;;;;;;;1;;;;;;;183.850124000106;None;None;None;[];183.850124000106;None;"['7', '7', '7', '7']";"[0.422127699945122, 0.7903399998322129, 1.262288099853322, 1.8064425999764353]";183.850124000106;None;;;S11187a;2022_Feb_03_1801;VideoMask;2021.1.2;119.88136539065283;
7.0;m;027_o_m_s_a.jpg;sad;7.0;sad_10.4ns.avi;sad;7.0;congruent;130.0;160.0;185.20129417468752;s_s;;;;;0;5;5;5;;;;;;;186.85851280018687;None;188.59982040012255;188.91653850022703;190.05864990013652;190.08325020014308;193.21657410007901;None;None;0;;193.21657410007901;None;;;;;;;;5;;;;;;;194.76648310013115;None;None;None;[];194.76648310013115;None;None;;194.76648310013115;None;;;S11187a;2022_Feb_03_1801;VideoMask;2021.1.2;119.88136539065283;
2.0;f;012_o_f_s_a.jpg;sad;7.0;sad_7.5ns.avi;sad;7.0;congruent;130.0;160.0;220.27842655424388;s_s;;;;;0;6;6;6;;;;;;;197.79144160007127;None;199.8162042000331;200.13289810018614;201.282959200209;201.29946830007248;204.05834990018047;None;7;0;0.5980853999499232;204.05834990018047;None;;;;;;;;2;;;;;;;205.62448380002752;None;None;None;[];205.62448380002752;None;"['7', '7', '7', '7']";"[0.4960418997798115, 0.8641483997926116, 1.5360047998838127, 2.0639500999823213]";205.62448380002752;None;;;S11187a;2022_Feb_03_1801;VideoMask;2021.1.2;119.88136539065283;
2.0;f;012_o_f_h_a.jpg;happy;9.0;happy_27.1ns.avi;happy;9.0;congruent;120.0;150.0;146.44967055810616;h_h;;;;;0;7;7;7;;;;;;;208.62438070005737;None;210.03255690005608;210.34928480000235;211.54932530014776;211.56579470005818;213.97426280006766;None;9;0;0.7222460999619216;213.97426280006766;None;;;;;;;;8;;;;;;;215.52417070022784;None;None;None;[];215.52417070022784;None;"['9', '9', '9']";"[0.35645780013874173, 0.6764581000898033, 1.2283543001394719]";215.52417070022784;None;;;S11187a;2022_Feb_03_1801;VideoMask;2021.1.2;119.88136539065283;
8.0;f;028_y_f_h_a.jpg;happy;9.0;sad_119.1.wmv;sad;7.0;incongruent;120.0;160.0;148.71526953572538;h_s;;;;;0;8;8;8;;;;;;;218.53247960004956;None;219.97392540005967;220.2906302001793;221.42402460006997;221.440658000065;223.49053460010327;None;7;0;0.8138792999088764;223.49053460010327;None;;;;;;;;2;;;;;;;225.04048610012978;None;None;None;[];225.04048610012978;None;"['7', '7', '7', '7']";"[0.3439144999720156, 0.5921312998980284, 0.8002268997952342, 2.5361504999455065]";225.04048610012978;None;;;S11187a;2022_Feb_03_1801;VideoMask;2021.1.2;119.88136539065283;
6.0;m;016_y_m_s_a.jpg;sad;7.0;happy_60.4ns.avi;happy;9.0;incongruent;130.0;150.0;126.02367393611817;s_h;;;;;0;9;9;9;;;;;;;228.0489177000709;None;229.30694120004773;229.62369460007176;230.8320913000498;230.8485629002098;236.55692020012066;None;9;0;0.4994963000062853;236.55692020012066;None;;;;;;;;7;;;;;;;238.10676710004918;None;None;None;[];238.10676710004918;None;"['9', '9']";"[0.7017810000106692, 1.0458274001721293]";238.10676710004918;None;;;S11187a;2022_Feb_03_1801;VideoMask;2021.1.2;119.88136539065283;
9.0;f;019_m_f_s_a.jpg;sad;7.0;sad_8.4ns.avi;sad;7.0;congruent;130.0;160.0;171.6633093155257;s_s;;;;;0;10;10;10;;;;;;;241.10685430001467;None;242.75647240015678;243.07322160014883;244.21497040009126;244.23151420010254;252.3398125001695;None;7;0;1.1808992999140173;252.3398125001695;None;;;;;;;;3;;;;;;;253.88139410014264;None;None;None;[];253.88139410014264;None;"['7', '7']";"[0.47904179990291595, 0.9671231000684202]";253.88139410014264;None;;;S11187a;2022_Feb_03_1801;VideoMask;2021.1.2;119.88136539065283;
4.0;m;004_o_m_h_a.jpg;happy;9.0;happy_1.1ns.avi;happy;9.0;congruent;120.0;150.0;203.50057144619865;h_h;;;;;0;11;11;11;;;;;;;256.889659000095;None;258.847678600112;259.1644327000249;260.29787520016544;260.31454590009525;274.7807271000929;None;9;0;0.5395873000379652;274.7807271000929;None;;;;;;;;7;;;;;;;276.3306790001225;None;None;None;[];276.3306790001225;None;"['9', '9']";"[0.5900139999575913, 1.5578688001260161]";276.3306790001225;None;;;S11187a;2022_Feb_03_1801;VideoMask;2021.1.2;119.88136539065283;
7.0;m;027_o_m_h_a.jpg;happy;9.0;happy_20.1ns.avi;happy;9.0;congruent;120.0;150.0;152.91127178874285;h_h;;;;;0;12;12;12;;;;;;;279.3306776001118;None;280.8054348002188;281.1221670000814;282.25565280020237;282.27212980017066;285.2721325000748;None;9;0;0.6244659000076354;285.2721325000748;None;;;;;;;;7;;;;;;;286.82207250013016;None;None;None;[];286.82207250013016;None;"['9', '9']";"[0.47454630001448095, 0.8108028001151979]";286.82207250013016;None;;;S11187a;2022_Feb_03_1801;VideoMask;2021.1.2;119.88136539065283;
0.0;f;040_y_f_s_a.jpg;sad;7.0;sad_94.3ns.avi;sad;7.0;congruent;130.0;160.0;155.27414203894395;s_s;;;;;0;13;13;13;;;;;;;289.8303679001983;None;291.31346260011196;291.6301751001738;292.7883896001149;292.8051923001185;295.3884626000654;None;None;0;;295.3884626000654;None;;;;;;;;4;;;;;;;296.93833070015535;None;None;None;[];296.93833070015535;None;['7'];[1.1261471000034362];296.93833070015535;None;;;S11187a;2022_Feb_03_1801;VideoMask;2021.1.2;119.88136539065283;
0.0;f;030_o_f_s_a.jpg;sad;7.0;sad_68.1ns.avi;sad;7.0;congruent;130.0;160.0;158.9411396037211;s_s;;;;;0;14;14;14;;;;;;;299.9384576000739;None;301.4882617001422;301.80487860017456;302.93822720018215;302.95491580013186;310.3629718001466;None;7;0;0.7018033999484032;310.3629718001466;None;;;;;;;;2;;;;;;;311.9212647001259;None;None;None;[];311.9212647001259;None;"['7', '7', '7']";"[0.3754459999036044, 0.6872974000871181, 1.0873748001176864]";311.9212647001259;None;;;S11187a;2022_Feb_03_1801;VideoMask;2021.1.2;119.88136539065283;
0.0;f;030_o_f_h_a.jpg;happy;9.0;sad_127.1.wmv;sad;7.0;incongruent;120.0;160.0;180.59976631384873;h_s;;;;;0;15;15;15;;;;;;;314.9297346000094;None;316.6377897001803;316.95432180003263;318.079497900093;318.0961642002221;320.0877748001367;None;7;0;1.2885989001952112;320.0877748001367;None;;;;;;;;2;;;;;;;321.6376934000291;None;None;None;[];321.6376934000291;None;"['7', '7', '7', '7']";"[0.6429058001376688, 1.0189650000538677, 1.499038000125438, 2.6189982001669705]";321.6376934000291;None;;;S11187a;2022_Feb_03_1801;VideoMask;2021.1.2;119.88136539065283;
8.0;m;008_y_m_s_a.jpg;sad;7.0;happy_133.3.wmv;happy;9.0;incongruent;130.0;150.0;152.577966552593;s_h;;;;;0;16;16;16;;;;;;;324.6376215000637;None;326.1206982000731;326.43744040001184;327.56259670015424;327.579229200026;329.57079620007426;None;9;0;0.525800600182265;329.57079620007426;None;;;;;;;;8;;;;;;;331.1456646001898;None;None;None;[];331.1456646001898;None;"['9', '9', '9']";"[0.35100939986296, 0.6231883999425918, 1.2389254998415709]";331.1456646001898;None;;;S11187a;2022_Feb_03_1801;VideoMask;2021.1.2;119.88136539065283;
3.0;m;033_o_m_h_a.jpg;happy;9.0;sad_128.1.wmv;sad;7.0;incongruent;120.0;160.0;171.0492454518585;h_s;;;;;0;17;17;17;;;;;;;334.1540594000835;None;335.7954893000424;336.1121160001494;337.2538341002073;337.27055910020135;339.24551960011013;None;7;0;1.2750957999378443;339.24551960011013;None;;;;;;;;4;;;;;;;340.79542830004357;None;None;None;[];340.79542830004357;None;['7'];[0.6290732999332249];340.79542830004357;None;;;S11187a;2022_Feb_03_1801;VideoMask;2021.1.2;119.88136539065283;
1.0;f;021_o_f_h_a.jpg;happy;9.0;sad_116.1.wmv;sad;7.0;incongruent;120.0;160.0;184.06847610053055;h_s;;;;;0;18;18;18;;;;;;;343.8038068001624;None;345.54512100014836;345.8619056001771;347.0284221000038;347.045084200101;348.9952667001635;None;7;0;1.0133885000832379;348.9952667001635;None;;;;;;;;3;;;;;;;350.54516760003753;None;None;None;[];350.54516760003753;None;"['7', '7']";"[0.5914455999154598, 0.8313194999936968]";350.54516760003753;None;;;S11187a;2022_Feb_03_1801;VideoMask;2021.1.2;119.88136539065283;
4.0;m;004_o_m_s_a.jpg;sad;7.0;happy_28.1ns.avi;happy;9.0;incongruent;130.0;150.0;157.40741103039684;s_h;;;;;0;19;19;19;;;;;;;353.5451817000285;None;355.0532976000104;355.36988000012934;356.51150360004976;356.5283114002086;360.8947897001635;None;9;0;0.4019092998933047;360.8947897001635;None;;;;;;;;9;;;;;;;362.48650760017335;None;None;None;[];362.48650760017335;None;"['9', '9', '9', '9']";"[0.3779694999102503, 0.6581520999316126, 0.9538543000817299, 1.2984630998689681]";362.48650760017335;None;;;S11187a;2022_Feb_03_1801;VideoMask;2021.1.2;119.88136539065283;
8.0;f;028_y_f_s_a.jpg;sad;7.0;happy_122.3.wmv;happy;9.0;incongruent;130.0;150.0;171.8670540936116;s_h;;;;;0;20;20;20;;;;;;;365.48644140013494;None;367.12789820018224;367.4445847000461;368.58629700005986;368.6028887000866;370.5779240000993;None;9;0;0.4228155999444425;370.5779240000993;None;;;;;;;;7;;;;;;;372.12781380000524;None;None;None;[];372.12781380000524;None;"['9', '9', '9']";"[0.4566463998053223, 0.7849450998473912, 1.5369545998983085]";372.12781380000524;None;;;S11187a;2022_Feb_03_1801;VideoMask;2021.1.2;119.88136539065283;
8.0;m;008_y_m_s_a.jpg;sad;7.0;sad_6.5ns.avi;sad;7.0;congruent;130.0;160.0;170.39333839271438;s_s;;;;;0;21;21;21;;;;;;;375.13625840004534;None;376.7692322002258;377.085956600029;378.2359789002221;378.25267440010794;383.2193557000719;None;7;0;0.5092364998999983;383.2193557000719;None;;;;;;;;3;;;;;;;384.7689594000112;None;None;None;[];384.7689594000112;None;"['7', '7', '7']";"[0.38382350001484156, 0.7274447998497635, 1.1998412997927517]";384.7689594000112;None;;;S11187a;2022_Feb_03_1801;VideoMask;2021.1.2;119.88136539065283;
8.0;f;028_y_f_h_a.jpg;happy;9.0;happy_23.1ns.avi;happy;9.0;congruent;120.0;150.0;225.70986890587952;h_h;;;;;0;22;22;22;;;;;;;387.7774631001521;None;389.8772825000342;390.1938976000529;391.36047010007314;391.3772759002168;395.90228110016324;None;9;0;0.4503725999966264;395.90228110016324;None;;;;;;;;9;;;;;;;397.45204810006544;None;None;None;[];397.45204810006544;None;"['9', '9', '9', '9']";"[0.3885253998450935, 0.6846839999780059, 0.988567000022158, 1.3728149998933077]";397.45204810006544;None;;;S11187a;2022_Feb_03_1801;VideoMask;2021.1.2;119.88136539065283;
8.0;m;008_y_m_h_a.jpg;happy;9.0;sad_111.1.wmv;sad;7.0;incongruent;120.0;160.0;152.63076835312847;h_s;;;;;0;23;23;23;;;;;;;400.4604442000855;None;401.9268186001573;402.24356100009754;403.37695180019364;403.39363830001093;405.37686610012315;None;7;0;0.8398618998471648;405.37686610012315;None;;;;;;;;3;;;;;;;406.9267966002226;None;None;None;[];406.9267966002226;None;"['7', '7']";"[0.33790899999439716, 0.6818853998556733]";406.9267966002226;None;;;S11187a;2022_Feb_03_1801;VideoMask;2021.1.2;119.88136539065283;
0.0;f;040_y_f_s_a.jpg;sad;7.0;sad_67.2ns.avi;sad;7.0;congruent;130.0;160.0;220.9892697323079;s_s;;;;;0;24;24;24;;;;;;;409.9350339001976;None;411.993123000022;412.30989610007964;413.45998240006156;413.47663250006735;422.684753900161;None;7;0;0.515990599989891;422.684753900161;None;;;;;;;;3;;;;;;;424.23465200001374;None;None;None;[];424.23465200001374;None;"['7', '7']";"[0.40630479995161295, 0.7260044000577182]";424.23465200001374;None;;;S11187a;2022_Feb_03_1801;VideoMask;2021.1.2;119.88136539065283;
8.0;m;008_y_m_s_a.jpg;sad;7.0;happy_29.1ns.avi;happy;9.0;incongruent;130.0;150.0;120.0316142834122;s_h;;;;;0;25;25;25;;;;;;;427.23462560004555;None;428.4343873001635;428.7511108000763;429.90990930004045;429.9344737001229;432.5761913000606;None;9;0;0.8243197000119835;432.5761913000606;None;;;;;;;;8;;;;;;;434.12603120016865;None;None;None;[];434.12603120016865;None;"['9', '9', '9']";"[0.2909293998964131, 0.6346944000106305, 0.9867145998869091]";434.12603120016865;None;;;S11187a;2022_Feb_03_1801;VideoMask;2021.1.2;119.88136539065283;
6.0;m;016_y_m_s_a.jpg;sad;7.0;sad_8.3ns.avi;sad;7.0;congruent;130.0;160.0;152.85371098242734;s_s;;;;;0;26;26;26;;;;;;;437.1260277000256;None;438.6090641000774;438.92590790009126;440.10912500019185;440.1257128000725;447.833964999998;None;None;0;;447.833964999998;None;;;;;;;;4;;;;;;;449.3837497001514;None;None;None;[];449.3837497001514;None;"['7', '7', '7']";"[0.6730969999916852, 1.3369096000678837, 1.9687389000318944]";449.3837497001514;None;;;S11187a;2022_Feb_03_1801;VideoMask;2021.1.2;119.88136539065283;
6.0;m;016_y_m_h_a.jpg;happy;9.0;sad_114.1.wmv;sad;7.0;incongruent;120.0;160.0;136.20550699298644;h_s;;;;;0;27;27;27;;;;;;;452.3922609000001;None;453.7252172001172;454.04195730015635;455.16715049999766;455.1837540001143;457.17536330013536;None;7;0;0.4013388999737799;457.17536330013536;None;;;;;;;;3;;;;;;;458.7252867000643;None;None;None;[];458.7252867000643;None;"['7', '7']";"[0.3714188998565078, 0.7955340999178588]";458.7252867000643;None;;;S11187a;2022_Feb_03_1801;VideoMask;2021.1.2;119.88136539065283;
7.0;m;027_o_m_s_a.jpg;sad;7.0;happy_117.3.wmv;happy;9.0;incongruent;130.0;150.0;215.61964028550614;s_h;;;;;0;28;28;28;;;;;;;461.7336374002043;None;463.7249080000911;464.04178990004584;465.1668103002012;465.1834596002009;467.17503190017305;None;None;0;;467.17503190017305;None;;;;;;;;7;;;;;;;468.72480510012247;None;None;None;[];468.72480510012247;None;"['9', '9', '9']";"[0.01186950015835464, 0.6437467001378536, 1.1240106001496315]";468.72480510012247;None;;;S11187a;2022_Feb_03_1801;VideoMask;2021.1.2;119.88136539065283;
6.0;m;016_y_m_h_a.jpg;happy;9.0;happy_9.2ns.avi;happy;9.0;congruent;120.0;150.0;130.52042428082717;h_h;;;;;0;29;29;29;;;;;;;471.73331310017966;None;473.0247522999998;473.3414653001819;474.4665870000608;474.4831549001392;480.39981410000473;None;9;0;0.44093100004829466;480.39981410000473;None;;;;;;;;7;;;;;;;481.94959150021896;None;None;None;[];481.94959150021896;None;"['9', '9']";"[0.3471166000235826, 0.731174600077793]";481.94959150021896;None;;;S11187a;2022_Feb_03_1801;VideoMask;2021.1.2;119.88136539065283;
0.0;f;040_y_f_s_a.jpg;sad;7.0;happy_127.3.wmv;happy;9.0;incongruent;130.0;150.0;131.7195455720239;s_h;;;;;0;30;30;30;;;;;;;484.9496622001752;None;486.2576888001058;486.57446550019085;487.6994718001224;487.7160513000563;489.7744579000864;None;9;0;0.7222728000488132;489.7744579000864;None;;;;;;;;7;;;;;;;491.32432190002874;None;None;None;[];491.32432190002874;None;"['9', '9']";"[0.4204998000059277, 0.7324641000013798]";491.32432190002874;None;;;S11187a;2022_Feb_03_1801;VideoMask;2021.1.2;119.88136539065283;
0.0;f;030_o_f_s_a.jpg;sad;7.0;happy_125.3.wmv;happy;9.0;incongruent;130.0;150.0;220.51454909128134;s_h;;;;;0;31;31;31;;;;;;;494.32434600009583;None;496.37404440017417;496.6907718000002;497.82399720000103;497.8406758001074;499.82403680006973;None;9;0;0.5848027998581529;499.82403680006973;None;;;;;;;;7;;;;;;;501.37401940021664;None;None;None;[];501.37401940021664;None;"['9', '9', '9']";"[0.42686089989729226, 0.7308234998490661, 1.658668699907139]";501.37401940021664;None;;;S11187a;2022_Feb_03_1801;VideoMask;2021.1.2;119.88136539065283;
0.0;f;030_o_f_s_a.jpg;sad;7.0;sad_64.3ns.avi;sad;7.0;congruent;130.0;160.0;165.78667874766072;s_s;;;;;0;32;32;32;;;;;;;504.3823603000492;None;505.9655540001113;506.2820632001385;507.4404785002116;507.4571412000805;512.4153941001277;None;None;0;;512.4153941001277;None;;;;;;;;4;;;;;;;513.965135600185;None;None;None;[];513.965135600185;None;['7'];[0.7958217998966575];513.965135600185;None;;;S11187a;2022_Feb_03_1801;VideoMask;2021.1.2;119.88136539065283;
3.0;m;013_y_m_s_a.jpg;sad;7.0;sad_7.7ns.avi;sad;7.0;congruent;130.0;160.0;196.24182255763262;s_s;;;;;0;33;33;33;;;;;;;516.9653354000766;None;518.806616100017;519.123430200154;520.2649579001591;520.2900348000694;526.2565813001711;None;7;0;0.4482336000073701;526.2565813001711;None;;;;;;;;3;;;;;;;527.8065706000198;None;None;None;[];527.8065706000198;None;"['7', '7']";"[0.43476119986735284, 0.7622259999625385]";527.8065706000198;None;;;S11187a;2022_Feb_03_1801;VideoMask;2021.1.2;119.88136539065283;
3.0;m;013_y_m_h_a.jpg;happy;9.0;happy_9.1ns.avi;happy;9.0;congruent;120.0;150.0;165.1890303600433;h_h;;;;;0;34;34;34;;;;;;;530.8149746002164;None;532.3896062001586;532.7064316000324;533.9311739001423;533.9478853000328;537.0646292001475;None;9;0;0.49612969998270273;537.0646292001475;None;;;;;;;;8;;;;;;;538.614588299999;None;None;None;[];538.614588299999;None;"['9', '9', '9']";"[0.3302652998827398, 0.634277599863708, 0.986181499902159]";538.614588299999;None;;;S11187a;2022_Feb_03_1801;VideoMask;2021.1.2;119.88136539065283;
4.0;m;004_o_m_h_a.jpg;happy;9.0;sad_95.1ns.avi;sad;7.0;incongruent;120.0;160.0;152.68270002069931;h_s;;;;;0;35;35;35;;;;;;;541.6145352001768;None;543.122674500104;543.4394311001524;544.6561002000235;544.6724917001557;553.3641806000378;None;7;0;0.8685473999939859;553.3641806000378;None;;;;;;;;2;;;;;;;554.9140981000382;None;None;None;[];554.9140981000382;None;"['7', '7', '7', '7']";"[0.33476329990662634, 0.5504614000674337, 0.942759099882096, 1.3906944999471307]";554.9140981000382;None;;;S11187a;2022_Feb_03_1801;VideoMask;2021.1.2;119.88136539065283;
3.0;m;013_y_m_h_a.jpg;happy;9.0;sad_113.2.wmv;sad;7.0;incongruent;120.0;160.0;217.4973891947951;h_s;;;;;0;36;36;36;;;;;;;557.9140928999986;None;559.955504800193;560.2721332001965;561.3973770001903;561.4138291000854;563.4145956002176;None;7;0;0.9941383998375386;563.4145956002176;None;;;;;;;;3;;;;;;;565.1388190002181;None;None;None;[];565.1388190002181;None;"['7', '7']";"[0.40586429997347295, 0.8382156998850405]";565.1388190002181;None;;;S11187a;2022_Feb_03_1801;VideoMask;2021.1.2;119.88136539065283;
4.0;m;004_o_m_h_a.jpg;happy;9.0;happy_25.1ns.avi;happy;9.0;congruent;120.0;150.0;216.63044503818386;h_h;;;;;0;37;37;37;;;;;;;568.1469354000874;None;570.1467762000393;570.4635180002078;571.6218744001817;571.6386292001698;575.2887269000057;None;9;0;0.45600309991277754;575.2887269000057;None;;;;;;;;7;;;;;;;576.8384444999974;None;None;None;[];576.8384444999974;None;"['9', '9', '9']";"[0.4183519999496639, 0.698157100006938, 1.1066058999858797]";576.8384444999974;None;;;S11187a;2022_Feb_03_1801;VideoMask;2021.1.2;119.88136539065283;
4.0;m;004_o_m_s_a.jpg;sad;7.0;happy_131.2.wmv;happy;9.0;incongruent;130.0;150.0;181.38407540847405;s_h;;;;;0;38;38;38;;;;;;;579.8468521002214;None;581.5633409000002;581.8798762001097;583.0130996000953;583.0297189000994;585.0133187000174;None;9;0;0.6994163999333978;585.0133187000174;None;;;;;;;;7;;;;;;;586.5631478000432;None;None;None;[];586.5631478000432;None;"['9', '9']";"[0.2536997999995947, 0.6376789000350982]";586.5631478000432;None;;;S11187a;2022_Feb_03_1801;VideoMask;2021.1.2;119.88136539065283;
0.0;f;040_y_f_h_a.jpg;happy;9.0;happy_24.3ns.avi;happy;9.0;congruent;120.0;150.0;213.25460698950434;h_h;;;;;0;39;39;39;;;;;;;589.5632223000284;None;591.529541300144;591.8462625001557;593.0795313999988;593.0965063001495;594.9047228000127;None;9;0;0.7761142000090331;594.9047228000127;None;;;;;;;;8;;;;;;;596.4628038001247;None;None;None;[];596.4628038001247;None;"['9', '9', '9']";"[0.346216700039804, 0.7060889001004398, 1.4502777000889182]";596.4628038001247;None;;;S11187a;2022_Feb_03_1801;VideoMask;2021.1.2;119.88136539065283;
2.0;f;012_o_f_s_a.jpg;sad;7.0;happy_139.1.wmv;happy;9.0;incongruent;130.0;150.0;162.31500468041804;s_h;;;;;0;40;40;40;;;;;;;599.4711957999971;None;601.0208285001572;601.3376624002121;602.4710352001712;602.487634900026;604.4708711002022;None;9;0;0.7379974001087248;604.4708711002022;None;;;;;;;;8;;;;;;;606.0208508002106;None;None;None;[];606.0208508002106;None;"['9', '9', '9', '9']";"[0.2759857000783086, 0.6680952000897378, 1.0519229001365602, 1.524160100147128]";606.0208508002106;None;;;S11187a;2022_Feb_03_1801;VideoMask;2021.1.2;119.88136539065283;
0.0;f;030_o_f_h_a.jpg;happy;9.0;happy_24.1ns.avi;happy;9.0;congruent;120.0;150.0;168.36256624020774;h_h;;;;;0;41;41;41;;;;;;;609.0293005001731;None;610.6289363000542;610.9457079002168;612.1206841000821;612.1457207000349;615.4039969001897;None;9;0;0.5088311000727117;615.4039969001897;None;;;;;;;;8;;;;;;;616.9539376001339;None;None;None;[];616.9539376001339;None;"['9', '9', '9']";"[0.38274049991741776, 0.7270268998108804, 1.078939399914816]";616.9539376001339;None;;;S11187a;2022_Feb_03_1801;VideoMask;2021.1.2;119.88136539065283;
2.0;f;012_o_f_h_a.jpg;happy;9.0;sad_113.1.wmv;sad;7.0;incongruent;120.0;160.0;177.44551734737394;h_s;;;;;0;42;42;42;;;;;;;619.9622248001397;None;621.6453468000982;621.962015000172;623.095209200168;623.1203489000909;625.095329400152;None;None;0;;625.095329400152;None;;;;;;;;4;;;;;;;626.6453398000449;None;None;None;[];626.6453398000449;None;['7'];[0.8835712999571115];626.6453398000449;None;;;S11187a;2022_Feb_03_1801;VideoMask;2021.1.2;119.88136539065283;
3.0;m;033_o_m_s_a.jpg;sad;7.0;sad_64.5ns.avi;sad;7.0;congruent;130.0;160.0;130.55717223801247;s_s;;;;;0;43;43;43;;;;;;;629.6536450001877;None;630.9533671000972;631.2700935001485;632.4117161000613;632.4284508000128;638.9949272000231;None;7;0;0.4299214999191463;638.9949272000231;None;;;;;;;;2;;;;;;;640.5448848002125;None;None;None;[];640.5448848002125;None;"['7', '7', '7']";"[0.4159877998754382, 0.6640015000011772, 0.8718685999047011]";640.5448848002125;None;;;S11187a;2022_Feb_03_1801;VideoMask;2021.1.2;119.88136539065283;
7.0;m;027_o_m_h_a.jpg;happy;9.0;sad_117.1.wmv;sad;7.0;incongruent;120.0;160.0;181.28665202824095;h_s;;;;;0;44;44;44;;;;;;;643.5531938001513;None;645.2696257000789;645.5863302000798;646.7196563000325;646.7363358000293;648.7194704001304;None;None;0;;648.7194704001304;None;;;;;;;;4;;;;;;;650.2694489001296;None;None;None;[];650.2694489001296;None;['7'];[1.5794687001034617];650.2694489001296;None;;;S11187a;2022_Feb_03_1801;VideoMask;2021.1.2;119.88136539065283;
3.0;m;033_o_m_s_a.jpg;sad;7.0;happy_126.3.wmv;happy;9.0;incongruent;130.0;150.0;198.85252030535366;s_h;;;;;0;45;45;45;;;;;;;653.2778238002211;None;655.1360174000729;655.4526890001725;656.5859755000565;656.6026050001383;658.5860417000949;None;9;0;0.5829995998647064;658.5860417000949;None;;;;;;;;7;;;;;;;660.1358926000539;None;None;None;[];660.1358926000539;None;"['9', '9', '9']";"[0.39307800005190074, 0.897099600173533, 1.8012251001782715]";660.1358926000539;None;;;S11187a;2022_Feb_03_1801;VideoMask;2021.1.2;119.88136539065283;
3.0;m;033_o_m_h_a.jpg;happy;9.0;sad_136.1.wmv;sad;7.0;incongruent;120.0;160.0;176.97002883463455;h_s;;;;;0;46;46;46;;;;;;;663.1359070001636;None;664.8107580000069;665.1274349000305;666.2524245001841;666.2689812001772;668.2696915999986;None;7;0;0.9072252998594195;668.2696915999986;None;;;;;;;;2;;;;;;;669.893995200051;None;None;None;[];669.893995200051;None;"['7', '7', '7']";"[0.3630578999873251, 0.5950759002007544, 2.7068882000166923]";669.893995200051;None;;;S11187a;2022_Feb_03_1801;VideoMask;2021.1.2;119.88136539065283;
9.0;f;019_m_f_h_a.jpg;happy;9.0;happy_10.1ns.avi;happy;9.0;congruent;120.0;150.0;157.2463435658512;h_h;;;;;0;47;47;47;;;;;;;672.8939488001633;None;674.4269743000623;674.7436723001301;675.9020925001241;675.9186893000733;683.326961300103;None;9;0;0.7060841000638902;683.326961300103;None;;;;;;;;7;;;;;;;684.8768941001035;None;None;None;[];684.8768941001035;None;"['9', '9']";"[0.33203210006468, 0.923789800144732]";684.8768941001035;None;;;S11187a;2022_Feb_03_1801;VideoMask;2021.1.2;119.88136539065283;
2.0;f;012_o_f_h_a.jpg;happy;9.0;happy_2.2ns.avi;happy;9.0;congruent;120.0;150.0;206.34800317295262;h_h;;;;;0;48;48;48;;;;;;;687.8852360001765;None;689.843469500076;690.1599920000881;691.3101060001645;691.3267162002157;703.501569500193;None;9;0;0.4835212999023497;703.501569500193;None;;;;;;;;7;;;;;;;705.0596354000736;None;None;None;[];705.0596354000736;None;"['9', '9']";"[0.3011543999891728, 0.5894495998509228]";705.0596354000736;None;;;S11187a;2022_Feb_03_1801;VideoMask;2021.1.2;119.88136539065283;
3.0;m;033_o_m_h_a.jpg;happy;9.0;happy_24.2ns.avi;happy;9.0;congruent;120.0;150.0;167.9423847659953;h_h;;;;;0;49;49;49;;;;;;;708.0680458000861;None;709.6676759000402;709.9844090000261;711.2094229001086;711.2260987001937;714.8427112000063;None;9;0;0.4780866999644786;714.8427112000063;None;;;;;;;;8;;;;;;;716.4176442001481;None;None;None;[];716.4176442001481;None;"['9', '9', '9']";"[0.41532110003754497, 0.6793392000254244, 0.9831587001681328]";716.4176442001481;None;;;S11187a;2022_Feb_03_1801;VideoMask;2021.1.2;119.88136539065283;
1.0;f;021_o_f_s_a.jpg;sad;7.0;happy_61.2ns.avi;happy;9.0;incongruent;130.0;150.0;210.94664004826666;s_h;;;;;0;50;50;50;;;;;;;719.4259936001617;None;721.375783600146;721.6923200001474;722.8839221000671;722.9006240000017;727.367321500089;None;9;0;0.5140720999334008;727.367321500089;None;;;;;;;;6;;;;;;;728.9172764001414;None;None;None;[];728.9172764001414;None;"['9', '9', '7']";"[0.3556525001768023, 1.299691200023517, 2.5958979001734406]";728.9172764001414;None;;;S11187a;2022_Feb_03_1801;VideoMask;2021.1.2;119.88136539065283;
4.0;m;004_o_m_s_a.jpg;sad;7.0;sad_2.4ns.avi;sad;7.0;congruent;130.0;160.0;153.02079367163634;s_s;;;;;0;51;51;51;;;;;;;731.9171675001271;None;733.4170707000885;733.7337000002153;734.9258591001853;734.9426528001204;742.8335464000702;None;7;0;1.1195803999435157;742.8335464000702;None;;;;;;;;3;;;;;;;744.391740300227;None;None;None;[];744.391740300227;None;"['7', '7']";"[0.3452251998241991, 0.6572860998567194]";744.391740300227;None;;;S11187a;2022_Feb_03_1801;VideoMask;2021.1.2;119.88136539065283;
8.0;m;008_y_m_h_a.jpg;happy;9.0;happy_1.2ns.avi;happy;9.0;congruent;120.0;150.0;210.98946429383824;h_h;;;;;0;52;52;52;;;;;;;747.4001350000035;None;749.4081368001644;749.7249598000199;750.866863100091;750.8915885000024;763.6496851001866;None;9;0;0.8314284000080079;763.6496851001866;None;;;;;;;;7;;;;;;;765.1995318001136;None;None;None;[];765.1995318001136;None;"['9', '9']";"[0.35349530004896224, 0.6975519999396056]";765.1995318001136;None;;;S11187a;2022_Feb_03_1801;VideoMask;2021.1.2;119.88136539065283;
2.0;f;012_o_f_s_a.jpg;sad;7.0;happy_52.2ns.avi;happy;9.0;incongruent;130.0;150.0;172.57202848318138;s_h;;;;;0;53;53;53;;;;;;;768.2078466000967;None;769.8409113001544;770.1576295001432;771.3493503001519;771.3658779000398;774.8576583000831;None;9;0;0.4392432998865843;774.8576583000831;None;;;;;;;;7;;;;;;;776.407500800211;None;None;None;[];776.407500800211;None;"['9', '9']";"[0.4096174999140203, 0.7377381999976933]";776.407500800211;None;;;S11187a;2022_Feb_03_1801;VideoMask;2021.1.2;119.88136539065283;
9.0;f;019_m_f_s_a.jpg;sad;7.0;happy_61.1ns.avi;happy;9.0;incongruent;130.0;150.0;181.3003220572762;s_h;;;;;0;54;54;54;;;;;;;779.4157069001812;None;781.1488870000467;781.4656219000462;782.6409370000474;782.6656557000242;789.9906205001753;None;9;0;0.402591000078246;789.9906205001753;None;;;;;;;;7;;;;;;;791.5487173001748;None;None;None;[];791.5487173001748;None;"['9', '9']";"[0.38035829993896186, 1.1007381998933852]";791.5487173001748;None;;;S11187a;2022_Feb_03_1801;VideoMask;2021.1.2;119.88136539065283;
0.0;f;030_o_f_h_a.jpg;happy;9.0;sad_133.1.wmv;sad;7.0;incongruent;120.0;160.0;198.86251500867985;h_s;;;;;0;55;55;55;;;;;;;794.5569679001346;None;796.4150226002093;796.7318257000297;797.8569498001598;797.873596600024;799.8651360000949;None;7;0;0.7038788001518697;799.8651360000949;None;;;;;;;;3;;;;;;;801.4151090001687;None;None;None;[];801.4151090001687;None;"['7', '7', '7']";"[0.393940000096336, 0.890050700167194, 1.305974500020966]";801.4151090001687;None;;;S11187a;2022_Feb_03_1801;VideoMask;2021.1.2;119.88136539065283;
0.0;f;040_y_f_h_a.jpg;happy;9.0;sad_128.2.wmv;sad;7.0;incongruent;120.0;160.0;206.10005857915363;h_s;;;;;0;56;56;56;;;;;;;804.4150329001714;None;806.3398265000433;806.6565953001846;807.8069853000343;807.8314715002198;809.7898272001185;None;7;0;0.4272419000044465;809.7898272001185;None;;;;;;;;3;;;;;;;811.3315333002247;None;None;None;[];811.3315333002247;None;"['7', '7']";"[0.2935162999201566, 0.6295232998672873]";811.3315333002247;None;;;S11187a;2022_Feb_03_1801;VideoMask;2021.1.2;119.88136539065283;
1.0;f;021_o_f_s_a.jpg;sad;7.0;sad_9.5ns.avi;sad;7.0;congruent;130.0;160.0;206.16642757875042;s_s;;;;;0;57;57;57;;;;;;;814.3314751000144;None;816.2561971000396;816.5728018002119;817.7478032000363;817.7643896001391;823.4312609001063;None;7;0;1.0818250000011176;823.4312609001063;None;;;;;;;;3;;;;;;;824.9809914000798;None;None;None;[];824.9809914000798;None;"['7', '7']";"[0.3798038000240922, 0.6199698999989778]";824.9809914000798;None;;;S11187a;2022_Feb_03_1801;VideoMask;2021.1.2;119.88136539065283;
1.0;f;021_o_f_h_a.jpg;happy;9.0;happy_12.1ns.avi;happy;9.0;congruent;120.0;150.0;132.59080005900228;h_h;;;;;0;58;58;58;;;;;;;827.989354400197;None;829.3143000002019;829.6308224000968;830.8149198000319;830.8313057001214;838.38066600007;None;9;0;0.5962755000218749;838.38066600007;None;;;;;;;;6;;;;;;;839.9472700001206;None;None;None;[];839.9472700001206;None;"['9', '9']";"[0.35810850001871586, 1.1099397998768836]";839.9472700001206;None;;;S11187a;2022_Feb_03_1801;VideoMask;2021.1.2;119.88136539065283;
3.0;m;013_y_m_s_a.jpg;sad;7.0;happy_56.2ns.avi;happy;9.0;incongruent;130.0;150.0;163.39234110935848;s_h;;;;;0;59;59;59;;;;;;;842.9473236000631;None;844.5053246000316;844.8220552999992;846.013546800008;846.0303549000528;850.9803810000885;None;None;0;;850.9803810000885;None;;;;;;;;6;;;;;;;852.5301373000257;None;None;None;[];852.5301373000257;None;['9'];[0.8389504000078887];852.5301373000257;None;;;S11187a;2022_Feb_03_1801;VideoMask;2021.1.2;119.88136539065283;
;;;;;;;;;;;;;;;;;;;;;;;;;;;;;;;;;;;;;;;;;;;;;;;;;;;;;;;;;;;;;;;;;855.5384817000013;None;;;;;;
