primePerson;primeGender;prime;primeEmotion;corrAnsPrime;target;targetEmotion;corrAnsTar;Cond;ID_Primer;ID_Target;JitterTime;Condition;example.thisRepN;example.thisTrialN;example.thisN;example.thisIndex;study.thisRepN;study.thisTrialN;study.thisN;study.thisIndex;MR_trigger_time;MR_trigger_number;text_intro.started;text_intro.stopped;text_probe.started;text_probe.stopped;polygon_ISI.started;polygon_ISI.stopped;polygon.started;polygon.stopped;primerImage.started;primerImage.stopped;response.started;response.stopped;key_resp.keys;key_resp.corr;key_resp.rt;key_resp.started;key_resp.stopped;slider_Text.started;slider_Text.stopped;slider_ex.response;slider_ex.rt;slider_ex.history;slider_ex.started;slider_ex.stopped;Rating;slider_resp_response.keys;slider_resp_response.started;slider_resp_response.stopped;text_start.started;text_start.stopped;text_slider.started;text_slider.stopped;slider_stud.response;slider_stud.rt;slider_stud.history;slider_stud.started;slider_stud.stopped;slider_resp_study.keys;slider_resp_study.rt;slider_resp_study.started;slider_resp_study.stopped;text_ende.started;text_ende.stopped;participant;date;expName;psychopyVersion;frameRate;
1111;m;1111_m_m_h_a.jpg;happy;9;example_30.4ns.avi;neutral;7;incongruent;120.0;170.0;189.5874364012288;;0;0;0;0;;;;;73.94989549997263;1;74.02739049983211;76.02757759997621;76.02757759997621;None;78.06065179989673;None;80.3273065998219;80.64399089990184;81.82742019998841;81.8440747000277;86.1190600998234;None;8;0;1.0557383000850677;86.1190600998234;None;87.68549759988673;None;None;None;[];87.68549759988673;None;5;None;87.68549759988673;None;;;;;;;;;;;;;;;;S11330;2022_Mar_29_1912;VideoMask;2021.1.2;119.79074932029876;
1113;f;1113_y_f_s_a.jpg;sad;7;example_30.3ns.avi;neutral;7;incongruent;130.0;170.0;229.02432995836998;;0;1;1;1;;;;;;;;;;;90.69390199985355;None;92.81868309993297;93.13532030000351;94.27695349999703;94.29368359991349;96.26859699981287;None;8;0;1.15396700007841;96.26859699981287;None;97.88519859989174;None;None;None;[];97.88519859989174;None;5;None;97.88519859989174;None;;;;;;;;;;;;;;;;S11330;2022_Mar_29_1912;VideoMask;2021.1.2;119.79074932029876;
9.0;f;019_m_f_h_a.jpg;happy;9.0;sad_115.1.wmv;sad;7.0;incongruent;120.0;160.0;128.09063432376465;h_s;;;;;0;0;0;0;;;;;;;101.91838819999248;None;103.21011379989795;103.52662070002407;104.66810519993305;104.68481249990873;106.66831630002707;None;7;0;1.4343123000580817;106.66831630002707;None;;;;;;;;4;;;;100.91008939989842;None;108.21831539995037;None;None;None;[];108.21831539995037;None;['7'];[1.8923252001404762];108.21831539995037;None;;;S11330;2022_Mar_29_1912;VideoMask;2021.1.2;119.79074932029876;
3.0;m;033_o_m_s_a.jpg;sad;7.0;sad_94.2ns.avi;sad;7.0;congruent;130.0;160.0;182.29120173647655;s_s;;;;;0;1;1;1;;;;;;;111.21814029989764;None;112.95121309999377;113.26798619981855;114.418043699814;114.43459820002317;117.09307429986075;None;7;0;0.6338361999951303;117.09307429986075;None;;;;;;;;3;;;;;;118.81799030001275;None;None;None;[];118.81799030001275;None;"['7', '7']";"[0.7725309999659657, 1.388761900132522]";118.81799030001275;None;;;S11330;2022_Mar_29_1912;VideoMask;2021.1.2;119.79074932029876;
8.0;m;008_y_m_h_a.jpg;happy;9.0;happy_26.1ns.avi;happy;9.0;congruent;120.0;150.0;155.9437854594882;h_h;;;;;0;2;2;2;;;;;;;121.82624119985849;None;123.33442919980735;123.6511563998647;124.78438299987465;124.80118849989958;126.77610099990852;None;9;0;0.9506096998229623;126.77610099990852;None;;;;;;;;6;;;;;;128.32591919996776;None;None;None;[];128.32591919996776;None;['9'];[0.5368429000955075];128.32591919996776;None;;;S11330;2022_Mar_29_1912;VideoMask;2021.1.2;119.79074932029876;
0.0;f;040_y_f_h_a.jpg;happy;9.0;sad_138.1.wmv;sad;7.0;incongruent;120.0;160.0;133.99071306426532;h_s;;;;;0;3;3;3;;;;;;;131.32582939998247;None;132.65081769996323;132.96740189986303;134.0925741000101;134.10911679989658;136.10963719990104;None;7;0;0.6334746000356972;136.10963719990104;None;;;;;;;;3;;;;;;137.68396459985524;None;None;None;[];137.68396459985524;None;"['7', '7']";"[0.5227113000582904, 0.8666431000456214]";137.68396459985524;None;;;S11330;2022_Mar_29_1912;VideoMask;2021.1.2;119.79074932029876;
8.0;f;028_y_f_s_a.jpg;sad;7.0;sad_64.2ns.avi;sad;7.0;congruent;130.0;160.0;229.88540597086478;s_s;;;;;0;4;4;4;;;;;;;140.68387939990498;None;142.88383900001645;143.20038019982167;144.375325899804;144.39194489992224;155.35002359980717;None;7;0;0.41680829995311797;155.35002359980717;None;;;;;;;;5;;;;;;156.92500849999487;None;None;None;[];156.92500849999487;None;None;;156.92500849999487;None;;;S11330;2022_Mar_29_1912;VideoMask;2021.1.2;119.79074932029876;
7.0;m;027_o_m_s_a.jpg;sad;7.0;sad_10.4ns.avi;sad;7.0;congruent;130.0;160.0;185.20129417468752;s_s;;;;;0;5;5;5;;;;;;;159.9414529998321;None;161.69975729985163;162.0166251999326;163.16643069987185;163.18311539990827;166.31699569988996;None;None;0;;166.31699569988996;None;;;;;;;;6;;;;;;167.89148569991812;None;None;None;[];167.89148569991812;None;"['7', '9', '9', '9', '7']";"[0.18711699987761676, 1.1233608999755234, 1.5230201999656856, 1.8834627999458462, 2.4433031000662595]";167.89148569991812;None;;;S11330;2022_Mar_29_1912;VideoMask;2021.1.2;119.79074932029876;
2.0;f;012_o_f_s_a.jpg;sad;7.0;sad_7.5ns.avi;sad;7.0;congruent;130.0;160.0;220.27842655424388;s_s;;;;;0;6;6;6;;;;;;;170.8995747999288;None;172.93289629998617;173.24946859991178;174.40821539983153;174.42457729997113;177.17467679991387;None;7;0;0.6640161001123488;177.17467679991387;None;;;;;;;;4;;;;;;178.74117939989083;None;None;None;[];178.74117939989083;None;['7'];[0.6655155001208186];178.74117939989083;None;;;S11330;2022_Mar_29_1912;VideoMask;2021.1.2;119.79074932029876;
2.0;f;012_o_f_h_a.jpg;happy;9.0;happy_27.1ns.avi;happy;9.0;congruent;120.0;150.0;146.44967055810616;h_h;;;;;0;7;7;7;;;;;;;181.73293269984424;None;183.15743769984692;183.47402969980612;184.64907219982706;184.66570759983733;187.09903799998574;None;9;0;0.6676435000263155;187.09903799998574;None;;;;;;;;6;;;;;;188.64895559987053;None;None;None;[];188.64895559987053;None;['9'];[0.7016559999901801];188.64895559987053;None;;;S11330;2022_Mar_29_1912;VideoMask;2021.1.2;119.79074932029876;
8.0;f;028_y_f_h_a.jpg;happy;9.0;sad_119.1.wmv;sad;7.0;incongruent;120.0;160.0;148.71526953572538;h_s;;;;;0;8;8;8;;;;;;;191.65754329995252;None;193.1154040999245;193.43205109983683;194.5655642999336;194.58204709994607;196.63201750000007;None;7;0;0.446878399932757;196.63201750000007;None;;;;;;;;5;;;;;;198.21551719983108;None;None;None;[];198.21551719983108;None;None;;198.21551719983108;None;;;S11330;2022_Mar_29_1912;VideoMask;2021.1.2;119.79074932029876;
6.0;m;016_y_m_s_a.jpg;sad;7.0;happy_60.4ns.avi;happy;9.0;incongruent;130.0;150.0;126.02367393611817;s_h;;;;;0;9;9;9;;;;;;;201.2318066000007;None;202.52359170001;202.84011649992317;203.98180259997025;203.99831459997222;209.7649970999919;None;9;0;0.409763399977237;209.7649970999919;None;;;;;;;;5;;;;;;211.31500589987263;None;None;None;[];211.31500589987263;None;None;;211.31500589987263;None;;;S11330;2022_Mar_29_1912;VideoMask;2021.1.2;119.79074932029876;
9.0;f;019_m_f_s_a.jpg;sad;7.0;sad_8.4ns.avi;sad;7.0;congruent;130.0;160.0;171.6633093155257;s_s;;;;;0;10;10;10;;;;;;;214.33159770001657;None;216.01478530000895;216.3315481999889;217.48969760001637;217.50623689987697;225.60598759981804;None;7;0;0.3925904999487102;225.60598759981804;None;;;;;;;;3;;;;;;227.15614450001158;None;None;None;[];227.15614450001158;None;"['7', '7']";"[0.37049570004455745, 0.690425300039351]";227.15614450001158;None;;;S11330;2022_Mar_29_1912;VideoMask;2021.1.2;119.79074932029876;
4.0;m;004_o_m_h_a.jpg;happy;9.0;happy_1.1ns.avi;happy;9.0;congruent;120.0;150.0;203.50057144619865;h_h;;;;;0;11;11;11;;;;;;;230.1561368999537;None;232.13930799998343;232.45600779983215;233.58936579991132;233.60589979984798;248.07215909985825;None;9;0;0.6226012001279742;248.07215909985825;None;;;;;;;;6;;;;;;249.62213079980575;None;None;None;[];249.62213079980575;None;['9'];[0.4004828999750316];249.62213079980575;None;;;S11330;2022_Mar_29_1912;VideoMask;2021.1.2;119.79074932029876;
7.0;m;027_o_m_h_a.jpg;happy;9.0;happy_20.1ns.avi;happy;9.0;congruent;120.0;150.0;152.91127178874285;h_h;;;;;0;12;12;12;;;;;;;252.62197580002248;None;254.11367519991472;254.43018019990996;255.56357329990715;255.5802472999785;258.58015559986234;None;9;0;0.6503880000673234;258.58015559986234;None;;;;;;;;6;;;;;;260.15514689986594;None;None;None;[];260.15514689986594;None;['9'];[0.36350689991377294];260.15514689986594;None;;;S11330;2022_Mar_29_1912;VideoMask;2021.1.2;119.79074932029876;
0.0;f;040_y_f_s_a.jpg;sad;7.0;sad_94.3ns.avi;sad;7.0;congruent;130.0;160.0;155.27414203894395;s_s;;;;;0;13;13;13;;;;;;;263.16335349995643;None;264.6549040998798;264.97156429989263;266.1382296998054;266.15494389995;268.72962030000053;None;7;0;0.43719840003177524;268.72962030000053;None;;;;;;;;5;;;;;;270.3382345000282;None;None;None;[];270.3382345000282;None;None;;270.3382345000282;None;;;S11330;2022_Mar_29_1912;VideoMask;2021.1.2;119.79074932029876;
0.0;f;030_o_f_s_a.jpg;sad;7.0;sad_68.1ns.avi;sad;7.0;congruent;130.0;160.0;158.9411396037211;s_s;;;;;0;14;14;14;;;;;;;273.3714874999132;None;274.938083200017;275.25467659998685;276.4046322000213;276.4213504998479;283.8128437998239;None;7;0;0.4577166000381112;283.8128437998239;None;;;;;;;;4;;;;;;285.36267689988017;None;None;None;[];285.36267689988017;None;['7'];[0.40400089998729527];285.36267689988017;None;;;S11330;2022_Mar_29_1912;VideoMask;2021.1.2;119.79074932029876;
0.0;f;030_o_f_h_a.jpg;happy;9.0;sad_127.1.wmv;sad;7.0;incongruent;120.0;160.0;180.59976631384873;h_s;;;;;0;15;15;15;;;;;;;288.3624708999414;None;290.10417860001326;290.4207544999663;291.54590229992755;291.5623657000251;293.56240329984576;None;None;0;;293.56240329984576;None;;;;;;;;5;;;;;;295.20398180000484;None;None;None;[];295.20398180000484;None;['7'];[0.2186833000741899];295.20398180000484;None;;;S11330;2022_Mar_29_1912;VideoMask;2021.1.2;119.79074932029876;
8.0;m;008_y_m_s_a.jpg;sad;7.0;happy_133.3.wmv;happy;9.0;incongruent;130.0;150.0;152.577966552593;s_h;;;;;0;16;16;16;;;;;;;298.2039971998893;None;299.69561999989673;300.0122418999672;301.15391529980116;301.1705807999242;303.1463487998117;None;9;0;0.5401588000822812;303.1463487998117;None;;;;;;;;6;;;;;;304.8786844999995;None;None;None;[];304.8786844999995;None;['9'];[0.3440036999527365];304.8786844999995;None;;;S11330;2022_Mar_29_1912;VideoMask;2021.1.2;119.79074932029876;
3.0;m;033_o_m_h_a.jpg;happy;9.0;sad_128.1.wmv;sad;7.0;incongruent;120.0;160.0;171.0492454518585;h_s;;;;;0;17;17;17;;;;;;;307.88709909981117;None;309.53689009998925;309.8536332999356;310.98658569995314;311.0033344000112;312.9867596998811;None;7;0;0.6839198998641223;312.9867596998811;None;;;;;;;;5;;;;;;314.5368446998764;None;None;None;[];314.5368446998764;None;None;;314.5368446998764;None;;;S11330;2022_Mar_29_1912;VideoMask;2021.1.2;119.79074932029876;
1.0;f;021_o_f_h_a.jpg;happy;9.0;sad_116.1.wmv;sad;7.0;incongruent;120.0;160.0;184.06847610053055;h_s;;;;;0;18;18;18;;;;;;;317.5698428999167;None;319.3197359999176;319.636517399922;320.80323429987766;320.81984999985434;322.77881889999844;None;7;0;0.3400300000794232;322.77881889999844;None;;;;;;;;5;;;;;;324.50309779983945;None;None;None;[];324.50309779983945;None;None;;324.50309779983945;None;;;S11330;2022_Mar_29_1912;VideoMask;2021.1.2;119.79074932029876;
4.0;m;004_o_m_s_a.jpg;sad;7.0;happy_28.1ns.avi;happy;9.0;incongruent;130.0;150.0;157.40741103039684;s_h;;;;;0;19;19;19;;;;;;;327.53652169997804;None;329.0695241999347;329.38617859990336;330.5526991998777;330.5694925999269;334.9111667999532;None;9;0;0.31178250000812113;334.9111667999532;None;;;;;;;;6;;;;;;336.552743999986;None;None;None;[];336.552743999986;None;['9'];[0.6698967001866549];336.552743999986;None;;;S11330;2022_Mar_29_1912;VideoMask;2021.1.2;119.79074932029876;
8.0;f;028_y_f_s_a.jpg;sad;7.0;happy_122.3.wmv;happy;9.0;incongruent;130.0;150.0;171.8670540936116;s_h;;;;;0;20;20;20;;;;;;;339.55258779996075;None;341.2024770998396;341.51912309997715;342.6606335998513;342.67732060002163;344.65259469999;None;9;0;0.5619737999513745;344.65259469999;None;;;;;;;;6;;;;;;346.20241779997014;None;None;None;[];346.20241779997014;None;['9'];[0.4361378001049161];346.20241779997014;None;;;S11330;2022_Mar_29_1912;VideoMask;2021.1.2;119.79074932029876;
8.0;m;008_y_m_s_a.jpg;sad;7.0;sad_6.5ns.avi;sad;7.0;congruent;130.0;160.0;170.39333839271438;s_s;;;;;0;21;21;21;;;;;;;349.2108720999677;None;350.83547890000045;351.15218369988725;352.3104259998072;352.3271353999153;357.2855010998901;None;7;0;0.5131548000499606;357.2855010998901;None;;;;;;;;5;;;;;;358.83532359986566;None;None;None;[];358.83532359986566;None;None;;358.83532359986566;None;;;S11330;2022_Mar_29_1912;VideoMask;2021.1.2;119.79074932029876;
8.0;f;028_y_f_h_a.jpg;happy;9.0;happy_23.1ns.avi;happy;9.0;congruent;120.0;150.0;225.70986890587952;h_h;;;;;0;22;22;22;;;;;;;361.85184099990875;None;363.96002070000395;364.2767597998027;365.4432627998758;365.46017330000177;369.9850261998363;None;9;0;0.3338450000155717;369.9850261998363;None;;;;;;;;6;;;;;;371.6683302000165;None;None;None;[];371.6683302000165;None;['9'];[0.37018999992869794];371.6683302000165;None;;;S11330;2022_Mar_29_1912;VideoMask;2021.1.2;119.79074932029876;
8.0;m;008_y_m_h_a.jpg;happy;9.0;sad_111.1.wmv;sad;7.0;incongruent;120.0;160.0;152.63076835312847;h_s;;;;;0;23;23;23;;;;;;;374.66823189985007;None;376.14305429998785;376.45968639990315;377.59315349999815;377.60962109989487;379.5931357999798;None;7;0;0.46137179993093014;379.5931357999798;None;;;;;;;;5;;;;;;381.1430093999952;None;None;None;[];381.1430093999952;None;None;;381.1430093999952;None;;;S11330;2022_Mar_29_1912;VideoMask;2021.1.2;119.79074932029876;
0.0;f;040_y_f_s_a.jpg;sad;7.0;sad_67.2ns.avi;sad;7.0;congruent;130.0;160.0;220.9892697323079;s_s;;;;;0;24;24;24;;;;;;;384.15955349989235;None;386.2593678999692;386.5760806000326;387.70945880003273;387.7261440998409;396.9342707998585;None;7;0;0.32832369999960065;396.9342707998585;None;;;;;;;;5;;;;;;398.48406309983693;None;None;None;[];398.48406309983693;None;None;;398.48406309983693;None;;;S11330;2022_Mar_29_1912;VideoMask;2021.1.2;119.79074932029876;
8.0;m;008_y_m_s_a.jpg;sad;7.0;happy_29.1ns.avi;happy;9.0;incongruent;130.0;150.0;120.0316142834122;s_h;;;;;0;25;25;25;;;;;;;401.5090612999629;None;402.7255665999837;403.04217509995215;404.1838991998229;404.2005606999155;406.86718419985846;None;9;0;0.31572730001062155;406.86718419985846;None;;;;;;;;5;;;;;;408.7003260999918;None;None;None;[];408.7003260999918;None;None;;408.7003260999918;None;;;S11330;2022_Mar_29_1912;VideoMask;2021.1.2;119.79074932029876;
6.0;m;016_y_m_s_a.jpg;sad;7.0;sad_8.3ns.avi;sad;7.0;congruent;130.0;160.0;152.85371098242734;s_s;;;;;0;26;26;26;;;;;;;411.73385119996965;None;413.25875359983183;413.5753868999891;414.72506479988806;414.741822199896;422.4666852999944;None;7;0;0.5318963001482189;422.4666852999944;None;;;;;;;;5;;;;;;424.0167681998573;None;None;None;[];424.0167681998573;None;None;;424.0167681998573;None;;;S11330;2022_Mar_29_1912;VideoMask;2021.1.2;119.79074932029876;
6.0;m;016_y_m_h_a.jpg;happy;9.0;sad_114.1.wmv;sad;7.0;incongruent;120.0;160.0;136.20550699298644;h_s;;;;;0;27;27;27;;;;;;;427.04161129985005;None;428.39970800001174;428.7164413998835;429.84966669999994;429.86649419995956;431.84966919990256;None;None;0;;431.84966919990256;None;;;;;;;;5;;;;;;433.39956049993634;None;None;None;[];433.39956049993634;None;None;;433.39956049993634;None;;;S11330;2022_Mar_29_1912;VideoMask;2021.1.2;119.79074932029876;
7.0;m;027_o_m_s_a.jpg;sad;7.0;happy_117.3.wmv;happy;9.0;incongruent;130.0;150.0;215.61964028550614;s_h;;;;;0;28;28;28;;;;;;;436.4163689999841;None;438.41617590002716;438.7327636999544;439.85797899984755;439.8743771999143;441.8660611999221;None;9;0;0.5885773999616504;441.8660611999221;None;;;;;;;;5;;;;;;443.48265429981984;None;None;None;[];443.48265429981984;None;None;;443.48265429981984;None;;;S11330;2022_Mar_29_1912;VideoMask;2021.1.2;119.79074932029876;
6.0;m;016_y_m_h_a.jpg;happy;9.0;happy_9.2ns.avi;happy;9.0;congruent;120.0;150.0;130.52042428082717;h_h;;;;;0;29;29;29;;;;;;;446.507653699955;None;447.82402900001034;448.1406729000155;449.26589569984935;449.2824848999735;455.1989793998655;None;9;0;0.36762629984878004;455.1989793998655;None;;;;;;;;6;;;;;;456.8072682998609;None;None;None;[];456.8072682998609;None;['9'];[0.3032098999246955];456.8072682998609;None;;;S11330;2022_Mar_29_1912;VideoMask;2021.1.2;119.79074932029876;
0.0;f;040_y_f_s_a.jpg;sad;7.0;happy_127.3.wmv;happy;9.0;incongruent;130.0;150.0;131.7195455720239;s_h;;;;;0;30;30;30;;;;;;;459.8158005999867;None;461.1236504998524;461.4403179998044;462.5655127998907;462.58201309992;464.6402792998124;None;9;0;0.3582496999297291;464.6402792998124;None;;;;;;;;5;;;;;;466.55696489987895;None;None;None;[];466.55696489987895;None;None;;466.55696489987895;None;;;S11330;2022_Mar_29_1912;VideoMask;2021.1.2;119.79074932029876;
0.0;f;030_o_f_s_a.jpg;sad;7.0;happy_125.3.wmv;happy;9.0;incongruent;130.0;150.0;220.51454909128134;s_h;;;;;0;31;31;31;;;;;;;469.59028469980694;None;471.65679389983416;471.9734939998016;473.1071219998412;473.1318408998195;475.106688400032;None;9;0;0.4599201998207718;475.106688400032;None;;;;;;;;5;;;;;;476.65674419980496;None;None;None;[];476.65674419980496;None;None;;476.65674419980496;None;;;S11330;2022_Mar_29_1912;VideoMask;2021.1.2;119.79074932029876;
0.0;f;030_o_f_s_a.jpg;sad;7.0;sad_64.3ns.avi;sad;7.0;congruent;130.0;160.0;165.78667874766072;s_s;;;;;0;32;32;32;;;;;;;479.68143239989877;None;481.28984189988114;481.60648850002326;482.7316587998066;482.74809050001204;487.73967999988236;None;7;0;0.4107763001229614;487.73967999988236;None;;;;;;;;5;;;;;;489.2895535000134;None;None;None;[];489.2895535000134;None;None;;489.2895535000134;None;;;S11330;2022_Mar_29_1912;VideoMask;2021.1.2;119.79074932029876;
3.0;m;013_y_m_s_a.jpg;sad;7.0;sad_7.7ns.avi;sad;7.0;congruent;130.0;160.0;196.24182255763262;s_s;;;;;0;33;33;33;;;;;;;492.3144344999455;None;494.16435489989817;494.4809617998544;495.64754609996453;495.6643048999831;501.61430589994416;None;7;0;0.3281241999939084;501.61430589994416;None;;;;;;;;4;;;;;;503.98893719981425;None;None;None;[];503.98893719981425;None;['7'];[0.5375933998730034];503.98893719981425;None;;;S11330;2022_Mar_29_1912;VideoMask;2021.1.2;119.79074932029876;
3.0;m;013_y_m_h_a.jpg;happy;9.0;happy_9.1ns.avi;happy;9.0;congruent;120.0;150.0;165.1890303600433;h_h;;;;;0;34;34;34;;;;;;;506.98893819982186;None;508.62231189990416;508.9391004999634;510.10556119983084;510.1222500000149;513.2972193998285;None;9;0;0.41352690011262894;513.2972193998285;None;;;;;;;;5;;;;;;514.8471378998365;None;None;None;[];514.8471378998365;None;None;;514.8471378998365;None;;;S11330;2022_Mar_29_1912;VideoMask;2021.1.2;119.79074932029876;
4.0;m;004_o_m_h_a.jpg;happy;9.0;sad_95.1ns.avi;sad;7.0;incongruent;120.0;160.0;152.68270002069931;h_s;;;;;0;35;35;35;;;;;;;517.8801780999638;None;519.4219888998196;519.7386405998841;520.8886110999156;520.9052336998284;529.6632878999226;None;7;0;0.4071565999183804;529.6632878999226;None;;;;;;;;2;;;;;;531.2133716999087;None;None;None;[];531.2133716999087;None;"['7', '7', '7']";"[0.2735297998879105, 0.7131121999118477, 1.2894103999715298]";531.2133716999087;None;;;S11330;2022_Mar_29_1912;VideoMask;2021.1.2;119.79074932029876;
3.0;m;013_y_m_h_a.jpg;happy;9.0;sad_113.2.wmv;sad;7.0;incongruent;120.0;160.0;217.4973891947951;h_s;;;;;0;36;36;36;;;;;;;534.213406899944;None;536.2463936000131;536.5629394999705;537.6881047999486;537.7046276999172;539.7053153000306;None;7;0;0.6052932001184672;539.7053153000306;None;;;;;;;;5;;;;;;541.3629001998343;None;None;None;[];541.3629001998343;None;None;;541.3629001998343;None;;;S11330;2022_Mar_29_1912;VideoMask;2021.1.2;119.79074932029876;
4.0;m;004_o_m_h_a.jpg;happy;9.0;happy_25.1ns.avi;happy;9.0;congruent;120.0;150.0;216.63044503818386;h_h;;;;;0;37;37;37;;;;;;;544.3793377999682;None;546.3961121998727;546.7126859999262;547.8460780000314;547.8627522999886;551.5376724998932;None;9;0;0.484775000018999;551.5376724998932;None;;;;;;;;6;;;;;;553.0876743998379;None;None;None;[];553.0876743998379;None;['9'];[0.47873379988595843];553.0876743998379;None;;;S11330;2022_Mar_29_1912;VideoMask;2021.1.2;119.79074932029876;
4.0;m;004_o_m_s_a.jpg;sad;7.0;happy_131.2.wmv;happy;9.0;incongruent;130.0;150.0;181.38407540847405;s_h;;;;;0;38;38;38;;;;;;;556.087579799816;None;557.8040863999631;558.1206477999222;559.2539652998094;559.2706311999355;561.2541370999534;None;9;0;0.6961912999395281;561.2541370999534;None;;;;;;;;5;;;;;;562.7956925998442;None;None;None;[];562.7956925998442;None;None;;562.7956925998442;None;;;S11330;2022_Mar_29_1912;VideoMask;2021.1.2;119.79074932029876;
0.0;f;040_y_f_h_a.jpg;happy;9.0;happy_24.3ns.avi;happy;9.0;congruent;120.0;150.0;213.25460698950434;h_h;;;;;0;39;39;39;;;;;;;565.8203834998421;None;567.8037008999381;568.1203332999721;569.3207990999799;569.3453943999484;571.1787341998424;None;9;0;0.5957462000660598;571.1787341998424;None;;;;;;;;6;;;;;;572.7285982000176;None;None;None;[];572.7285982000176;None;['9'];[0.6540262999478728];572.7285982000176;None;;;S11330;2022_Mar_29_1912;VideoMask;2021.1.2;119.79074932029876;
2.0;f;012_o_f_s_a.jpg;sad;7.0;happy_139.1.wmv;happy;9.0;incongruent;130.0;150.0;162.31500468041804;s_h;;;;;0;40;40;40;;;;;;;575.7369601998944;None;577.311711399816;577.6283757998608;578.7616572999395;578.7783749999944;580.7703087998088;None;9;0;0.36419780016876757;580.7703087998088;None;;;;;;;;5;;;;;;582.3283247000072;None;None;None;[];582.3283247000072;None;None;;582.3283247000072;None;;;S11330;2022_Mar_29_1912;VideoMask;2021.1.2;119.79074932029876;
0.0;f;030_o_f_h_a.jpg;happy;9.0;happy_24.1ns.avi;happy;9.0;congruent;120.0;150.0;168.36256624020774;h_h;;;;;0;41;41;41;;;;;;;585.3447839999571;None;586.9697074999567;587.2864397999365;588.4614349999465;588.4781646998599;591.7447593999095;None;9;0;0.4542139999102801;591.7447593999095;None;;;;;;;;6;;;;;;593.3279728000052;None;None;None;[];593.3279728000052;None;"['9', '9']";"[0.31856959988363087, 1.6946004000492394]";593.3279728000052;None;;;S11330;2022_Mar_29_1912;VideoMask;2021.1.2;119.79074932029876;
2.0;f;012_o_f_h_a.jpg;happy;9.0;sad_113.1.wmv;sad;7.0;incongruent;120.0;160.0;177.44551734737394;h_s;;;;;0;42;42;42;;;;;;;596.3363822998945;None;598.0443135998212;598.3610153000336;599.4943705999758;599.511068199994;601.4945513999555;None;7;0;1.1600189001765102;601.4945513999555;None;;;;;;;;4;;;;;;603.0443474999629;None;None;None;[];603.0443474999629;None;['7'];[0.9780962001532316];603.0443474999629;None;;;S11330;2022_Mar_29_1912;VideoMask;2021.1.2;119.79074932029876;
3.0;m;033_o_m_s_a.jpg;sad;7.0;sad_64.5ns.avi;sad;7.0;congruent;130.0;160.0;130.55717223801247;s_s;;;;;0;43;43;43;;;;;;;606.0527657999191;None;607.3859850999434;607.7025644998066;608.8526871998329;608.8691715998575;615.4190519999247;None;7;0;0.33146029990166426;615.4190519999247;None;;;;;;;;4;;;;;;616.9688377999701;None;None;None;[];616.9688377999701;None;['7'];[0.30962290009483695];616.9688377999701;None;;;S11330;2022_Mar_29_1912;VideoMask;2021.1.2;119.79074932029876;
7.0;m;027_o_m_h_a.jpg;happy;9.0;sad_117.1.wmv;sad;7.0;incongruent;120.0;160.0;181.28665202824095;h_s;;;;;0;44;44;44;;;;;;;619.9689342000056;None;621.6937490999699;622.0104823999573;623.1436747999396;623.1604084998835;625.1435715998523;None;7;0;0.5829892999026924;625.1435715998523;None;;;;;;;;5;;;;;;626.6852903999388;None;None;None;[];626.6852903999388;None;None;;626.6852903999388;None;;;S11330;2022_Mar_29_1912;VideoMask;2021.1.2;119.79074932029876;
3.0;m;033_o_m_s_a.jpg;sad;7.0;happy_126.3.wmv;happy;9.0;incongruent;130.0;150.0;198.85252030535366;s_h;;;;;0;45;45;45;;;;;;;629.7100138999522;None;631.584997399943;631.9016205999069;633.0680656998884;633.0850264998153;635.0351028000005;None;9;0;0.7233452999498695;635.0351028000005;None;;;;;;;;5;;;;;;636.5849495998118;None;None;None;[];636.5849495998118;None;None;;636.5849495998118;None;;;S11330;2022_Mar_29_1912;VideoMask;2021.1.2;119.79074932029876;
3.0;m;033_o_m_h_a.jpg;happy;9.0;sad_136.1.wmv;sad;7.0;incongruent;120.0;160.0;176.97002883463455;h_s;;;;;0;46;46;46;;;;;;;639.6098394999281;None;641.2933171000332;641.6097350998316;642.734951299848;642.7514001999516;644.74295539991;None;9;0;1.223519700113684;644.74295539991;None;;;;;;;;5;;;;;;646.2931507998146;None;None;None;[];646.2931507998146;None;None;;646.2931507998146;None;;;S11330;2022_Mar_29_1912;VideoMask;2021.1.2;119.79074932029876;
9.0;f;019_m_f_h_a.jpg;happy;9.0;happy_10.1ns.avi;happy;9.0;congruent;120.0;150.0;157.2463435658512;h_h;;;;;0;47;47;47;;;;;;;649.3262980999425;None;650.8761773998849;651.1927859999705;652.3177948999219;652.3346288998146;659.7675421999302;None;9;0;0.42289309995248914;659.7675421999302;None;;;;;;;;5;;;;;;661.3091482999735;None;None;None;[];661.3091482999735;None;"['9', '9', '9']";"[0.36124230013228953, 1.2013593001756817, 2.0012115000281483]";661.3091482999735;None;;;S11330;2022_Mar_29_1912;VideoMask;2021.1.2;119.79074932029876;
2.0;f;012_o_f_h_a.jpg;happy;9.0;happy_2.2ns.avi;happy;9.0;congruent;120.0;150.0;206.34800317295262;h_h;;;;;0;48;48;48;;;;;;;664.3091972998809;None;666.2756841999944;666.5922297998331;667.7341050999239;667.7506163998041;679.9337128999177;None;None;0;;679.9337128999177;None;;;;;;;;5;;;;;;681.4833907999564;None;None;None;[];681.4833907999564;None;None;;681.4833907999564;None;;;S11330;2022_Mar_29_1912;VideoMask;2021.1.2;119.79074932029876;
3.0;m;033_o_m_h_a.jpg;happy;9.0;happy_24.2ns.avi;happy;9.0;congruent;120.0;150.0;167.9423847659953;h_h;;;;;0;49;49;49;;;;;;;684.4999849000014;None;686.1166165999603;686.4333620998077;687.599967099959;687.6168221000116;691.2916190000251;None;9;0;0.9307862999849021;691.2916190000251;None;;;;;;;;6;;;;;;692.8665330999065;None;None;None;[];692.8665330999065;None;['9'];[0.5799830998294055];692.8665330999065;None;;;S11330;2022_Mar_29_1912;VideoMask;2021.1.2;119.79074932029876;
1.0;f;021_o_f_s_a.jpg;sad;7.0;happy_61.2ns.avi;happy;9.0;incongruent;130.0;150.0;210.94664004826666;s_h;;;;;0;50;50;50;;;;;;;695.86657990003;None;697.8496895998251;698.1663222999778;699.307799299946;699.3246077999938;703.8245241998229;None;9;0;0.5342365000396967;703.8245241998229;None;;;;;;;;5;;;;;;705.4995334998239;None;None;None;[];705.4995334998239;None;None;;705.4995334998239;None;;;S11330;2022_Mar_29_1912;VideoMask;2021.1.2;119.79074932029876;
4.0;m;004_o_m_s_a.jpg;sad;7.0;sad_2.4ns.avi;sad;7.0;congruent;130.0;160.0;153.02079367163634;s_s;;;;;0;51;51;51;;;;;;;708.5241931998171;None;710.0242231998127;710.3409070998896;711.5159346999135;711.5327808000147;719.4407742000185;None;7;0;1.269736299989745;719.4407742000185;None;;;;;;;;5;;;;;;720.998958799988;None;None;None;[];720.998958799988;None;None;;720.998958799988;None;;;S11330;2022_Mar_29_1912;VideoMask;2021.1.2;119.79074932029876;
8.0;m;008_y_m_h_a.jpg;happy;9.0;happy_1.2ns.avi;happy;9.0;congruent;120.0;150.0;210.98946429383824;h_h;;;;;0;52;52;52;;;;;;;724.0238397999201;None;726.0655443000142;726.3819819998462;727.5404646999668;727.5571540999226;740.3066606998909;None;9;0;1.3797604001592845;740.3066606998909;None;;;;;;;;5;;;;;;741.8567666998133;None;None;None;[];741.8567666998133;None;None;;741.8567666998133;None;;;S11330;2022_Mar_29_1912;VideoMask;2021.1.2;119.79074932029876;
2.0;f;012_o_f_s_a.jpg;sad;7.0;happy_52.2ns.avi;happy;9.0;incongruent;130.0;150.0;172.57202848318138;s_h;;;;;0;53;53;53;;;;;;;744.8813557999674;None;746.5397351998836;746.8565078999382;748.0068659998942;748.0315665998496;751.5396008000243;None;9;0;0.8026636000722647;751.5396008000243;None;;;;;;;;6;;;;;;753.0980885999743;None;None;None;[];753.0980885999743;None;['9'];[0.6204232000745833];753.0980885999743;None;;;S11330;2022_Mar_29_1912;VideoMask;2021.1.2;119.79074932029876;
9.0;f;019_m_f_s_a.jpg;sad;7.0;happy_61.1ns.avi;happy;9.0;incongruent;130.0;150.0;181.3003220572762;s_h;;;;;0;54;54;54;;;;;;;756.1061907999683;None;757.8894522998016;758.2059522999916;759.3477292000316;759.3643966999371;766.7309530999046;None;9;0;0.8913223999552429;766.7309530999046;None;;;;;;;;5;;;;;;768.2806946998462;None;None;None;[];768.2806946998462;None;None;;768.2806946998462;None;;;S11330;2022_Mar_29_1912;VideoMask;2021.1.2;119.79074932029876;
0.0;f;030_o_f_h_a.jpg;happy;9.0;sad_133.1.wmv;sad;7.0;incongruent;120.0;160.0;198.86251500867985;h_s;;;;;0;55;55;55;;;;;;;771.2973762999754;None;773.1723780999891;773.4889078999404;774.6223479998298;774.6388908999506;776.6221252998803;None;7;0;0.7284035000484437;776.6221252998803;None;;;;;;;;5;;;;;;778.1722982998472;None;None;None;[];778.1722982998472;None;None;;778.1722982998472;None;;;S11330;2022_Mar_29_1912;VideoMask;2021.1.2;119.79074932029876;
0.0;f;040_y_f_h_a.jpg;happy;9.0;sad_128.2.wmv;sad;7.0;incongruent;120.0;160.0;206.10005857915363;h_s;;;;;0;56;56;56;;;;;;;781.1885416998994;None;783.1219080998562;783.43853389984;784.5718306999188;784.5886123999953;786.5719725999516;None;7;0;0.6025014000479132;786.5719725999516;None;;;;;;;;4;;;;;;788.5049723000266;None;None;None;[];788.5049723000266;None;['7'];[0.32572319987230003];788.5049723000266;None;;;S11330;2022_Mar_29_1912;VideoMask;2021.1.2;119.79074932029876;
1.0;f;021_o_f_s_a.jpg;sad;7.0;sad_9.5ns.avi;sad;7.0;congruent;130.0;160.0;206.16642757875042;s_s;;;;;0;57;57;57;;;;;;;791.513571199961;None;793.4382060000207;793.754945699824;794.9215892998036;794.9389374998864;800.6132389998529;None;7;0;0.9931596000678837;800.6132389998529;None;;;;;;;;7;;;;;;802.1630954998545;None;None;None;[];802.1630954998545;None;"['9', '9']";"[0.49963769991882145, 1.0113728998694569]";802.1630954998545;None;;;S11330;2022_Mar_29_1912;VideoMask;2021.1.2;119.79074932029876;
1.0;f;021_o_f_h_a.jpg;happy;9.0;happy_12.1ns.avi;happy;9.0;congruent;120.0;150.0;132.59080005900228;h_h;;;;;0;58;58;58;;;;;;;805.1630571999121;None;806.521200499963;806.8379143998027;807.9960799999535;808.0130443999078;815.5876692999154;None;9;0;0.5067115998826921;815.5876692999154;None;;;;;;;;5;;;;;;817.1543372999877;None;None;None;[];817.1543372999877;None;None;;817.1543372999877;None;;;S11330;2022_Mar_29_1912;VideoMask;2021.1.2;119.79074932029876;
3.0;m;013_y_m_s_a.jpg;sad;7.0;happy_56.2ns.avi;happy;9.0;incongruent;130.0;150.0;163.39234110935848;s_h;;;;;0;59;59;59;;;;;;;820.1709280998912;None;821.762345999945;822.0790036998224;823.278848499991;823.2958639999852;828.237284499919;None;9;0;0.40112160006538033;828.237284499919;None;;;;;;;;5;;;;;;829.7872230999637;None;None;None;[];829.7872230999637;None;None;;829.7872230999637;None;;;S11330;2022_Mar_29_1912;VideoMask;2021.1.2;119.79074932029876;
;;;;;;;;;;;;;;;;;;;;;;;;;;;;;;;;;;;;;;;;;;;;;;;;;;;;;;;;;;;;;;;;832.8205086998641;None;;;;;;
