primePerson;primeGender;prime;primeEmotion;corrAnsPrime;target;targetEmotion;corrAnsTar;Cond;ID_Primer;ID_Target;JitterTime;Condition;example.thisRepN;example.thisTrialN;example.thisN;example.thisIndex;study.thisRepN;study.thisTrialN;study.thisN;study.thisIndex;MR_trigger_time;MR_trigger_number;text_intro.started;text_intro.stopped;text_probe.started;text_probe.stopped;polygon_ISI.started;polygon_ISI.stopped;polygon.started;polygon.stopped;primerImage.started;primerImage.stopped;response.started;response.stopped;key_resp.keys;key_resp.corr;key_resp.rt;key_resp.started;key_resp.stopped;slider_Text.started;slider_Text.stopped;slider_ex.response;slider_ex.rt;slider_ex.history;slider_ex.started;slider_ex.stopped;Rating;slider_resp_response.keys;slider_resp_response.started;slider_resp_response.stopped;text_start.started;text_start.stopped;text_slider.started;text_slider.stopped;slider_stud.response;slider_stud.rt;slider_stud.history;slider_stud.started;slider_stud.stopped;slider_resp_study.keys;slider_resp_study.started;slider_resp_study.stopped;slider_resp_study.rt;text_ende.started;text_ende.stopped;participant;date;expName;psychopyVersion;frameRate;
1111;m;1111_m_m_h_a.jpg;happy;9;example_30.4ns.avi;neutral;7;incongruent;120.0;170.0;189.5874364012288;;0;0;0;0;;;;;26.113811300019734;1;26.20883210003376;28.208898700017016;28.208898700017016;None;30.227268200018443;None;32.52659179997863;32.85041130002355;34.008672500029206;34.025398800033145;38.31694370001787;None;8;0;0.9298680999781936;38.31694370001787;None;39.88346179999644;None;None;None;[];39.88346179999644;None;5;None;39.88346179999644;None;;;;;;;;;;;;;;;;S12068;2023_Mar_14_1555;VideoMask;2021.1.2;120.02971938919245;
1113;f;1113_y_f_s_a.jpg;sad;7;example_30.3ns.avi;neutral;7;incongruent;130.0;170.0;229.02432995836998;;0;1;1;1;;;;;;;;;;;42.89186620002147;None;45.008327800023835;45.33381580002606;46.51653800002532;46.53315049997764;48.45830759999808;None;8;0;1.0124015000183135;48.45830759999808;None;50.1165161000099;None;None;None;[];50.1165161000099;None;5;None;50.1165161000099;None;;;;;;;;;;;;;;;;S12068;2023_Mar_14_1555;VideoMask;2021.1.2;120.02971938919245;
9.0;f;019_m_f_h_a.jpg;happy;9.0;sad_115.1.wmv;sad;7.0;incongruent;120.0;160.0;128.09063432376465;h_s;;;;;0;0;0;0;;;;;;;54.14984149998054;None;55.44969580002362;55.76634520001244;56.90787080000155;56.924601099977735;58.899649500031956;None;7;0;0.9467790999915451;58.899649500031956;None;;;;;;;;5;;;;53.141488299996126;None;60.45790009998018;None;None;None;[];60.45790009998018;None;None;60.45790009998018;None;;;;S12068;2023_Mar_14_1555;VideoMask;2021.1.2;120.02971938919245;
3.0;m;033_o_m_s_a.jpg;sad;7.0;sad_94.2ns.avi;sad;7.0;congruent;130.0;160.0;182.29120173647655;s_s;;;;;0;1;1;1;;;;;;;63.4745028000325;None;65.20759609999368;65.5247948000324;66.6743134999997;66.69093829998747;69.34929119999288;None;None;0;;69.34929119999288;None;;;;;;;;5;;;;;;70.89921489998233;None;None;None;[];70.89921489998233;None;"['7', '9']";70.89921489998233;None;"[0.3631949999835342, 2.4032287999871187]";;;S12068;2023_Mar_14_1555;VideoMask;2021.1.2;120.02971938919245;
8.0;m;008_y_m_h_a.jpg;happy;9.0;happy_26.1ns.avi;happy;9.0;congruent;120.0;150.0;155.9437854594882;h_h;;;;;0;2;2;2;;;;;;;73.8992799000116;None;75.40723920002347;75.73245379998116;76.85725120001007;76.87406719999854;78.84892369998852;None;9;0;0.5816534999758005;78.84892369998852;None;;;;;;;;5;;;;;;80.39885990001494;None;None;None;[];80.39885990001494;None;None;80.39885990001494;None;;;;S12068;2023_Mar_14_1555;VideoMask;2021.1.2;120.02971938919245;
0.0;f;040_y_f_h_a.jpg;happy;9.0;sad_138.1.wmv;sad;7.0;incongruent;120.0;160.0;133.99071306426532;h_s;;;;;0;3;3;3;;;;;;;83.43219989998033;None;84.76531510002678;85.09027149999747;86.21544509998057;86.23204030003399;88.21529670001473;None;None;0;;88.21529670001473;None;;;;;;;;5;;;;;;89.76513270003488;None;None;None;[];89.76513270003488;None;"['7', '9']";89.76513270003488;None;"[0.08932209998602048, 1.0812191999866627]";;;S12068;2023_Mar_14_1555;VideoMask;2021.1.2;120.02971938919245;
8.0;f;028_y_f_s_a.jpg;sad;7.0;sad_64.2ns.avi;sad;7.0;congruent;130.0;160.0;229.88540597086478;s_s;;;;;0;4;4;4;;;;;;;92.76557950000279;None;94.98175169999013;95.29801189998398;96.48168860003352;96.49835770000936;107.43137900001602;None;7;0;0.7668645000085235;107.43137900001602;None;;;;;;;;5;;;;;;108.98127240000758;None;None;None;[];108.98127240000758;None;None;108.98127240000758;None;;;;S12068;2023_Mar_14_1555;VideoMask;2021.1.2;120.02971938919245;
7.0;m;027_o_m_s_a.jpg;sad;7.0;sad_10.4ns.avi;sad;7.0;congruent;130.0;160.0;185.20129417468752;s_s;;;;;0;5;5;5;;;;;;;112.01457810000284;None;113.7810019000317;114.09764729999006;115.25612440000987;115.27275489998283;118.40597979997983;None;7;0;0.7764127000118606;118.40597979997983;None;;;;;;;;4;;;;;;119.95590350002749;None;None;None;[];119.95590350002749;None;['7'];119.95590350002749;None;[1.4904037999804132];;;S12068;2023_Mar_14_1555;VideoMask;2021.1.2;120.02971938919245;
2.0;f;012_o_f_s_a.jpg;sad;7.0;sad_7.5ns.avi;sad;7.0;congruent;130.0;160.0;220.27842655424388;s_s;;;;;0;6;6;6;;;;;;;122.96447760000592;None;125.00565459998325;125.32210580003448;126.48901580000529;126.50574330001837;129.24729780002963;None;7;0;0.6071769999689423;129.24729780002963;None;;;;;;;;5;;;;;;130.79724149999674;None;None;None;[];130.79724149999674;None;None;130.79724149999674;None;;;;S12068;2023_Mar_14_1555;VideoMask;2021.1.2;120.02971938919245;
2.0;f;012_o_f_h_a.jpg;happy;9.0;happy_27.1ns.avi;happy;9.0;congruent;120.0;150.0;146.44967055810616;h_h;;;;;0;7;7;7;;;;;;;133.8303907000227;None;135.27204190002521;135.5971198999905;136.76357830001507;136.78038409998408;139.21364149998408;None;9;0;0.47284989996114746;139.21364149998408;None;;;;;;;;5;;;;;;140.7635627000127;None;None;None;[];140.7635627000127;None;None;140.7635627000127;None;;;;S12068;2023_Mar_14_1555;VideoMask;2021.1.2;120.02971938919245;
8.0;f;028_y_f_h_a.jpg;happy;9.0;sad_119.1.wmv;sad;7.0;incongruent;120.0;160.0;148.71526953572538;h_s;;;;;0;8;8;8;;;;;;;143.78847149998182;None;145.25501959997928;145.5802440000116;146.7145210999879;146.73839220002992;148.7717271000147;None;7;0;0.9628740000189282;148.7717271000147;None;;;;;;;;5;;;;;;150.3216817000066;None;None;None;[];150.3216817000066;None;"['7', '9']";150.3216817000066;None;"[1.8527011999976821, 2.5328677000361495]";;;S12068;2023_Mar_14_1555;VideoMask;2021.1.2;120.02971938919245;
6.0;m;016_y_m_s_a.jpg;sad;7.0;happy_60.4ns.avi;happy;9.0;incongruent;130.0;150.0;126.02367393611817;s_h;;;;;0;9;9;9;;;;;;;153.32982670003548;None;154.62971240002662;154.94646160001867;156.08803430001717;156.10462310002185;161.87128449999727;None;9;0;0.5993954999721609;161.87128449999727;None;;;;;;;;5;;;;;;163.42121659999248;None;None;None;[];163.42121659999248;None;None;163.42121659999248;None;;;;S12068;2023_Mar_14_1555;VideoMask;2021.1.2;120.02971938919245;
9.0;f;019_m_f_s_a.jpg;sad;7.0;sad_8.4ns.avi;sad;7.0;congruent;130.0;160.0;171.6633093155257;s_s;;;;;0;10;10;10;;;;;;;166.45440970000345;None;168.14594329998363;168.47097959998064;169.63927570002852;169.6712494000094;177.74640529998578;None;7;0;0.6039914000430144;177.74640529998578;None;;;;;;;;5;;;;;;179.4373202000279;None;None;None;[];179.4373202000279;None;None;179.4373202000279;None;;;;S12068;2023_Mar_14_1555;VideoMask;2021.1.2;120.02971938919245;
4.0;m;004_o_m_h_a.jpg;happy;9.0;happy_1.1ns.avi;happy;9.0;congruent;120.0;150.0;203.50057144619865;h_h;;;;;0;11;11;11;;;;;;;182.46228300000075;None;184.44534340000246;184.76205259998096;185.94550700002583;185.96199169999454;200.37833570002113;None;8;0;0.7079990000347607;200.37833570002113;None;;;;;;;;5;;;;;;201.9366022000322;None;None;None;[];201.9366022000322;None;None;201.9366022000322;None;;;;S12068;2023_Mar_14_1555;VideoMask;2021.1.2;120.02971938919245;
7.0;m;027_o_m_h_a.jpg;happy;9.0;happy_20.1ns.avi;happy;9.0;congruent;120.0;150.0;152.91127178874285;h_h;;;;;0;12;12;12;;;;;;;204.96150470001157;None;206.45299910003087;206.76942349999445;207.90301479998743;207.91975440003444;210.9196991000208;None;9;0;0.966712900029961;210.9196991000208;None;;;;;;;;6;;;;;;212.46958169998834;None;None;None;[];212.46958169998834;None;['9'];212.46958169998834;None;[2.8808118000160903];;;S12068;2023_Mar_14_1555;VideoMask;2021.1.2;120.02971938919245;
0.0;f;040_y_f_s_a.jpg;sad;7.0;sad_94.3ns.avi;sad;7.0;congruent;130.0;160.0;155.27414203894395;s_s;;;;;0;13;13;13;;;;;;;215.469574799994;None;216.97764850000385;217.29437120002694;218.42761010001414;218.44442100002198;221.05270860000746;None;7;0;1.273698900011368;221.05270860000746;None;;;;;;;;5;;;;;;222.60254829999758;None;None;None;[];222.60254829999758;None;None;222.60254829999758;None;;;;S12068;2023_Mar_14_1555;VideoMask;2021.1.2;120.02971938919245;
0.0;f;030_o_f_s_a.jpg;sad;7.0;sad_68.1ns.avi;sad;7.0;congruent;130.0;160.0;158.9411396037211;s_s;;;;;0;14;14;14;;;;;;;225.63583400001517;None;227.21069520001765;227.53587969997898;228.6857235999778;228.70237720001023;236.08555269998033;None;7;0;0.576897699967958;236.08555269998033;None;;;;;;;;5;;;;;;237.6437605000101;None;None;None;[];237.6437605000101;None;None;237.6437605000101;None;;;;S12068;2023_Mar_14_1555;VideoMask;2021.1.2;120.02971938919245;
0.0;f;030_o_f_h_a.jpg;happy;9.0;sad_127.1.wmv;sad;7.0;incongruent;120.0;160.0;180.59976631384873;h_s;;;;;0;15;15;15;;;;;;;240.66865210002288;None;242.37685150001198;242.70201340003405;243.82696450001094;243.8435839000158;245.83509940002114;None;7;0;1.2671903999871574;245.83509940002114;None;;;;;;;;5;;;;;;247.38511810003547;None;None;None;[];247.38511810003547;None;None;247.38511810003547;None;;;;S12068;2023_Mar_14_1555;VideoMask;2021.1.2;120.02971938919245;
8.0;m;008_y_m_s_a.jpg;sad;7.0;happy_133.3.wmv;happy;9.0;incongruent;130.0;150.0;152.577966552593;s_h;;;;;0;16;16;16;;;;;;;250.41844879998825;None;251.91816370002925;252.2438542000018;253.3678933000192;253.3932228999911;255.36819690000266;None;9;0;0.6222334999474697;255.36819690000266;None;;;;;;;;5;;;;;;256.9181035999791;None;None;None;[];256.9181035999791;None;None;256.9181035999791;None;;;;S12068;2023_Mar_14_1555;VideoMask;2021.1.2;120.02971938919245;
3.0;m;033_o_m_h_a.jpg;happy;9.0;sad_128.1.wmv;sad;7.0;incongruent;120.0;160.0;171.0492454518585;h_s;;;;;0;17;17;17;;;;;;;259.9514109999873;None;261.60121049999725;261.9263824999798;263.0760034000268;263.0928711000015;265.05124479997903;None;7;0;1.2271467999671586;265.05124479997903;None;;;;;;;;5;;;;;;266.60118410002906;None;None;None;[];266.60118410002906;None;None;266.60118410002906;None;;;;S12068;2023_Mar_14_1555;VideoMask;2021.1.2;120.02971938919245;
1.0;f;021_o_f_h_a.jpg;happy;9.0;sad_116.1.wmv;sad;7.0;incongruent;120.0;160.0;184.06847610053055;h_s;;;;;0;18;18;18;;;;;;;269.62610340001993;None;271.39263780001784;271.7089796999935;272.8509837000165;272.867664600024;274.8426774999825;None;8;0;1.1717996000079438;274.8426774999825;None;;;;;;;;5;;;;;;276.39249910000945;None;None;None;[];276.39249910000945;None;None;276.39249910000945;None;;;;S12068;2023_Mar_14_1555;VideoMask;2021.1.2;120.02971938919245;
4.0;m;004_o_m_s_a.jpg;sad;7.0;happy_28.1ns.avi;happy;9.0;incongruent;130.0;150.0;157.40741103039684;s_h;;;;;0;19;19;19;;;;;;;279.4257683000178;None;281.00064719998045;281.3257266000146;282.47548269998515;282.4923527999781;286.84221069997875;None;8;0;0.8602850000024773;286.84221069997875;None;;;;;;;;5;;;;;;288.3921253000153;None;None;None;[];288.3921253000153;None;None;288.3921253000153;None;;;;S12068;2023_Mar_14_1555;VideoMask;2021.1.2;120.02971938919245;
8.0;f;028_y_f_s_a.jpg;sad;7.0;happy_122.3.wmv;happy;9.0;incongruent;130.0;150.0;171.8670540936116;s_h;;;;;0;20;20;20;;;;;;;291.42536019999534;None;293.09182909998344;293.4084975000005;294.5513967000297;294.5752679000143;296.54205039999215;None;9;0;0.5283873000298627;296.54205039999215;None;;;;;;;;5;;;;;;298.09183380001923;None;None;None;[];298.09183380001923;None;None;298.09183380001923;None;;;;S12068;2023_Mar_14_1555;VideoMask;2021.1.2;120.02971938919245;
8.0;m;008_y_m_s_a.jpg;sad;7.0;sad_6.5ns.avi;sad;7.0;congruent;130.0;160.0;170.39333839271438;s_s;;;;;0;21;21;21;;;;;;;301.11677880003117;None;302.7499620000017;303.06655590003356;304.23313429998234;304.2499868000159;309.20980230002897;None;7;0;0.5807163999998011;309.20980230002897;None;;;;;;;;5;;;;;;310.9830512999906;None;None;None;[];310.9830512999906;None;None;310.9830512999906;None;;;;S12068;2023_Mar_14_1555;VideoMask;2021.1.2;120.02971938919245;
8.0;f;028_y_f_h_a.jpg;happy;9.0;happy_23.1ns.avi;happy;9.0;congruent;120.0;150.0;225.70986890587952;h_h;;;;;0;22;22;22;;;;;;;314.0080714999931;None;316.11613330000546;316.4412797000259;317.57428459997755;317.5910523000057;322.14107100002;None;8;0;0.7372519000200555;322.14107100002;None;;;;;;;;5;;;;;;323.69099680002546;None;None;None;[];323.69099680002546;None;None;323.69099680002546;None;;;;S12068;2023_Mar_14_1555;VideoMask;2021.1.2;120.02971938919245;
8.0;m;008_y_m_h_a.jpg;happy;9.0;sad_111.1.wmv;sad;7.0;incongruent;120.0;160.0;152.63076835312847;h_s;;;;;0;23;23;23;;;;;;;326.71589120000135;None;328.2157451999956;328.5325191000011;329.66582170000765;329.6824684999883;331.6657302000094;None;7;0;0.5726072000106797;331.6657302000094;None;;;;;;;;5;;;;;;333.21565840003313;None;None;None;[];333.21565840003313;None;None;333.21565840003313;None;;;;S12068;2023_Mar_14_1555;VideoMask;2021.1.2;120.02971938919245;
0.0;f;040_y_f_s_a.jpg;sad;7.0;sad_67.2ns.avi;sad;7.0;congruent;130.0;160.0;220.9892697323079;s_s;;;;;0;24;24;24;;;;;;;336.2406085000257;None;338.33201589999953;338.65717590000713;339.80699740001;339.8236720000277;349.0151772000245;None;7;0;0.4232616000226699;349.0151772000245;None;;;;;;;;4;;;;;;350.56509899999946;None;None;None;[];350.56509899999946;None;['7'];350.56509899999946;None;[0.39333020005142316];;;S12068;2023_Mar_14_1555;VideoMask;2021.1.2;120.02971938919245;
8.0;m;008_y_m_s_a.jpg;sad;7.0;happy_29.1ns.avi;happy;9.0;incongruent;130.0;150.0;120.0316142834122;s_h;;;;;0;25;25;25;;;;;;;353.57372779998695;None;354.7981788000325;355.1149388999911;356.2993327000295;356.31599969998933;358.93991040001856;None;8;0;0.6827390000107698;358.93991040001856;None;;;;;;;;5;;;;;;360.489848600002;None;None;None;[];360.489848600002;None;None;360.489848600002;None;;;;S12068;2023_Mar_14_1555;VideoMask;2021.1.2;120.02971938919245;
6.0;m;016_y_m_s_a.jpg;sad;7.0;sad_8.3ns.avi;sad;7.0;congruent;130.0;160.0;152.85371098242734;s_s;;;;;0;26;26;26;;;;;;;363.5147197000333;None;365.0479652999784;365.37307359999977;366.50603290001163;366.52295950002735;374.256031500001;None;7;0;0.638364799960982;374.256031500001;None;;;;;;;;5;;;;;;375.80594920000294;None;None;None;[];375.80594920000294;None;None;375.80594920000294;None;;;;S12068;2023_Mar_14_1555;VideoMask;2021.1.2;120.02971938919245;
6.0;m;016_y_m_h_a.jpg;happy;9.0;sad_114.1.wmv;sad;7.0;incongruent;120.0;160.0;136.20550699298644;h_s;;;;;0;27;27;27;;;;;;;378.83905320003396;None;380.19735710002715;380.52361750003183;381.6474155000178;381.6641316000023;383.6474365000031;None;7;0;1.3510198000003584;383.6474365000031;None;;;;;;;;4;;;;;;385.1973164000083;None;None;None;[];385.1973164000083;None;['7'];385.1973164000083;None;[0.9369637999916449];;;S12068;2023_Mar_14_1555;VideoMask;2021.1.2;120.02971938919245;
7.0;m;027_o_m_s_a.jpg;sad;7.0;happy_117.3.wmv;happy;9.0;incongruent;130.0;150.0;215.61964028550614;s_h;;;;;0;28;28;28;;;;;;;388.1987887999858;None;390.22207790001994;390.54716180003015;391.6720030999859;391.6887864000164;393.6720740000019;None;9;0;1.6705598999978974;393.6720740000019;None;;;;;;;;5;;;;;;395.8219815000193;None;None;None;[];395.8219815000193;None;None;395.8219815000193;None;;;;S12068;2023_Mar_14_1555;VideoMask;2021.1.2;120.02971938919245;
6.0;m;016_y_m_h_a.jpg;happy;9.0;happy_9.2ns.avi;happy;9.0;congruent;120.0;150.0;130.52042428082717;h_h;;;;;0;29;29;29;;;;;;;398.8552224999876;None;400.1883632999961;400.5135873000254;401.6717523999978;401.688452100032;407.5632693999796;None;9;0;0.49125060002552345;407.5632693999796;None;;;;;;;;5;;;;;;409.11317580001196;None;None;None;[];409.11317580001196;None;None;409.11317580001196;None;;;;S12068;2023_Mar_14_1555;VideoMask;2021.1.2;120.02971938919245;
0.0;f;040_y_f_s_a.jpg;sad;7.0;happy_127.3.wmv;happy;9.0;incongruent;130.0;150.0;131.7195455720239;s_h;;;;;0;30;30;30;;;;;;;412.12978010001825;None;413.44625179999275;413.77149800001644;414.8963149000192;414.91301989997737;416.9629716000054;None;9;0;0.5871894000447355;416.9629716000054;None;;;;;;;;5;;;;;;418.5129006000352;None;None;None;[];418.5129006000352;None;None;418.5129006000352;None;;;;S12068;2023_Mar_14_1555;VideoMask;2021.1.2;120.02971938919245;
0.0;f;030_o_f_s_a.jpg;sad;7.0;happy_125.3.wmv;happy;9.0;incongruent;130.0;150.0;220.51454909128134;s_h;;;;;0;31;31;31;;;;;;;421.53784509998513;None;423.5959996000165;423.92113099998096;425.05426280002575;425.0709061999805;427.0459934999817;None;9;0;0.7364258999587037;427.0459934999817;None;;;;;;;;5;;;;;;428.5959129999974;None;None;None;[];428.5959129999974;None;None;428.5959129999974;None;;;;S12068;2023_Mar_14_1555;VideoMask;2021.1.2;120.02971938919245;
0.0;f;030_o_f_s_a.jpg;sad;7.0;sad_64.3ns.avi;sad;7.0;congruent;130.0;160.0;165.78667874766072;s_s;;;;;0;32;32;32;;;;;;;431.62914650002494;None;433.22911210003076;433.5457880999893;434.7040748000145;434.7207078000065;439.6788697000011;None;7;0;0.735535100044217;439.6788697000011;None;;;;;;;;4;;;;;;441.245494999981;None;None;None;[];441.245494999981;None;['7'];441.245494999981;None;[0.793093099957332];;;S12068;2023_Mar_14_1555;VideoMask;2021.1.2;120.02971938919245;
3.0;m;013_y_m_s_a.jpg;sad;7.0;sad_7.7ns.avi;sad;7.0;congruent;130.0;160.0;196.24182255763262;s_s;;;;;0;33;33;33;;;;;;;444.2538571000332;None;446.1202205999871;446.4366465000203;447.61179210001137;447.6286357000354;453.57008680002764;None;7;0;0.5801397999748588;453.57008680002764;None;;;;;;;;4;;;;;;455.1200042000273;None;None;None;[];455.1200042000273;None;['7'];455.1200042000273;None;[1.7584788000094704];;;S12068;2023_Mar_14_1555;VideoMask;2021.1.2;120.02971938919245;
3.0;m;013_y_m_h_a.jpg;happy;9.0;happy_9.1ns.avi;happy;9.0;congruent;120.0;150.0;165.1890303600433;h_h;;;;;0;34;34;34;;;;;;;458.12001010001404;None;459.73646739998367;460.06158039998263;461.2881587999873;461.3113844000036;464.41977969999425;None;9;0;0.8264937999774702;464.41977969999425;None;;;;;;;;5;;;;;;465.96979380003177;None;None;None;[];465.96979380003177;None;None;465.96979380003177;None;;;;S12068;2023_Mar_14_1555;VideoMask;2021.1.2;120.02971938919245;
4.0;m;004_o_m_h_a.jpg;happy;9.0;sad_95.1ns.avi;sad;7.0;incongruent;120.0;160.0;152.68270002069931;h_s;;;;;0;35;35;35;;;;;;;468.99461629998405;None;470.53624540002784;470.85294170002453;471.9778787000105;471.99453249998624;480.77750919997925;None;7;0;0.5168817999656312;480.77750919997925;None;;;;;;;;4;;;;;;482.3274875000352;None;None;None;[];482.3274875000352;None;"['7', '7']";482.3274875000352;None;"[0.7028726999997161, 1.254905499983579]";;;S12068;2023_Mar_14_1555;VideoMask;2021.1.2;120.02971938919245;
3.0;m;013_y_m_h_a.jpg;happy;9.0;sad_113.2.wmv;sad;7.0;incongruent;120.0;160.0;217.4973891947951;h_s;;;;;0;36;36;36;;;;;;;485.32783999998355;None;487.36891960003413;487.6945243999944;488.8191084000282;488.835664800019;490.81889759999467;None;8;0;1.0754240999813192;490.81889759999467;None;;;;;;;;5;;;;;;492.39391039998736;None;None;None;[];492.39391039998736;None;None;492.39391039998736;None;;;;S12068;2023_Mar_14_1555;VideoMask;2021.1.2;120.02971938919245;
4.0;m;004_o_m_h_a.jpg;happy;9.0;happy_25.1ns.avi;happy;9.0;congruent;120.0;150.0;216.63044503818386;h_h;;;;;0;37;37;37;;;;;;;495.4271303000278;None;497.4519030000083;497.7770392000093;498.90201660001185;498.91863359999843;502.5934923000168;None;9;0;0.5246640000259504;502.5934923000168;None;;;;;;;;5;;;;;;504.20179140003165;None;None;None;[];504.20179140003165;None;None;504.20179140003165;None;;;;S12068;2023_Mar_14_1555;VideoMask;2021.1.2;120.02971938919245;
4.0;m;004_o_m_s_a.jpg;sad;7.0;happy_131.2.wmv;happy;9.0;incongruent;130.0;150.0;181.38407540847405;s_h;;;;;0;38;38;38;;;;;;;507.2350934999995;None;508.9598718000343;509.285040399991;510.4181260000332;510.4348059000331;512.4099640999921;None;9;0;0.5162460999563336;512.4099640999921;None;;;;;;;;5;;;;;;513.9597649999778;None;None;None;[];513.9597649999778;None;None;513.9597649999778;None;;;;S12068;2023_Mar_14_1555;VideoMask;2021.1.2;120.02971938919245;
0.0;f;040_y_f_h_a.jpg;happy;9.0;happy_24.3ns.avi;happy;9.0;congruent;120.0;150.0;213.25460698950434;h_h;;;;;0;39;39;39;;;;;;;516.9930435999995;None;518.9761539000319;519.2928900999832;520.4763487000018;520.4929280999932;522.3512350000092;None;9;0;0.48711940000066534;522.3512350000092;None;;;;;;;;5;;;;;;523.9011517000035;None;None;None;[];523.9011517000035;None;None;523.9011517000035;None;;;;S12068;2023_Mar_14_1555;VideoMask;2021.1.2;120.02971938919245;
2.0;f;012_o_f_s_a.jpg;sad;7.0;happy_139.1.wmv;happy;9.0;incongruent;130.0;150.0;162.31500468041804;s_h;;;;;0;40;40;40;;;;;;;526.9260712999967;None;528.4925786000094;528.8176518999971;529.9519983000355;529.975962400029;531.9425645000301;None;9;0;0.5357456000056118;531.9425645000301;None;;;;;;;;6;;;;;;533.4841862000176;None;None;None;[];533.4841862000176;None;['9'];533.4841862000176;None;[0.38620770000852644];;;S12068;2023_Mar_14_1555;VideoMask;2021.1.2;120.02971938919245;
0.0;f;030_o_f_h_a.jpg;happy;9.0;happy_24.1ns.avi;happy;9.0;congruent;120.0;150.0;168.36256624020774;h_h;;;;;0;41;41;41;;;;;;;536.4844757000101;None;538.1255830000155;538.4507284000283;539.601760599995;539.6170952999964;542.9005565000116;None;9;0;0.7458238000399433;542.9005565000116;None;;;;;;;;5;;;;;;544.4505044000107;None;None;None;[];544.4505044000107;None;None;544.4505044000107;None;;;;S12068;2023_Mar_14_1555;VideoMask;2021.1.2;120.02971938919245;
2.0;f;012_o_f_h_a.jpg;happy;9.0;sad_113.1.wmv;sad;7.0;incongruent;120.0;160.0;177.44551734737394;h_s;;;;;0;42;42;42;;;;;;;547.475425200013;None;549.1669128999929;549.4835021999897;550.6168673000066;550.633682899992;552.6169251999818;None;7;0;0.7413112999638543;552.6169251999818;None;;;;;;;;5;;;;;;554.1669127999921;None;None;None;[];554.1669127999921;None;None;554.1669127999921;None;;;;S12068;2023_Mar_14_1555;VideoMask;2021.1.2;120.02971938919245;
3.0;m;033_o_m_s_a.jpg;sad;7.0;sad_64.5ns.avi;sad;7.0;congruent;130.0;160.0;130.55717223801247;s_s;;;;;0;43;43;43;;;;;;;557.2000996000133;None;558.524939200026;558.841613000026;560.0083006999921;560.0250289000105;566.5665135000017;None;7;0;0.5838836000184529;566.5665135000017;None;;;;;;;;4;;;;;;568.1164716000203;None;None;None;[];568.1164716000203;None;['7'];568.1164716000203;None;[0.4259347000042908];;;S12068;2023_Mar_14_1555;VideoMask;2021.1.2;120.02971938919245;
7.0;m;027_o_m_h_a.jpg;happy;9.0;sad_117.1.wmv;sad;7.0;incongruent;120.0;160.0;181.28665202824095;h_s;;;;;0;44;44;44;;;;;;;571.1166188000352;None;572.8578567000222;573.1828946000314;574.3328831000254;574.3495797999785;576.3078001000104;None;7;0;0.6826557000167668;576.3078001000104;None;;;;;;;;5;;;;;;577.8577331000124;None;None;None;[];577.8577331000124;None;None;577.8577331000124;None;;;;S12068;2023_Mar_14_1555;VideoMask;2021.1.2;120.02971938919245;
3.0;m;033_o_m_s_a.jpg;sad;7.0;happy_126.3.wmv;happy;9.0;incongruent;130.0;150.0;198.85252030535366;s_h;;;;;0;45;45;45;;;;;;;580.8909867000184;None;582.7574466000078;583.0826022999827;584.2253619999974;584.2491674000048;586.2075067000114;None;9;0;1.0950171000440605;586.2075067000114;None;;;;;;;;5;;;;;;587.7574138999917;None;None;None;[];587.7574138999917;None;None;587.7574138999917;None;;;;S12068;2023_Mar_14_1555;VideoMask;2021.1.2;120.02971938919245;
3.0;m;033_o_m_h_a.jpg;happy;9.0;sad_136.1.wmv;sad;7.0;incongruent;120.0;160.0;176.97002883463455;h_s;;;;;0;46;46;46;;;;;;;590.7906816999894;None;592.4821628000354;592.7984156000311;593.9323148999829;593.948884100013;595.932174400019;None;7;0;1.1700571000110358;595.932174400019;None;;;;;;;;5;;;;;;597.4820993000176;None;None;None;[];597.4820993000176;None;None;597.4820993000176;None;;;;S12068;2023_Mar_14_1555;VideoMask;2021.1.2;120.02971938919245;
9.0;f;019_m_f_h_a.jpg;happy;9.0;happy_10.1ns.avi;happy;9.0;congruent;120.0;150.0;157.2463435658512;h_h;;;;;0;47;47;47;;;;;;;600.5069957000087;None;602.0902146000299;602.4069797000266;603.5402509000269;603.5569116999977;610.990102300013;None;9;0;0.42421970004215837;610.990102300013;None;;;;;;;;5;;;;;;612.5400051000179;None;None;None;[];612.5400051000179;None;None;612.5400051000179;None;;;;S12068;2023_Mar_14_1555;VideoMask;2021.1.2;120.02971938919245;
2.0;f;012_o_f_h_a.jpg;happy;9.0;happy_2.2ns.avi;happy;9.0;congruent;120.0;150.0;206.34800317295262;h_h;;;;;0;48;48;48;;;;;;;615.5648636000114;None;617.581528700015;617.8980289000319;619.0731865999987;619.0980385000003;631.2393153000157;None;9;0;0.5350194000056945;631.2393153000157;None;;;;;;;;5;;;;;;632.7893097000197;None;None;None;[];632.7893097000197;None;None;632.7893097000197;None;;;;S12068;2023_Mar_14_1555;VideoMask;2021.1.2;120.02971938919245;
3.0;m;033_o_m_h_a.jpg;happy;9.0;happy_24.2ns.avi;happy;9.0;congruent;120.0;150.0;167.9423847659953;h_h;;;;;0;49;49;49;;;;;;;635.8225386000122;None;637.4473400000134;637.7724206999992;638.9141028000158;638.9307634999859;642.622375099978;None;9;0;0.48813489999156445;642.622375099978;None;;;;;;;;5;;;;;;644.1722669000155;None;None;None;[];644.1722669000155;None;None;644.1722669000155;None;;;;S12068;2023_Mar_14_1555;VideoMask;2021.1.2;120.02971938919245;
1.0;f;021_o_f_s_a.jpg;sad;7.0;happy_61.2ns.avi;happy;9.0;incongruent;130.0;150.0;210.94664004826666;s_h;;;;;0;50;50;50;;;;;;;647.205469699984;None;649.1886886000284;649.5053670000052;650.6468767999904;650.6637324999901;655.1636074000271;None;9;0;1.0027230000123382;655.1636074000271;None;;;;;;;;5;;;;;;656.7135039999848;None;None;None;[];656.7135039999848;None;None;656.7135039999848;None;;;;S12068;2023_Mar_14_1555;VideoMask;2021.1.2;120.02971938919245;
4.0;m;004_o_m_s_a.jpg;sad;7.0;sad_2.4ns.avi;sad;7.0;congruent;130.0;160.0;153.02079367163634;s_s;;;;;0;51;51;51;;;;;;;659.7467838000157;None;661.2466800999828;661.5717632999877;662.7566895000055;662.7971139000147;670.663067299989;None;7;0;0.4953197999857366;670.663067299989;None;;;;;;;;5;;;;;;672.2130018000025;None;None;None;[];672.2130018000025;None;None;672.2130018000025;None;;;;S12068;2023_Mar_14_1555;VideoMask;2021.1.2;120.02971938919245;
8.0;m;008_y_m_h_a.jpg;happy;9.0;happy_1.2ns.avi;happy;9.0;congruent;120.0;150.0;210.98946429383824;h_h;;;;;0;52;52;52;;;;;;;675.2379628000199;None;677.2796493999776;677.6045417999849;678.7544529000297;678.7711252000299;691.5207676999853;None;9;0;0.6536149999592453;691.5207676999853;None;;;;;;;;5;;;;;;693.0789270999958;None;None;None;[];693.0789270999958;None;None;693.0789270999958;None;;;;S12068;2023_Mar_14_1555;VideoMask;2021.1.2;120.02971938919245;
2.0;f;012_o_f_s_a.jpg;sad;7.0;happy_52.2ns.avi;happy;9.0;incongruent;130.0;150.0;172.57202848318138;s_h;;;;;0;53;53;53;;;;;;;696.112226199999;None;697.7787393000326;698.0954681999865;699.2388841999928;699.2704511000193;702.7787361000082;None;9;0;1.035644699994009;702.7787361000082;None;;;;;;;;5;;;;;;704.3286215999979;None;None;None;[];704.3286215999979;None;None;704.3286215999979;None;;;;S12068;2023_Mar_14_1555;VideoMask;2021.1.2;120.02971938919245;
9.0;f;019_m_f_s_a.jpg;sad;7.0;happy_61.1ns.avi;happy;9.0;incongruent;130.0;150.0;181.3003220572762;s_h;;;;;0;54;54;54;;;;;;;707.3619104999816;None;709.1285126000294;709.4450531000039;710.5867699999944;710.603380399989;717.9699361000094;None;8;0;0.3884898999822326;717.9699361000094;None;;;;;;;;5;;;;;;719.5197582999826;None;None;None;[];719.5197582999826;None;None;719.5197582999826;None;;;;S12068;2023_Mar_14_1555;VideoMask;2021.1.2;120.02971938919245;
0.0;f;030_o_f_h_a.jpg;happy;9.0;sad_133.1.wmv;sad;7.0;incongruent;120.0;160.0;198.86251500867985;h_s;;;;;0;55;55;55;;;;;;;722.5446918000234;None;724.4279373000027;724.7446434000158;725.8696677000262;725.8863173000282;727.8778634000337;None;7;0;0.928403600002639;727.8778634000337;None;;;;;;;;4;;;;;;729.4277785000158;None;None;None;[];729.4277785000158;None;['7'];729.4277785000158;None;[1.5945736999856308];;;S12068;2023_Mar_14_1555;VideoMask;2021.1.2;120.02971938919245;
0.0;f;040_y_f_h_a.jpg;happy;9.0;sad_128.2.wmv;sad;7.0;incongruent;120.0;160.0;206.10005857915363;h_s;;;;;0;56;56;56;;;;;;;732.4281585999997;None;734.3608887000009;734.677288100007;735.8193101999932;735.8357913999935;737.8109175999998;None;7;0;0.4674313999712467;737.8109175999998;None;;;;;;;;5;;;;;;739.3694856999791;None;None;None;[];739.3694856999791;None;None;739.3694856999791;None;;;;S12068;2023_Mar_14_1555;VideoMask;2021.1.2;120.02971938919245;
1.0;f;021_o_f_s_a.jpg;sad;7.0;sad_9.5ns.avi;sad;7.0;congruent;130.0;160.0;206.16642757875042;s_s;;;;;0;57;57;57;;;;;;;742.394112000009;None;744.3271767999977;744.6436001000111;745.785493000003;745.8023263000068;751.5021336000063;None;7;0;0.5200331000378355;751.5021336000063;None;;;;;;;;4;;;;;;753.0520451000193;None;None;None;[];753.0520451000193;None;['7'];753.0520451000193;None;[0.38622280000709];;;S12068;2023_Mar_14_1555;VideoMask;2021.1.2;120.02971938919245;
1.0;f;021_o_f_h_a.jpg;happy;9.0;happy_12.1ns.avi;happy;9.0;congruent;120.0;150.0;132.59080005900228;h_h;;;;;0;58;58;58;;;;;;;756.0602184000309;None;757.4269250999787;757.7519708999898;758.9351917000022;758.951898600033;766.4939044000348;None;8;0;0.6487443000078201;766.4939044000348;None;;;;;;;;5;;;;;;768.2599282999872;None;None;None;[];768.2599282999872;None;None;768.2599282999872;None;;;;S12068;2023_Mar_14_1555;VideoMask;2021.1.2;120.02971938919245;
3.0;m;013_y_m_s_a.jpg;sad;7.0;happy_56.2ns.avi;happy;9.0;incongruent;130.0;150.0;163.39234110935848;s_h;;;;;0;59;59;59;;;;;;;771.2932018000283;None;772.9013792999904;773.2265109000145;774.4096893999958;774.4264280999778;779.3762048999779;None;9;0;0.49416599998949096;779.3762048999779;None;;;;;;;;5;;;;;;780.9260924999835;None;None;None;[];780.9260924999835;None;None;780.9260924999835;None;;;;S12068;2023_Mar_14_1555;VideoMask;2021.1.2;120.02971938919245;
;;;;;;;;;;;;;;;;;;;;;;;;;;;;;;;;;;;;;;;;;;;;;;;;;;;;;;;;;;;;;;;;783.9426059999969;None;;;;;;
