primePerson;primeGender;prime;primeEmotion;corrAnsPrime;target;targetEmotion;corrAnsTar;Cond;ID_Primer;ID_Target;JitterTime;Condition;example.thisRepN;example.thisTrialN;example.thisN;example.thisIndex;study.thisRepN;study.thisTrialN;study.thisN;study.thisIndex;MR_trigger_time;MR_trigger_number;text_intro.started;text_intro.stopped;text_probe.started;text_probe.stopped;polygon_ISI.started;polygon_ISI.stopped;polygon.started;polygon.stopped;primerImage.started;primerImage.stopped;response.started;response.stopped;key_resp.keys;key_resp.corr;key_resp.started;key_resp.stopped;slider_Text.started;slider_Text.stopped;slider_ex.response;slider_ex.rt;slider_ex.history;slider_ex.started;slider_ex.stopped;Rating;slider_resp_response.keys;slider_resp_response.rt;slider_resp_response.started;slider_resp_response.stopped;key_resp.rt;text_start.started;text_start.stopped;text_slider.started;text_slider.stopped;slider_stud.response;slider_stud.rt;slider_stud.history;slider_stud.started;slider_stud.stopped;slider_resp_study.keys;slider_resp_study.started;slider_resp_study.stopped;slider_resp_study.rt;text_ende.started;text_ende.stopped;participant;date;expName;psychopyVersion;frameRate;
1111;m;1111_m_m_h_a.jpg;happy;9;example_30.4ns.avi;neutral;7;incongruent;120.0;170.0;189.5874364012288;;0;0;0;0;;;;;19.714408300002106;1;19.80027730000438;21.80039960000431;21.80039960000431;None;23.817685100017115;None;25.800141200015787;26.116887900047004;27.27513560000807;27.29184710001573;31.59188180003548;None;None;0;31.59188180003548;None;33.14175830001477;None;None;None;[];33.14175830001477;None;8;"['9', '9', '9']";"[1.1128298999974504, 1.7047178999637254, 2.953022299974691]";33.14175830001477;None;;;;;;;;;;;;;;;;;S11455_2;2022_May_16_1157;VideoMask;2021.1.2;121.12168365599925;
1113;f;1113_y_f_s_a.jpg;sad;7;example_30.3ns.avi;neutral;7;incongruent;130.0;170.0;229.02432995836998;;0;1;1;1;;;;;;;;;;;36.14162790001137;None;38.266428000002634;38.58314910001354;39.724856900051236;39.74155600002268;41.71661800000584;None;8;0;41.71661800000584;None;43.266325400036294;None;None;None;[];43.266325400036294;None;5;None;;43.266325400036294;None;0.6179448000038974;;;;;;;;;;;;;;;;S11455_2;2022_May_16_1157;VideoMask;2021.1.2;121.12168365599925;
9.0;f;019_m_f_h_a.jpg;happy;9.0;sad_115.1.wmv;sad;7.0;incongruent;120.0;160.0;128.09063432376465;h_s;;;;;0;0;0;0;;;;;;;47.299635600007605;None;48.5744560000021;48.891164700035006;50.024373100022785;50.04119440005161;52.02459960000124;None;7;0;52.02459960000124;None;;;;;;;;5;;;;;0.8539249000023119;46.291338700044435;None;53.72445640002843;None;None;None;[];53.72445640002843;None;None;53.72445640002843;None;;;;S11455_2;2022_May_16_1157;VideoMask;2021.1.2;121.12168365599925;
3.0;m;033_o_m_s_a.jpg;sad;7.0;sad_94.2ns.avi;sad;7.0;congruent;130.0;160.0;182.29120173647655;s_s;;;;;0;1;1;1;;;;;;;56.741029700031504;None;58.457463500031736;58.77413960004924;59.90752990002511;59.924481499998365;62.59923350001918;None;None;0;62.59923350001918;None;;;;;;;;5;;;;;;;;64.14913070003968;None;None;None;[];64.14913070003968;None;None;64.14913070003968;None;;;;S11455_2;2022_May_16_1157;VideoMask;2021.1.2;121.12168365599925;
8.0;m;008_y_m_h_a.jpg;happy;9.0;happy_26.1ns.avi;happy;9.0;congruent;120.0;150.0;155.9437854594882;h_h;;;;;0;2;2;2;;;;;;;67.16553300002124;None;68.64875390002271;68.96553490002407;70.15730910003185;70.17385280004237;72.0995240000193;None;9;0;72.0995240000193;None;;;;;;;;7;;;;;0.8991019000532106;;;73.71547430002829;None;None;None;[];73.71547430002829;None;"['9', '9', '9', '7']";73.71547430002829;None;"[1.0351287000230514, 1.5151185999857262, 2.162989100033883, 2.9471086999983527]";;;S11455_2;2022_May_16_1157;VideoMask;2021.1.2;121.12168365599925;
0.0;f;040_y_f_h_a.jpg;happy;9.0;sad_138.1.wmv;sad;7.0;incongruent;120.0;160.0;133.99071306426532;h_s;;;;;0;3;3;3;;;;;;;76.71535440004664;None;78.04021120001562;78.35687540000072;79.49036740005249;79.506964900007;81.49014450004324;None;8;0;81.49014450004324;None;;;;;;;;5;;;;;0.6844650999992155;;;83.04016670002602;None;None;None;[];83.04016670002602;None;None;83.04016670002602;None;;;;S11455_2;2022_May_16_1157;VideoMask;2021.1.2;121.12168365599925;
8.0;f;028_y_f_s_a.jpg;sad;7.0;sad_64.2ns.avi;sad;7.0;congruent;130.0;160.0;229.88540597086478;s_s;;;;;0;4;4;4;;;;;;;86.07341170002474;None;88.22310830000788;88.54001870000502;89.78229620005004;89.8065964000416;100.6729891000432;None;7;0;100.6729891000432;None;;;;;;;;4;;;;;0.493591699982062;;;102.2229393000016;None;None;None;[];102.2229393000016;None;['7'];102.2229393000016;None;[2.0557904999586754];;;S11455_2;2022_May_16_1157;VideoMask;2021.1.2;121.12168365599925;
7.0;m;027_o_m_s_a.jpg;sad;7.0;sad_10.4ns.avi;sad;7.0;congruent;130.0;160.0;185.20129417468752;s_s;;;;;0;5;5;5;;;;;;;105.23972860001959;None;106.98947369999951;107.30601540004136;108.48939830000745;108.50602740002796;111.60610220005037;None;7;0;111.60610220005037;None;;;;;;;;5;;;;;1.1764691999997012;;;113.1559297000058;None;None;None;[];113.1559297000058;None;None;113.1559297000058;None;;;;S11455_2;2022_May_16_1157;VideoMask;2021.1.2;121.12168365599925;
2.0;f;012_o_f_s_a.jpg;sad;7.0;sad_7.5ns.avi;sad;7.0;congruent;130.0;160.0;220.27842655424388;s_s;;;;;0;6;6;6;;;;;;;116.18085810000775;None;118.2055296000326;118.52234480000334;119.7230472000083;119.74732160003623;122.44754100003047;None;7;0;122.44754100003047;None;;;;;;;;5;;;;;1.206986400007736;;;124.00552520004567;None;None;None;[];124.00552520004567;None;None;124.00552520004567;None;;;;S11455_2;2022_May_16_1157;VideoMask;2021.1.2;121.12168365599925;
2.0;f;012_o_f_h_a.jpg;happy;9.0;happy_27.1ns.avi;happy;9.0;congruent;120.0;150.0;146.44967055810616;h_h;;;;;0;7;7;7;;;;;;;127.03885420004372;None;128.45530050003435;128.7720401000115;129.96444810001412;129.99735000001965;132.39709670003504;None;9;0;132.39709670003504;None;;;;;;;;8;;;;;0.3134114000131376;;;133.94694900000468;None;None;None;[];133.94694900000468;None;"['9', '9', '9']";133.94694900000468;None;"[0.26784799998858944, 0.5878639000002295, 0.8916501000057906]";;;S11455_2;2022_May_16_1157;VideoMask;2021.1.2;121.12168365599925;
8.0;f;028_y_f_h_a.jpg;happy;9.0;sad_119.1.wmv;sad;7.0;incongruent;120.0;160.0;148.71526953572538;h_s;;;;;0;8;8;8;;;;;;;136.9469906000304;None;138.3883066000417;138.70504980004625;139.83881700003985;139.86340920004295;141.92174220003653;None;7;0;141.92174220003653;None;;;;;;;;5;;;;;0.5569427999434993;;;143.47163550002733;None;None;None;[];143.47163550002733;None;None;143.47163550002733;None;;;;S11455_2;2022_May_16_1157;VideoMask;2021.1.2;121.12168365599925;
6.0;m;016_y_m_s_a.jpg;sad;7.0;happy_60.4ns.avi;happy;9.0;incongruent;130.0;150.0;126.02367393611817;s_h;;;;;0;9;9;9;;;;;;;146.49648620001972;None;147.76301540003624;148.07972930005053;149.25479970005108;149.27148460003082;155.00472110003466;None;8;0;155.00472110003466;None;;;;;;;;7;;;;;0.5058337000082247;;;156.5545253000455;None;None;None;[];156.5545253000455;None;"['9', '9']";156.5545253000455;None;"[0.20415210002101958, 0.5561260000104085]";;;S11455_2;2022_May_16_1157;VideoMask;2021.1.2;121.12168365599925;
9.0;f;019_m_f_s_a.jpg;sad;7.0;sad_8.4ns.avi;sad;7.0;congruent;130.0;160.0;171.6633093155257;s_s;;;;;0;10;10;10;;;;;;;159.55458330002148;None;161.22092030005297;161.53769560001092;162.71312080003554;162.73769090004498;170.8293304000399;None;7;0;170.8293304000399;None;;;;;;;;3;;;;;0.36952119995839894;;;172.4124800999998;None;None;None;[];172.4124800999998;None;"['7', '7']";172.4124800999998;None;"[15.804064699972514, 2.2739829000202008]";;;S11455_2;2022_May_16_1157;VideoMask;2021.1.2;121.12168365599925;
4.0;m;004_o_m_h_a.jpg;happy;9.0;happy_1.1ns.avi;happy;9.0;congruent;120.0;150.0;203.50057144619865;h_h;;;;;0;11;11;11;;;;;;;175.39606520003872;None;177.3620818000054;177.67892130004475;178.86225649999687;178.8788747000508;193.29533980000997;None;9;0;193.29533980000997;None;;;;;;;;6;;;;;0.4071735999896191;;;194.84510350000346;None;None;None;[];194.84510350000346;None;['9'];194.84510350000346;None;[0.2573694999446161];;;S11455_2;2022_May_16_1157;VideoMask;2021.1.2;121.12168365599925;
7.0;m;027_o_m_h_a.jpg;happy;9.0;happy_20.1ns.avi;happy;9.0;congruent;120.0;150.0;152.91127178874285;h_h;;;;;0;12;12;12;;;;;;;197.8534665000043;None;199.36995570000727;199.68646890000673;200.80367190000834;200.82051540003158;203.83645050000632;None;9;0;203.83645050000632;None;;;;;;;;6;;;;;0.434170099964831;;;205.386434700049;None;None;None;[];205.386434700049;None;['9'];205.386434700049;None;[0.34829230001196265];;;S11455_2;2022_May_16_1157;VideoMask;2021.1.2;121.12168365599925;
0.0;f;040_y_f_s_a.jpg;sad;7.0;sad_94.3ns.avi;sad;7.0;congruent;130.0;160.0;155.27414203894395;s_s;;;;;0;13;13;13;;;;;;;208.38645370001905;None;209.86945800000103;210.18635610002093;211.36107700003777;211.37789160001557;213.9446098000044;None;8;0;213.9446098000044;None;;;;;;;;5;;;;;0.4060258000390604;;;215.50274980004178;None;None;None;[];215.50274980004178;None;None;215.50274980004178;None;;;;S11455_2;2022_May_16_1157;VideoMask;2021.1.2;121.12168365599925;
0.0;f;030_o_f_s_a.jpg;sad;7.0;sad_68.1ns.avi;sad;7.0;congruent;130.0;160.0;158.9411396037211;s_s;;;;;0;14;14;14;;;;;;;218.5360961999977;None;220.08586200000718;220.4025414000498;221.602464399999;221.61920509999618;228.96080739999888;None;None;0;228.96080739999888;None;;;;;;;;5;;;;;;;;230.50212590000592;None;None;None;[];230.50212590000592;None;None;230.50212590000592;None;;;;S11455_2;2022_May_16_1157;VideoMask;2021.1.2;121.12168365599925;
0.0;f;030_o_f_h_a.jpg;happy;9.0;sad_127.1.wmv;sad;7.0;incongruent;120.0;160.0;180.59976631384873;h_s;;;;;0;15;15;15;;;;;;;233.53546199999982;None;235.25205460004508;235.568808800017;236.69381980004255;236.71039970003767;238.70204420003574;None;None;0;238.70204420003574;None;;;;;;;;5;;;;;;;;240.74369910004316;None;None;None;[];240.74369910004316;None;"['7', '9']";240.74369910004316;None;"[0.13492249994305894, 1.1348088999511674]";;;S11455_2;2022_May_16_1157;VideoMask;2021.1.2;121.12168365599925;
8.0;m;008_y_m_s_a.jpg;sad;7.0;happy_133.3.wmv;happy;9.0;incongruent;130.0;150.0;152.577966552593;s_h;;;;;0;16;16;16;;;;;;;243.7435559000005;None;245.23505460005254;245.55176990001928;246.6767714000307;246.69347150000976;248.685017300013;None;9;0;248.685017300013;None;;;;;;;;6;;;;;0.6339178999769501;;;250.2350278000231;None;None;None;[];250.2350278000231;None;['9'];250.2350278000231;None;[1.0839732000022195];;;S11455_2;2022_May_16_1157;VideoMask;2021.1.2;121.12168365599925;
3.0;m;033_o_m_h_a.jpg;happy;9.0;sad_128.1.wmv;sad;7.0;incongruent;120.0;160.0;171.0492454518585;h_s;;;;;0;17;17;17;;;;;;;253.23509230004856;None;254.87632500001928;255.19312930002343;256.34356310003204;256.368050100049;258.3264347000513;None;8;0;258.3264347000513;None;;;;;;;;5;;;;;0.5442124999826774;;;259.9014071000274;None;None;None;[];259.9014071000274;None;None;259.9014071000274;None;;;;S11455_2;2022_May_16_1157;VideoMask;2021.1.2;121.12168365599925;
1.0;f;021_o_f_h_a.jpg;happy;9.0;sad_116.1.wmv;sad;7.0;incongruent;120.0;160.0;184.06847610053055;h_s;;;;;0;18;18;18;;;;;;;262.9263192000217;None;264.6762519000331;264.99274390004575;266.1342854000395;266.15125360002276;268.142916300043;None;7;0;268.142916300043;None;;;;;;;;4;;;;;0.47210870002163574;;;269.6927723000408;None;None;None;[];269.6927723000408;None;['7'];269.6927723000408;None;[0.11373169999569654];;;S11455_2;2022_May_16_1157;VideoMask;2021.1.2;121.12168365599925;
4.0;m;004_o_m_s_a.jpg;sad;7.0;happy_28.1ns.avi;happy;9.0;incongruent;130.0;150.0;157.40741103039684;s_h;;;;;0;19;19;19;;;;;;;272.69285829999717;None;274.2091274000122;274.52589400002034;275.6758837000234;275.6924138000468;280.050867700018;None;9;0;280.050867700018;None;;;;;;;;8;;;;;0.3238837000099011;;;281.66742579999845;None;None;None;[];281.66742579999845;None;"['9', '9', '9', '9', '7']";281.66742579999845;None;"[0.011432999977841973, 0.2671388000017032, 0.483054899959825, 0.7150692999712192, 2.387208300002385]";;;S11455_2;2022_May_16_1157;VideoMask;2021.1.2;121.12168365599925;
8.0;f;028_y_f_s_a.jpg;sad;7.0;happy_122.3.wmv;happy;9.0;incongruent;130.0;150.0;171.8670540936116;s_h;;;;;0;20;20;20;;;;;;;284.675795200048;None;286.3338165000314;286.6505003000493;287.7842761000502;287.80886370001826;289.78370030003134;None;9;0;289.78370030003134;None;;;;;;;;6;;;;;0.32698790001450107;;;291.33374230004847;None;None;None;[];291.33374230004847;None;"['9', '9']";291.33374230004847;None;"[0.18486569996457547, 0.6809544999850914]";;;S11455_2;2022_May_16_1157;VideoMask;2021.1.2;121.12168365599925;
8.0;m;008_y_m_s_a.jpg;sad;7.0;sad_6.5ns.avi;sad;7.0;congruent;130.0;160.0;170.39333839271438;s_s;;;;;0;21;21;21;;;;;;;294.34248030005256;None;295.9751256000018;296.29188790003536;297.4672549000243;297.483673300012;302.42503570002737;None;7;0;302.42503570002737;None;;;;;;;;5;;;;;0.46969320002244785;;;303.9748585000052;None;None;None;[];303.9748585000052;None;None;303.9748585000052;None;;;;S11455_2;2022_May_16_1157;VideoMask;2021.1.2;121.12168365599925;
8.0;f;028_y_f_h_a.jpg;happy;9.0;happy_23.1ns.avi;happy;9.0;congruent;120.0;150.0;225.70986890587952;h_h;;;;;0;22;22;22;;;;;;;307.0083127000253;None;309.09143580001546;309.40814740001224;310.54189930000575;310.5664140000008;315.13303310004994;None;9;0;315.13303310004994;None;;;;;;;;8;;;;;0.7214820999652147;;;316.73304790002294;None;None;None;[];316.73304790002294;None;"['9', '9', '9', '9']";316.73304790002294;None;"[0.03346020000753924, 0.3138090000138618, 0.6335559000144713, 1.5696202000253834]";;;S11455_2;2022_May_16_1157;VideoMask;2021.1.2;121.12168365599925;
8.0;m;008_y_m_h_a.jpg;happy;9.0;sad_111.1.wmv;sad;7.0;incongruent;120.0;160.0;152.63076835312847;h_s;;;;;0;23;23;23;;;;;;;319.7328716000193;None;321.2077283000108;321.5244030000176;322.65772100002505;322.67442570003914;324.6577703000512;None;7;0;324.6577703000512;None;;;;;;;;5;;;;;0.3969440999790095;;;326.20773900003405;None;None;None;[];326.20773900003405;None;None;326.20773900003405;None;;;;S11455_2;2022_May_16_1157;VideoMask;2021.1.2;121.12168365599925;
0.0;f;040_y_f_s_a.jpg;sad;7.0;sad_67.2ns.avi;sad;7.0;congruent;130.0;160.0;220.9892697323079;s_s;;;;;0;24;24;24;;;;;;;329.22421260003466;None;331.2825183000532;331.5991124000284;332.7991560000228;332.8156949999975;341.9572323000175;None;7;0;341.9572323000175;None;;;;;;;;4;;;;;0.27335800003493205;;;343.62363670003833;None;None;None;[];343.62363670003833;None;['7'];343.62363670003833;None;[1.6870989000308327];;;S11455_2;2022_May_16_1157;VideoMask;2021.1.2;121.12168365599925;
8.0;m;008_y_m_s_a.jpg;sad;7.0;happy_29.1ns.avi;happy;9.0;incongruent;130.0;150.0;120.0316142834122;s_h;;;;;0;25;25;25;;;;;;;346.62383769999724;None;347.82354720000876;348.14008540002396;349.2986243000487;349.3152575000422;351.9657298999955;None;9;0;351.9657298999955;None;;;;;;;;7;;;;;0.5370364000555128;;;353.65686310001183;None;None;None;[];353.65686310001183;None;"['9', '9', '9']";353.65686310001183;None;"[0.3177286999998614, 0.6938511999906041, 1.8858194999629632]";;;S11455_2;2022_May_16_1157;VideoMask;2021.1.2;121.12168365599925;
6.0;m;016_y_m_s_a.jpg;sad;7.0;sad_8.3ns.avi;sad;7.0;congruent;130.0;160.0;152.85371098242734;s_s;;;;;0;26;26;26;;;;;;;356.66510240000207;None;358.1649802000029;358.4816328000161;359.65647570003057;359.67318710003747;367.37304960004985;None;7;0;367.37304960004985;None;;;;;;;;3;;;;;0.6896377999801189;;;368.92309140000725;None;None;None;[];368.92309140000725;None;"['7', '7']";368.92309140000725;None;"[0.26775529998121783, 0.5637983999913558]";;;S11455_2;2022_May_16_1157;VideoMask;2021.1.2;121.12168365599925;
6.0;m;016_y_m_h_a.jpg;happy;9.0;sad_114.1.wmv;sad;7.0;incongruent;120.0;160.0;136.20550699298644;h_s;;;;;0;27;27;27;;;;;;;371.92304280004464;None;373.2728083000402;373.5895056000445;374.73964570002863;374.75629680004204;376.72280830005184;None;7;0;376.72280830005184;None;;;;;;;;5;;;;;0.555889000010211;;;378.2977992000524;None;None;None;[];378.2977992000524;None;None;378.2977992000524;None;;;;S11455_2;2022_May_16_1157;VideoMask;2021.1.2;121.12168365599925;
7.0;m;027_o_m_s_a.jpg;sad;7.0;happy_117.3.wmv;happy;9.0;incongruent;130.0;150.0;215.61964028550614;s_h;;;;;0;28;28;28;;;;;;;381.3142174000386;None;383.31412390002515;383.6308221000363;384.7642942999955;384.78089230001206;386.7641782000428;None;9;0;386.7641782000428;None;;;;;;;;7;;;;;0.5146540999994613;;;388.31412799999816;None;None;None;[];388.31412799999816;None;"['9', '9']";388.31412799999816;None;"[0.3485312999691814, 0.6924695000052452]";;;S11455_2;2022_May_16_1157;VideoMask;2021.1.2;121.12168365599925;
6.0;m;016_y_m_h_a.jpg;happy;9.0;happy_9.2ns.avi;happy;9.0;congruent;120.0;150.0;130.52042428082717;h_h;;;;;0;29;29;29;;;;;;;391.3140047000488;None;392.60545210004784;392.9222628000425;394.0806553000002;394.097963600012;399.98043060000055;None;9;0;399.98043060000055;None;;;;;;;;7;;;;;0.30622019997099414;;;401.5303885000176;None;None;None;[];401.5303885000176;None;"['9', '9', '9', '9']";401.5303885000176;None;"[0.2281997999525629, 0.6524811999988742, 1.028428099991288, 1.5326538999797776]";;;S11455_2;2022_May_16_1157;VideoMask;2021.1.2;121.12168365599925;
0.0;f;040_y_f_s_a.jpg;sad;7.0;happy_127.3.wmv;happy;9.0;incongruent;130.0;150.0;131.7195455720239;s_h;;;;;0;30;30;30;;;;;;;404.5386863000458;None;405.8384438000503;406.1551672000205;407.2886133000138;407.3051768000005;409.3551433000248;None;9;0;409.3551433000248;None;;;;;;;;7;;;;;0.8195492000086233;;;410.9050907000201;None;None;None;[];410.9050907000201;None;"['9', '9']";410.9050907000201;None;"[0.40588990005198866, 0.7176241000415757]";;;S11455_2;2022_May_16_1157;VideoMask;2021.1.2;121.12168365599925;
0.0;f;030_o_f_s_a.jpg;sad;7.0;happy_125.3.wmv;happy;9.0;incongruent;130.0;150.0;220.51454909128134;s_h;;;;;0;31;31;31;;;;;;;413.90510470001027;None;415.9633714000229;416.2798648000462;417.41364400001476;417.43802820000565;419.4131647000322;None;9;0;419.4131647000322;None;;;;;;;;6;;;;;0.5695369000313804;;;420.9798119000043;None;None;None;[];420.9798119000043;None;"['9', '9', '7']";420.9798119000043;None;"[0.29892450000625104, 1.178875599987805, 2.0590244999621063]";;;S11455_2;2022_May_16_1157;VideoMask;2021.1.2;121.12168365599925;
0.0;f;030_o_f_s_a.jpg;sad;7.0;sad_64.3ns.avi;sad;7.0;congruent;130.0;160.0;165.78667874766072;s_s;;;;;0;32;32;32;;;;;;;423.9881227000151;None;425.57965940004215;425.8961892000516;427.0463439000305;427.0629210000043;432.0302789999987;None;7;0;432.0302789999987;None;;;;;;;;4;;;;;0.5844451000448316;;;433.78773560002446;None;None;None;[];433.78773560002446;None;['7'];433.78773560002446;None;[0.27498990000458434];;;S11455_2;2022_May_16_1157;VideoMask;2021.1.2;121.12168365599925;
3.0;m;013_y_m_s_a.jpg;sad;7.0;sad_7.7ns.avi;sad;7.0;congruent;130.0;160.0;196.24182255763262;s_s;;;;;0;33;33;33;;;;;;;436.7961495000054;None;438.6457802000223;438.9624912000145;440.1540464000427;440.1711144000292;446.09579560003476;None;7;0;446.09579560003476;None;;;;;;;;5;;;;;0.5349209000123665;;;447.64564750000136;None;None;None;[];447.64564750000136;None;None;447.64564750000136;None;;;;S11455_2;2022_May_16_1157;VideoMask;2021.1.2;121.12168365599925;
3.0;m;013_y_m_h_a.jpg;happy;9.0;happy_9.1ns.avi;happy;9.0;congruent;120.0;150.0;165.1890303600433;h_h;;;;;0;34;34;34;;;;;;;450.66205520002404;None;452.2538424000377;452.5703762000194;453.7038065000088;453.72045640001306;456.9288531000493;None;9;0;456.9288531000493;None;;;;;;;;7;;;;;0.4298001999850385;;;458.50370590004604;None;None;None;[];458.50370590004604;None;"['9', '9', '9', '9']";458.50370590004604;None;"[0.09499849996063858, 0.5189873999916017, 0.8313387999660335, 1.1350337999756448]";;;S11455_2;2022_May_16_1157;VideoMask;2021.1.2;121.12168365599925;
4.0;m;004_o_m_h_a.jpg;happy;9.0;sad_95.1ns.avi;sad;7.0;incongruent;120.0;160.0;152.68270002069931;h_s;;;;;0;35;35;35;;;;;;;461.50353380001616;None;463.00335090002045;463.3199920000043;464.49515110003995;464.51179370004684;473.245072300022;None;7;0;473.245072300022;None;;;;;;;;2;;;;;0.5776212999480776;;;474.8114809000399;None;None;None;[];474.8114809000399;None;"['7', '7', '7', '7']";474.8114809000399;None;"[0.43518929998390377, 0.7391077000065707, 1.0271415999741293, 1.5631944999913685]";;;S11455_2;2022_May_16_1157;VideoMask;2021.1.2;121.12168365599925;
3.0;m;013_y_m_h_a.jpg;happy;9.0;sad_113.2.wmv;sad;7.0;incongruent;120.0;160.0;217.4973891947951;h_s;;;;;0;36;36;36;;;;;;;477.8113645000267;None;479.83615879999707;480.1528975000256;481.28628780000145;481.3029400000232;483.2862616000348;None;None;0;483.2862616000348;None;;;;;;;;5;;;;;;;;484.83597640000517;None;None;None;[];484.83597640000517;None;None;484.83597640000517;None;;;;S11455_2;2022_May_16_1157;VideoMask;2021.1.2;121.12168365599925;
4.0;m;004_o_m_h_a.jpg;happy;9.0;happy_25.1ns.avi;happy;9.0;congruent;120.0;150.0;216.63044503818386;h_h;;;;;0;37;37;37;;;;;;;487.86943210003665;None;489.8858839000459;490.20259140001144;491.40265050000744;491.4192781000165;495.0276354000089;None;9;0;495.0276354000089;None;;;;;;;;8;;;;;0.3710912999813445;;;496.63585030002287;None;None;None;[];496.63585030002287;None;"['9', '9', '9']";496.63585030002287;None;"[11.754941300023347, 0.27470059995539486, 0.8590678999898955]";;;S11455_2;2022_May_16_1157;VideoMask;2021.1.2;121.12168365599925;
4.0;m;004_o_m_s_a.jpg;sad;7.0;happy_131.2.wmv;happy;9.0;incongruent;130.0;150.0;181.38407540847405;s_h;;;;;0;38;38;38;;;;;;;499.61919350002427;None;501.33548180002254;501.65222770004766;502.78545830002986;502.80225590005284;504.78547520004213;None;9;0;504.78547520004213;None;;;;;;;;6;;;;;0.8692019000300206;;;506.3354027000023;None;None;None;[];506.3354027000023;None;['9'];506.3354027000023;None;[0.33534200000576675];;;S11455_2;2022_May_16_1157;VideoMask;2021.1.2;121.12168365599925;
0.0;f;040_y_f_h_a.jpg;happy;9.0;happy_24.3ns.avi;happy;9.0;congruent;120.0;150.0;213.25460698950434;h_h;;;;;0;39;39;39;;;;;;;509.3353114000056;None;511.301865800051;511.61858920002123;512.7853667000309;512.8017703000223;514.6769333000411;None;9;0;514.6769333000411;None;;;;;;;;8;;;;;0.6578079999890178;;;516.251864400052;None;None;None;[];516.251864400052;None;"['9', '9', '9']";516.251864400052;None;"[0.25894570001401007, 0.5629295000107959, 1.0430035999743268]";;;S11455_2;2022_May_16_1157;VideoMask;2021.1.2;121.12168365599925;
2.0;f;012_o_f_s_a.jpg;sad;7.0;happy_139.1.wmv;happy;9.0;incongruent;130.0;150.0;162.31500468041804;s_h;;;;;0;40;40;40;;;;;;;519.2601918000146;None;520.8182542000432;521.1349770000088;522.2687801000429;522.2934078000253;524.2683084000018;None;9;0;524.2683084000018;None;;;;;;;;6;;;;;0.3305205999640748;;;525.8099003000534;None;None;None;[];525.8099003000534;None;"['9', '9']";525.8099003000534;None;"[0.060819100006483495, 0.6048526999657042]";;;S11455_2;2022_May_16_1157;VideoMask;2021.1.2;121.12168365599925;
0.0;f;030_o_f_h_a.jpg;happy;9.0;happy_24.1ns.avi;happy;9.0;congruent;120.0;150.0;168.36256624020774;h_h;;;;;0;41;41;41;;;;;;;528.8099214000395;None;530.426294600009;530.7429642000352;531.9430626000394;531.9597197000403;535.2096797000268;None;9;0;535.2096797000268;None;;;;;;;;7;;;;;0.8215839000185952;;;536.7595555000007;None;None;None;[];536.7595555000007;None;"['9', '9', '9']";536.7595555000007;None;"[0.1595376000041142, 0.5352794000064023, 1.1754684000043198]";;;S11455_2;2022_May_16_1157;VideoMask;2021.1.2;121.12168365599925;
2.0;f;012_o_f_h_a.jpg;happy;9.0;sad_113.1.wmv;sad;7.0;incongruent;120.0;160.0;177.44551734737394;h_s;;;;;0;42;42;42;;;;;;;539.7678774000378;None;541.4509458999964;541.767653900024;542.917685100052;542.9343641000451;544.9009745000512;None;7;0;544.9009745000512;None;;;;;;;;5;;;;;0.5698120000306517;;;546.4509350000299;None;None;None;[];546.4509350000299;None;None;546.4509350000299;None;;;;S11455_2;2022_May_16_1157;VideoMask;2021.1.2;121.12168365599925;
3.0;m;033_o_m_s_a.jpg;sad;7.0;sad_64.5ns.avi;sad;7.0;congruent;130.0;160.0;130.55717223801247;s_s;;;;;0;43;43;43;;;;;;;549.467419499997;None;550.7756980000413;551.0923925000243;552.3178310000221;552.3340366000193;558.8088911000523;None;7;0;558.8088911000523;None;;;;;;;;4;;;;;0.6217788999783807;;;560.3588423000183;None;None;None;[];560.3588423000183;None;['7'];560.3588423000183;None;[1.5840936000458896];;;S11455_2;2022_May_16_1157;VideoMask;2021.1.2;121.12168365599925;
7.0;m;027_o_m_h_a.jpg;happy;9.0;sad_117.1.wmv;sad;7.0;incongruent;120.0;160.0;181.28665202824095;h_s;;;;;0;44;44;44;;;;;;;563.3671327000484;None;565.0918661000323;565.4086483000428;566.550661300018;566.5753441000124;568.541926200036;None;None;0;568.541926200036;None;;;;;;;;5;;;;;;;;570.0918862000108;None;None;None;[];570.0918862000108;None;None;570.0918862000108;None;;;;S11455_2;2022_May_16_1157;VideoMask;2021.1.2;121.12168365599925;
3.0;m;033_o_m_s_a.jpg;sad;7.0;happy_126.3.wmv;happy;9.0;incongruent;130.0;150.0;198.85252030535366;s_h;;;;;0;45;45;45;;;;;;;573.1082034000428;None;574.9749501000042;575.2916019000113;576.4332088000374;576.4498418000294;578.4333227000316;None;9;0;578.4333227000316;None;;;;;;;;5;;;;;1.2295085999649018;;;579.9832354999962;None;None;None;[];579.9832354999962;None;None;579.9832354999962;None;;;;S11455_2;2022_May_16_1157;VideoMask;2021.1.2;121.12168365599925;
3.0;m;033_o_m_h_a.jpg;happy;9.0;sad_136.1.wmv;sad;7.0;incongruent;120.0;160.0;176.97002883463455;h_s;;;;;0;46;46;46;;;;;;;582.9997631000006;None;584.6912587000406;585.0080002000323;586.1330909000244;586.1495700000087;588.1413497000467;None;7;0;588.1413497000467;None;;;;;;;;4;;;;;1.2654859999893233;;;589.6912603999954;None;None;None;[];589.6912603999954;None;['7'];589.6912603999954;None;[2.1314869999769144];;;S11455_2;2022_May_16_1157;VideoMask;2021.1.2;121.12168365599925;
9.0;f;019_m_f_h_a.jpg;happy;9.0;happy_10.1ns.avi;happy;9.0;congruent;120.0;150.0;157.2463435658512;h_h;;;;;0;47;47;47;;;;;;;592.6995058000321;None;594.2242397000082;594.5410968000069;595.6828238000162;595.6993600000278;603.1158817000105;None;9;0;603.1158817000105;None;;;;;;;;7;;;;;0.3628193000331521;;;604.6908098999993;None;None;None;[];604.6908098999993;None;"['9', '9']";604.6908098999993;None;"[0.10784819995751604, 0.5799922999576665]";;;S11455_2;2022_May_16_1157;VideoMask;2021.1.2;121.12168365599925;
2.0;f;012_o_f_h_a.jpg;happy;9.0;happy_2.2ns.avi;happy;9.0;congruent;120.0;150.0;206.34800317295262;h_h;;;;;0;48;48;48;;;;;;;607.6908683000365;None;609.6487730000517;609.965525800013;611.1739658000297;611.1905807000003;623.298764600011;None;9;0;623.298764600011;None;;;;;;;;6;;;;;0.588075999985449;;;624.8568603000022;None;None;None;[];624.8568603000022;None;['9'];624.8568603000022;None;[0.30195009999442846];;;S11455_2;2022_May_16_1157;VideoMask;2021.1.2;121.12168365599925;
3.0;m;033_o_m_h_a.jpg;happy;9.0;happy_24.2ns.avi;happy;9.0;congruent;120.0;150.0;167.9423847659953;h_h;;;;;0;49;49;49;;;;;;;627.8568819000502;None;629.4482389000477;629.764985900023;630.898256400018;630.9150205000187;634.6233562999987;None;9;0;634.6233562999987;None;;;;;;;;8;;;;;0.3913087999681011;;;636.223138100002;None;None;None;[];636.223138100002;None;"['9', '9', '9', '9']";636.223138100002;None;"[0.27166099997702986, 0.5915038000093773, 0.9276721999631263, 1.3838127999915741]";;;S11455_2;2022_May_16_1157;VideoMask;2021.1.2;121.12168365599925;
1.0;f;021_o_f_s_a.jpg;sad;7.0;happy_61.2ns.avi;happy;9.0;incongruent;130.0;150.0;210.94664004826666;s_h;;;;;0;50;50;50;;;;;;;639.2231311000069;None;641.1812206000322;641.4979356999975;642.6394697000505;642.6562797000515;647.1561860000365;None;9;0;647.1561860000365;None;;;;;;;;8;;;;;0.5305555000086315;;;648.6977962000528;None;None;None;[];648.6977962000528;None;"['9', '9', '9']";648.6977962000528;None;"[0.02914329996565357, 0.34901790000731125, 0.7252303999848664]";;;S11455_2;2022_May_16_1157;VideoMask;2021.1.2;121.12168365599925;
4.0;m;004_o_m_s_a.jpg;sad;7.0;sad_2.4ns.avi;sad;7.0;congruent;130.0;160.0;153.02079367163634;s_s;;;;;0;51;51;51;;;;;;;651.6976677000057;None;653.1975215999992;653.5142224000301;654.7148629000294;654.7393033000408;662.6058683000156;None;7;0;662.6058683000156;None;;;;;;;;5;;;;;0.5128836999647319;;;664.1639603000367;None;None;None;[];664.1639603000367;None;None;664.1639603000367;None;;;;S11455_2;2022_May_16_1157;VideoMask;2021.1.2;121.12168365599925;
8.0;m;008_y_m_h_a.jpg;happy;9.0;happy_1.2ns.avi;happy;9.0;congruent;120.0;150.0;210.98946429383824;h_h;;;;;0;52;52;52;;;;;;;667.1972364000394;None;669.2053030000534;669.5220685000531;670.6638018000522;670.6804259000346;683.446734600002;None;9;0;683.446734600002;None;;;;;;;;5;;;;;0.40017639996949583;;;684.9965792000294;None;None;None;[];684.9965792000294;None;['9'];684.9965792000294;None;[0.3942248999956064];;;S11455_2;2022_May_16_1157;VideoMask;2021.1.2;121.12168365599925;
2.0;f;012_o_f_s_a.jpg;sad;7.0;happy_52.2ns.avi;happy;9.0;incongruent;130.0;150.0;172.57202848318138;s_h;;;;;0;53;53;53;;;;;;;687.9965062999981;None;689.6297246000031;689.9464677000069;691.1214891000418;691.1381227000384;694.6297061000369;None;9;0;694.6297061000369;None;;;;;;;;7;;;;;0.6410852000117302;;;696.1796545000398;None;None;None;[];696.1796545000398;None;"['9', '9', '9']";696.1796545000398;None;"[0.21124370000325143, 0.5711283999844454, 0.8831032000016421]";;;S11455_2;2022_May_16_1157;VideoMask;2021.1.2;121.12168365599925;
9.0;f;019_m_f_s_a.jpg;sad;7.0;happy_61.1ns.avi;happy;9.0;incongruent;130.0;150.0;181.3003220572762;s_h;;;;;0;54;54;54;;;;;;;699.1879190000473;None;700.9210681000259;701.2378291000496;702.3793711000471;702.3961779000238;709.7627456000191;None;9;0;709.7627456000191;None;;;;;;;;8;;;;;0.6120457000215538;;;711.3208594000316;None;None;None;[];711.3208594000316;None;"['9', '9', '9', '9', '9']";711.3208594000316;None;"[0.26991550001548603, 0.6699375999742188, 1.0700923000113107, 1.43815469997935, 1.7818934000097215]";;;S11455_2;2022_May_16_1157;VideoMask;2021.1.2;121.12168365599925;
0.0;f;030_o_f_h_a.jpg;happy;9.0;sad_133.1.wmv;sad;7.0;incongruent;120.0;160.0;198.86251500867985;h_s;;;;;0;55;55;55;;;;;;;714.3292536000372;None;716.1955632000463;716.5123460000032;717.6373764000018;717.6540111000068;719.6455625000526;None;7;0;719.6455625000526;None;;;;;;;;4;;;;;0.5692857999820262;;;721.1954787000432;None;None;None;[];721.1954787000432;None;['7'];721.1954787000432;None;[1.7632965999655426];;;S11455_2;2022_May_16_1157;VideoMask;2021.1.2;121.12168365599925;
0.0;f;040_y_f_h_a.jpg;happy;9.0;sad_128.2.wmv;sad;7.0;incongruent;120.0;160.0;206.10005857915363;h_s;;;;;0;56;56;56;;;;;;;724.1954556000419;None;726.1203163000173;726.4369507000083;727.5784830000484;727.6035411000485;729.5702858000295;None;7;0;729.5702858000295;None;;;;;;;;4;;;;;0.7088143000146374;;;731.1202644000296;None;None;None;[];731.1202644000296;None;['7'];731.1202644000296;None;[0.5507357000024058];;;S11455_2;2022_May_16_1157;VideoMask;2021.1.2;121.12168365599925;
1.0;f;021_o_f_s_a.jpg;sad;7.0;sad_9.5ns.avi;sad;7.0;congruent;130.0;160.0;206.16642757875042;s_s;;;;;0;57;57;57;;;;;;;734.1202015000163;None;736.0449474000488;736.361781100044;737.5364825000288;737.5533806000021;743.2198661000002;None;7;0;743.2198661000002;None;;;;;;;;3;;;;;0.6029074999969453;;;744.7698414000333;None;None;None;[];744.7698414000333;None;"['7', '7']";744.7698414000333;None;"[0.24495920003391802, 2.813027800002601]";;;S11455_2;2022_May_16_1157;VideoMask;2021.1.2;121.12168365599925;
1.0;f;021_o_f_h_a.jpg;happy;9.0;happy_12.1ns.avi;happy;9.0;congruent;120.0;150.0;132.59080005900228;h_h;;;;;0;58;58;58;;;;;;;747.7697436000453;None;749.102903800027;749.4197266999981;750.5779997000354;750.5944288000464;758.1694820999983;None;7;0;758.1694820999983;None;;;;;;;;1;;;;;0.36534870002651587;;;759.7527375000063;None;None;None;[];759.7527375000063;None;"['7', '7', '7', '7']";759.7527375000063;None;"[0.06203489995095879, 0.3421457000076771, 0.5819600999820977, 2.5582804000005126]";;;S11455_2;2022_May_16_1157;VideoMask;2021.1.2;121.12168365599925;
3.0;m;013_y_m_s_a.jpg;sad;7.0;happy_56.2ns.avi;happy;9.0;incongruent;130.0;150.0;163.39234110935848;s_h;;;;;0;59;59;59;;;;;;;762.7609798000194;None;764.3274009000161;764.6441305000335;765.8106705000391;765.8273827000521;770.8023533000378;None;9;0;770.8023533000378;None;;;;;;;;6;;;;;0.5244518999825232;;;772.3773157999967;None;None;None;[];772.3773157999967;None;['9'];772.3773157999967;None;[0.4855385000118986];;;S11455_2;2022_May_16_1157;VideoMask;2021.1.2;121.12168365599925;
;;;;;;;;;;;;;;;;;;;;;;;;;;;;;;;;;;;;;;;;;;;;;;;;;;;;;;;;;;;;;;;;;775.3856463000411;None;;;;;;
