primePerson;primeGender;prime;primeEmotion;corrAnsPrime;target;targetEmotion;corrAnsTar;Cond;ID_Primer;ID_Target;JitterTime;Condition;example.thisRepN;example.thisTrialN;example.thisN;example.thisIndex;study.thisRepN;study.thisTrialN;study.thisN;study.thisIndex;MR_trigger_time;MR_trigger_number;text_intro.started;text_intro.stopped;text_probe.started;text_probe.stopped;polygon_ISI.started;polygon_ISI.stopped;polygon.started;polygon.stopped;primerImage.started;primerImage.stopped;response.started;response.stopped;key_resp.keys;key_resp.corr;key_resp.rt;key_resp.started;key_resp.stopped;slider_Text.started;slider_Text.stopped;slider_ex.response;slider_ex.rt;slider_ex.history;slider_ex.started;slider_ex.stopped;Rating;slider_resp_response.keys;slider_resp_response.rt;slider_resp_response.started;slider_resp_response.stopped;text_start.started;text_start.stopped;text_slider.started;text_slider.stopped;slider_stud.response;slider_stud.rt;slider_stud.history;slider_stud.started;slider_stud.stopped;slider_resp_study.keys;slider_resp_study.rt;slider_resp_study.started;slider_resp_study.stopped;text_ende.started;text_ende.stopped;participant;date;expName;psychopyVersion;frameRate;
1111;m;1111_m_m_h_a.jpg;happy;9;example_30.4ns.avi;neutral;7;incongruent;120.0;170.0;189.5874364012288;;0;0;0;0;;;;;50.03105290001258;1;50.10863279993646;52.108761699986644;52.108761699986644;None;54.12533099995926;None;56.36714719992597;56.683561499929056;57.81694009993225;57.83357519994024;62.17549269995652;None;9;0;0.6629317998886108;62.17549269995652;None;63.74241659999825;None;None;None;[];63.74241659999825;None;7;"['9', '9']";"[2.184316399972886, 2.4961586999706924]";63.74241659999825;None;;;;;;;;;;;;;;;;S11005;2021_Oct_22_1141;VideoMask;2021.1.2;120.13296322514311;
1113;f;1113_y_f_s_a.jpg;sad;7;example_30.3ns.avi;neutral;7;incongruent;130.0;170.0;229.02432995836998;;0;1;1;1;;;;;;;;;;;66.73341310000978;None;68.85807680001017;69.17479429999366;70.32483129994944;70.34151469997596;72.30816689995117;None;7;1;1.2022750000469387;72.30816689995117;None;73.97462160000578;None;None;None;[];73.97462160000578;None;5;None;;73.97462160000578;None;;;;;;;;;;;;;;;;S11005;2021_Oct_22_1141;VideoMask;2021.1.2;120.13296322514311;
9.0;f;019_m_f_h_a.jpg;happy;9.0;sad_115.1.wmv;sad;7.0;incongruent;120.0;160.0;128.09063432376465;h_s;;;;;0;0;0;0;;;;;;;78.00797039992176;None;79.2827660999028;79.59954229998402;80.73256729997229;80.74932559998706;82.7329141999362;None;7;0;0.9535091000143439;82.7329141999362;None;;;;;;;;3;;;;;76.99133829993661;None;84.28261749993544;None;None;None;[];84.28261749993544;None;"['7', '7', '7']";"[1.6200872000772506, 1.851713600102812, 2.267986800055951]";84.28261749993544;None;;;S11005;2021_Oct_22_1141;VideoMask;2021.1.2;120.13296322514311;
3.0;m;033_o_m_s_a.jpg;sad;7.0;sad_94.2ns.avi;sad;7.0;congruent;130.0;160.0;182.29120173647655;s_s;;;;;0;1;1;1;;;;;;;87.29115999990609;None;89.01579999993555;89.33252189995255;90.46607919991948;90.48257849994116;93.15763789997436;None;8;0;1.0969378999434412;93.15763789997436;None;;;;;;;;3;;;;;;;94.69913249998353;None;None;None;[];94.69913249998353;None;"['7', '7']";"[0.9474994000047445, 1.211515299975872]";94.69913249998353;None;;;S11005;2021_Oct_22_1141;VideoMask;2021.1.2;120.13296322514311;
8.0;m;008_y_m_h_a.jpg;happy;9.0;happy_26.1ns.avi;happy;9.0;congruent;120.0;150.0;155.9437854594882;h_h;;;;;0;2;2;2;;;;;;;97.69908659998327;None;99.19053409993649;99.507243799977;100.67399019992445;100.69061019993387;102.63232919992879;None;9;0;0.4063211999600753;102.63232919992879;None;;;;;;;;9;;;;;;;104.18218020000495;None;None;None;[];104.18218020000495;None;"['9', '9', '9', '9', '9', '9']";"[0.3602557999547571, 0.6641418000217527, 0.7764742999570444, 1.0321817999938503, 1.2881585999857634, 1.6403811000054702]";104.18218020000495;None;;;S11005;2021_Oct_22_1141;VideoMask;2021.1.2;120.13296322514311;
0.0;f;040_y_f_h_a.jpg;happy;9.0;sad_138.1.wmv;sad;7.0;incongruent;120.0;160.0;133.99071306426532;h_s;;;;;0;3;3;3;;;;;;;107.1904355000006;None;108.51524939993396;108.8319685999304;109.95699579990469;109.97373189998325;111.96519109990913;None;9;0;0.8173155999975279;111.96519109990913;None;;;;;;;;4;;;;;;;113.51516479998827;None;None;None;[];113.51516479998827;None;['7'];[0.9798215000191703];113.51516479998827;None;;;S11005;2021_Oct_22_1141;VideoMask;2021.1.2;120.13296322514311;
8.0;f;028_y_f_s_a.jpg;sad;7.0;sad_64.2ns.avi;sad;7.0;congruent;130.0;160.0;229.88540597086478;s_s;;;;;0;4;4;4;;;;;;;116.51533979992382;None;118.68990999995731;119.00656779995188;120.16486489993986;120.18153599998914;131.1397680999944;None;7;0;0.6347339999629185;131.1397680999944;None;;;;;;;;3;;;;;;;132.68965199997183;None;None;None;[];132.68965199997183;None;"['7', '7']";"[0.7168818999780342, 0.9327370000537485]";132.68965199997183;None;;;S11005;2021_Oct_22_1141;VideoMask;2021.1.2;120.13296322514311;
7.0;m;027_o_m_s_a.jpg;sad;7.0;sad_10.4ns.avi;sad;7.0;congruent;130.0;160.0;185.20129417468752;s_s;;;;;0;5;5;5;;;;;;;135.68967449991032;None;137.43979959993158;137.75640849990305;138.89832119992934;138.92287589993794;142.05601029994432;None;7;0;0.6226254999637604;142.05601029994432;None;;;;;;;;3;;;;;;;143.6059976000106;None;None;None;[];143.6059976000106;None;"['7', '7', '7']";"[0.3927551000379026, 0.5763704000273719, 1.4404773999704048]";143.6059976000106;None;;;S11005;2021_Oct_22_1141;VideoMask;2021.1.2;120.13296322514311;
2.0;f;012_o_f_s_a.jpg;sad;7.0;sad_7.5ns.avi;sad;7.0;congruent;130.0;160.0;220.27842655424388;s_s;;;;;0;6;6;6;;;;;;;146.61436989996582;None;148.6474436999997;148.96410099999048;150.18149129999802;150.20579569996335;152.88919659995008;None;7;0;0.5812859999714419;152.88919659995008;None;;;;;;;;1;;;;;;;154.49733519996516;None;None;None;[];154.49733519996516;None;"['7', '7', '7', '7']";"[0.5492187000345439, 0.7411321999970824, 1.5330547000048682, 2.8290271000005305]";154.49733519996516;None;;;S11005;2021_Oct_22_1141;VideoMask;2021.1.2;120.13296322514311;
2.0;f;012_o_f_h_a.jpg;happy;9.0;happy_27.1ns.avi;happy;9.0;congruent;120.0;150.0;146.44967055810616;h_h;;;;;0;7;7;7;;;;;;;157.49724990001414;None;158.91373799997382;159.23046369990334;160.3884958999697;160.40531709999777;162.85543809994124;None;9;0;1.1909140000352636;162.85543809994124;None;;;;;;;;9;;;;;;;164.730375599931;None;None;None;[];164.730375599931;None;"['9', '9', '9', '9']";"[0.5401223000371829, 0.8759567000670359, 1.0120766001055017, 1.4841403000755236]";164.730375599931;None;;;S11005;2021_Oct_22_1141;VideoMask;2021.1.2;120.13296322514311;
8.0;f;028_y_f_h_a.jpg;happy;9.0;sad_119.1.wmv;sad;7.0;incongruent;120.0;160.0;148.71526953572538;h_s;;;;;0;8;8;8;;;;;;;167.7387709999457;None;169.18851979996543;169.50518579990603;170.66426699992735;170.68929739994928;172.7136359999422;None;9;0;0.5647952000144869;172.7136359999422;None;;;;;;;;2;;;;;;;174.2634248000104;None;None;None;[];174.2634248000104;None;"['7', '7', '7']";"[0.599097799975425, 0.8628715999657288, 1.399310200009495]";174.2634248000104;None;;;S11005;2021_Oct_22_1141;VideoMask;2021.1.2;120.13296322514311;
6.0;m;016_y_m_s_a.jpg;sad;7.0;happy_60.4ns.avi;happy;9.0;incongruent;130.0;150.0;126.02367393611817;s_h;;;;;0;9;9;9;;;;;;;177.263729600003;None;178.52984560001642;178.84654609998688;180.01318809995428;180.02991409995593;185.7714827999007;None;8;0;0.907056299969554;185.7714827999007;None;;;;;;;;7;;;;;;;187.32137589994818;None;None;None;[];187.32137589994818;None;"['9', '9', '9', '9', '7']";"[0.5012090000091121, 0.6931089999852702, 0.8530592999886721, 1.3569361000554636, 1.941362800076604]";187.32137589994818;None;;;S11005;2021_Oct_22_1141;VideoMask;2021.1.2;120.13296322514311;
9.0;f;019_m_f_s_a.jpg;sad;7.0;sad_8.4ns.avi;sad;7.0;congruent;130.0;160.0;171.6633093155257;s_s;;;;;0;10;10;10;;;;;;;190.3213020999683;None;191.99621809995733;192.3128044999903;193.4544717000099;193.4711915999651;201.5792322999332;None;None;0;;201.5792322999332;None;;;;;;;;4;;;;;;;203.12957419990562;None;None;None;[];203.12957419990562;None;"['7', '7', '7', '7']";"[0.8531819001073018, 1.2450300001073629, 1.89300780009944, 2.501008899998851]";203.12957419990562;None;;;S11005;2021_Oct_22_1141;VideoMask;2021.1.2;120.13296322514311;
4.0;m;004_o_m_h_a.jpg;happy;9.0;happy_1.1ns.avi;happy;9.0;congruent;120.0;150.0;203.50057144619865;h_h;;;;;0;11;11;11;;;;;;;206.14582189999055;None;208.1455417999532;208.46230469993316;209.6207107999362;209.63728289993014;224.08764669997618;None;9;0;0.4867921000113711;224.08764669997618;None;;;;;;;;7;;;;;;;225.65357419999782;None;None;None;[];225.65357419999782;None;"['9', '9']";"[0.5690713999792933, 0.8247476000105962]";225.65357419999782;None;;;S11005;2021_Oct_22_1141;VideoMask;2021.1.2;120.13296322514311;
7.0;m;027_o_m_h_a.jpg;happy;9.0;happy_20.1ns.avi;happy;9.0;congruent;120.0;150.0;152.91127178874285;h_h;;;;;0;12;12;12;;;;;;;228.6625237999251;None;230.14496369997505;230.46168379997835;231.6284642999526;231.64499529998284;234.61169960000552;None;9;0;0.562985899974592;234.61169960000552;None;;;;;;;;8;;;;;;;236.2282345999265;None;None;None;[];236.2282345999265;None;"['9', '9', '9']";"[0.8423373999539763, 1.090051299892366, 1.305963599937968]";236.2282345999265;None;;;S11005;2021_Oct_22_1141;VideoMask;2021.1.2;120.13296322514311;
0.0;f;040_y_f_s_a.jpg;sad;7.0;sad_94.3ns.avi;sad;7.0;congruent;130.0;160.0;155.27414203894395;s_s;;;;;0;13;13;13;;;;;;;239.23662400001194;None;240.72797609993722;241.04465870000422;242.21119349997025;242.22787979990244;244.80301279993728;None;None;0;;244.80301279993728;None;;;;;;;;2;;;;;;;246.3527939999476;None;None;None;[];246.3527939999476;None;"['7', '7', '7']";"[0.21378300001379102, 0.749557500006631, 1.7175480000441894]";246.3527939999476;None;;;S11005;2021_Oct_22_1141;VideoMask;2021.1.2;120.13296322514311;
0.0;f;030_o_f_s_a.jpg;sad;7.0;sad_68.1ns.avi;sad;7.0;congruent;130.0;160.0;158.9411396037211;s_s;;;;;0;14;14;14;;;;;;;249.3530894999858;None;250.89434849994723;251.21106379991397;252.36920499999542;252.38604959996883;259.7692139999708;None;7;0;0.4932845999719575;259.7692139999708;None;;;;;;;;1;;;;;;;261.319141499931;None;None;None;[];261.319141499931;None;"['7', '7', '7', '7']";"[0.3275003000162542, 0.49519710009917617, 0.6791711000259966, 1.111552800051868]";261.319141499931;None;;;S11005;2021_Oct_22_1141;VideoMask;2021.1.2;120.13296322514311;
0.0;f;030_o_f_h_a.jpg;happy;9.0;sad_127.1.wmv;sad;7.0;incongruent;120.0;160.0;180.59976631384873;h_s;;;;;0;15;15;15;;;;;;;264.3193176999921;None;266.0438795000082;266.3606162999058;267.4857833000133;267.5023360999767;269.4939214999322;None;9;0;0.9763973999070004;269.4939214999322;None;;;;;;;;5;;;;;;;271.04389329999685;None;None;None;[];271.04389329999685;None;None;;271.04389329999685;None;;;S11005;2021_Oct_22_1141;VideoMask;2021.1.2;120.13296322514311;
8.0;m;008_y_m_s_a.jpg;sad;7.0;happy_133.3.wmv;happy;9.0;incongruent;130.0;150.0;152.577966552593;s_h;;;;;0;16;16;16;;;;;;;274.06042539991904;None;275.5518740999978;275.86869879998267;276.9937977999216;277.01038019999396;279.0021193999564;None;8;0;0.588171900017187;279.0021193999564;None;;;;;;;;7;;;;;;;280.55191019992344;None;None;None;[];280.55191019992344;None;"['9', '9', '9', '7']";"[0.6066420999122784, 0.8304821999045089, 1.0224167999112979, 1.6305069999070838]";280.55191019992344;None;;;S11005;2021_Oct_22_1141;VideoMask;2021.1.2;120.13296322514311;
3.0;m;033_o_m_h_a.jpg;happy;9.0;sad_128.1.wmv;sad;7.0;incongruent;120.0;160.0;171.0492454518585;h_s;;;;;0;17;17;17;;;;;;;283.56039299990516;None;285.201662599924;285.51839679991826;286.6764998999424;286.69330199994147;288.65175189997535;None;7;0;1.098844000021927;288.65175189997535;None;;;;;;;;2;;;;;;;290.20167239999864;None;None;None;[];290.20167239999864;None;"['7', '7', '7']";"[0.5328842999879271, 0.700754199991934, 1.140853499993682]";290.20167239999864;None;;;S11005;2021_Oct_22_1141;VideoMask;2021.1.2;120.13296322514311;
1.0;f;021_o_f_h_a.jpg;happy;9.0;sad_116.1.wmv;sad;7.0;incongruent;120.0;160.0;184.06847610053055;h_s;;;;;0;18;18;18;;;;;;;293.2015425999416;None;294.95970239990856;295.27644839999266;296.43474209995475;296.45138179999776;298.4097494999878;None;9;0;0.46159849991090596;298.4097494999878;None;;;;;;;;3;;;;;;;300.409700899967;None;None;None;[];300.409700899967;None;"['7', '7']";"[0.5973703999770805, 0.8770557000534609]";300.409700899967;None;;;S11005;2021_Oct_22_1141;VideoMask;2021.1.2;120.13296322514311;
4.0;m;004_o_m_s_a.jpg;sad;7.0;happy_28.1ns.avi;happy;9.0;incongruent;130.0;150.0;157.40741103039684;s_h;;;;;0;19;19;19;;;;;;;303.4097023999784;None;304.9343902999535;305.25108339998405;306.4176417000126;306.4429028999293;310.7759977999376;None;7;0;0.5024587000953034;310.7759977999376;None;;;;;;;;9;;;;;;;312.3265187999932;None;None;None;[];312.3265187999932;None;"['9', '9', '9', '9']";"[0.49606369994580746, 0.7279606000520289, 0.9039468000410125, 1.2720124999759719]";312.3265187999932;None;;;S11005;2021_Oct_22_1141;VideoMask;2021.1.2;120.13296322514311;
8.0;f;028_y_f_s_a.jpg;sad;7.0;happy_122.3.wmv;happy;9.0;incongruent;130.0;150.0;171.8670540936116;s_h;;;;;0;20;20;20;;;;;;;315.34329240000807;None;316.98405739990994;317.30088120000437;318.4348275999073;318.46737500000745;320.4341281999368;None;8;0;0.4844764000736177;320.4341281999368;None;;;;;;;;7;;;;;;;321.983982799924;None;None;None;[];321.983982799924;None;"['9', '9']";"[0.4386612999951467, 0.7986086999299005]";321.983982799924;None;;;S11005;2021_Oct_22_1141;VideoMask;2021.1.2;120.13296322514311;
8.0;m;008_y_m_s_a.jpg;sad;7.0;sad_6.5ns.avi;sad;7.0;congruent;130.0;160.0;170.39333839271438;s_s;;;;;0;21;21;21;;;;;;;324.9849443999119;None;326.6087610999821;326.9253886999795;328.1086571000051;328.12540059990715;333.05871519993525;None;7;0;0.6119464000221342;333.05871519993525;None;;;;;;;;2;;;;;;;334.6086680999724;None;None;None;[];334.6086680999724;None;"['7', '7', '7', '7']";"[0.4858419999945909, 0.85401200002525, 1.2060793000273407, 1.5498109000036493]";334.6086680999724;None;;;S11005;2021_Oct_22_1141;VideoMask;2021.1.2;120.13296322514311;
8.0;f;028_y_f_h_a.jpg;happy;9.0;happy_23.1ns.avi;happy;9.0;congruent;120.0;150.0;225.70986890587952;h_h;;;;;0;22;22;22;;;;;;;337.6087376999203;None;339.70004889997654;340.0167697999859;341.2081732999068;341.22511869994923;345.7251246999949;None;8;0;0.48149000003468245;345.7251246999949;None;;;;;;;;9;;;;;;;347.2749558999203;None;None;None;[];347.2749558999203;None;"['9', '9', '9', '9']";"[0.6597723999293521, 0.8998493999242783, 1.0835225000046194, 2.1155739999376237]";347.2749558999203;None;;;S11005;2021_Oct_22_1141;VideoMask;2021.1.2;120.13296322514311;
8.0;m;008_y_m_h_a.jpg;happy;9.0;sad_111.1.wmv;sad;7.0;incongruent;120.0;160.0;152.63076835312847;h_s;;;;;0;23;23;23;;;;;;;350.2749877999304;None;351.7496752999723;352.0664561999729;353.2412741999142;353.2579586999491;355.1998422999168;None;9;0;0.5347788999788463;355.1998422999168;None;;;;;;;;2;;;;;;;356.7497262000106;None;None;None;[];356.7497262000106;None;"['7', '7', '7']";"[0.9608677999349311, 1.1526712999911979, 1.7126342999981716]";356.7497262000106;None;;;S11005;2021_Oct_22_1141;VideoMask;2021.1.2;120.13296322514311;
0.0;f;040_y_f_s_a.jpg;sad;7.0;sad_67.2ns.avi;sad;7.0;congruent;130.0;160.0;220.9892697323079;s_s;;;;;0;24;24;24;;;;;;;359.7496121999575;None;361.8160248999484;362.13282579998486;363.28282699990086;363.29945019993465;372.49097569996957;None;7;0;0.8994107000762597;372.49097569996957;None;;;;;;;;2;;;;;;;374.0406253999099;None;None;None;[];374.0406253999099;None;"['7', '7', '7', '7']";"[0.5978936000028625, 0.9019664999796078, 1.2940459999954328, 2.278067299979739]";374.0406253999099;None;;;S11005;2021_Oct_22_1141;VideoMask;2021.1.2;120.13296322514311;
8.0;m;008_y_m_s_a.jpg;sad;7.0;happy_29.1ns.avi;happy;9.0;incongruent;130.0;150.0;120.0316142834122;s_h;;;;;0;25;25;25;;;;;;;377.0409003999084;None;378.2405629999703;378.5572017999366;379.7237006999785;379.74045979999937;382.38227599998936;None;7;0;0.5763395000249147;382.38227599998936;None;;;;;;;;8;;;;;;;383.93216979992576;None;None;None;[];383.93216979992576;None;"['9', '9', '9']";"[0.5383983999490738, 0.7863546999869868, 2.0665568999247625]";383.93216979992576;None;;;S11005;2021_Oct_22_1141;VideoMask;2021.1.2;120.13296322514311;
6.0;m;016_y_m_s_a.jpg;sad;7.0;sad_8.3ns.avi;sad;7.0;congruent;130.0;160.0;152.85371098242734;s_s;;;;;0;26;26;26;;;;;;;386.94039839995094;None;388.4320478999289;388.7486183999572;389.9318635999225;389.94868769997265;397.64018939994276;None;8;0;0.5263530000811443;397.64018939994276;None;;;;;;;;3;;;;;;;399.19007079990115;None;None;None;[];399.19007079990115;None;"['7', '7']";"[0.8005333999171853, 1.1204550999682397]";399.19007079990115;None;;;S11005;2021_Oct_22_1141;VideoMask;2021.1.2;120.13296322514311;
6.0;m;016_y_m_h_a.jpg;happy;9.0;sad_114.1.wmv;sad;7.0;incongruent;120.0;160.0;136.20550699298644;h_s;;;;;0;27;27;27;;;;;;;402.1900326999603;None;403.53983229992446;403.85651949991006;404.9815418999642;404.9981516000116;406.9989363999339;None;9;0;0.43984549993183464;406.9989363999339;None;;;;;;;;1;;;;;;;408.7064034999348;None;None;None;[];408.7064034999348;None;"['7', '7', '7', '7']";"[0.6122756000841036, 0.9563840000191703, 1.8202403000323102, 2.8043605000711977]";408.7064034999348;None;;;S11005;2021_Oct_22_1141;VideoMask;2021.1.2;120.13296322514311;
7.0;m;027_o_m_s_a.jpg;sad;7.0;happy_117.3.wmv;happy;9.0;incongruent;130.0;150.0;215.61964028550614;s_h;;;;;0;28;28;28;;;;;;;411.70626399992034;None;413.70614369993564;414.03211239993107;415.172974599991;415.18964809994213;417.16472939995583;None;7;0;0.5778050000080839;417.16472939995583;None;;;;;;;;7;;;;;;;418.72282169992104;None;None;None;[];418.72282169992104;None;"['9', '9', '9']";"[0.451885599992238, 0.7236363999545574, 0.9396320999367163]";418.72282169992104;None;;;S11005;2021_Oct_22_1141;VideoMask;2021.1.2;120.13296322514311;
6.0;m;016_y_m_h_a.jpg;happy;9.0;happy_9.2ns.avi;happy;9.0;congruent;120.0;150.0;130.52042428082717;h_h;;;;;0;29;29;29;;;;;;;421.7230064999312;None;423.0225994999055;423.3396075000055;424.46429149992764;424.48104449990205;430.3974923999049;None;9;0;0.6652552000014111;430.3974923999049;None;;;;;;;;9;;;;;;;431.9391019999748;None;None;None;[];431.9391019999748;None;"['9', '9', '9', '9']";"[0.49166419997345656, 0.6833291000220925, 0.9955748000647873, 1.2833845999557525]";431.9391019999748;None;;;S11005;2021_Oct_22_1141;VideoMask;2021.1.2;120.13296322514311;
0.0;f;040_y_f_s_a.jpg;sad;7.0;happy_127.3.wmv;happy;9.0;incongruent;130.0;150.0;131.7195455720239;s_h;;;;;0;30;30;30;;;;;;;434.9390593999997;None;436.23052779992577;436.5472156999167;437.67224099999294;437.6889148999471;439.74711659993045;None;7;0;0.8275043000467122;439.74711659993045;None;;;;;;;;7;;;;;;;441.2888321999926;None;None;None;[];441.2888321999926;None;"['9', '9']";"[0.39747610001359135, 0.7896357999416068]";441.2888321999926;None;;;S11005;2021_Oct_22_1141;VideoMask;2021.1.2;120.13296322514311;
0.0;f;030_o_f_s_a.jpg;sad;7.0;happy_125.3.wmv;happy;9.0;incongruent;130.0;150.0;220.51454909128134;s_h;;;;;0;31;31;31;;;;;;;444.2887359999586;None;446.3385621999623;446.6552898999071;447.7966392999515;447.8134551999392;449.7886244999245;None;8;0;0.6578776999376714;449.7886244999245;None;;;;;;;;8;;;;;;;451.3301904000109;None;None;None;[];451.3301904000109;None;"['9', '9', '9']";"[0.9404747999506071, 1.1965080000227317, 1.556233200011775]";451.3301904000109;None;;;S11005;2021_Oct_22_1141;VideoMask;2021.1.2;120.13296322514311;
0.0;f;030_o_f_s_a.jpg;sad;7.0;sad_64.3ns.avi;sad;7.0;congruent;130.0;160.0;165.78667874766072;s_s;;;;;0;32;32;32;;;;;;;454.3301235999679;None;455.9215906999307;456.2381869999226;457.4048942999216;457.42224459990393;462.38832949998323;None;7;0;0.7383242999203503;462.38832949998323;None;;;;;;;;2;;;;;;;463.9381372999633;None;None;None;[];463.9381372999633;None;"['7', '7', '7', '7']";"[0.324606699985452, 0.5886035000439733, 1.4445334000047296, 2.1163241000613198]";463.9381372999633;None;;;S11005;2021_Oct_22_1141;VideoMask;2021.1.2;120.13296322514311;
3.0;m;013_y_m_s_a.jpg;sad;7.0;sad_7.7ns.avi;sad;7.0;congruent;130.0;160.0;196.24182255763262;s_s;;;;;0;33;33;33;;;;;;;466.93802919995505;None;468.77961450000294;469.0963100999361;470.2876443999121;470.304514599964;476.2295742999995;None;7;0;0.5528937999624759;476.2295742999995;None;;;;;;;;1;;;;;;;477.8294286999153;None;None;None;[];477.8294286999153;None;"['7', '7', '7', '7', '7']";"[0.4413300999440253, 0.6489623999223113, 0.8011685999808833, 0.9690049999626353, 1.1855661999434233]";477.8294286999153;None;;;S11005;2021_Oct_22_1141;VideoMask;2021.1.2;120.13296322514311;
3.0;m;013_y_m_h_a.jpg;happy;9.0;happy_9.1ns.avi;happy;9.0;congruent;120.0;150.0;165.1890303600433;h_h;;;;;0;34;34;34;;;;;;;480.8294759999262;None;482.41234679997433;482.72936489991844;483.89653239992913;483.9210521999048;487.0873752000043;None;9;0;0.5513130000326782;487.0873752000043;None;;;;;;;;8;;;;;;;488.63732629991136;None;None;None;[];488.63732629991136;None;"['9', '9', '9', '9', '9']";"[0.537404999951832, 0.7611348000355065, 0.9291282000485808, 1.377217200002633, 1.8734910000348464]";488.63732629991136;None;;;S11005;2021_Oct_22_1141;VideoMask;2021.1.2;120.13296322514311;
4.0;m;004_o_m_h_a.jpg;happy;9.0;sad_95.1ns.avi;sad;7.0;incongruent;120.0;160.0;152.68270002069931;h_s;;;;;0;35;35;35;;;;;;;491.645812899922;None;493.15390579996165;493.47052420000546;494.6371137999231;494.65396609995514;503.3953375999117;None;8;0;0.6671679998980835;503.3953375999117;None;;;;;;;;1;;;;;;;504.9536306000082;None;None;None;[];504.9536306000082;None;"['7', '7', '7', '7', '7']";"[0.5890183999435976, 0.8769695999799296, 1.220836199936457, 1.5250629000365734, 1.9172854999778792]";504.9536306000082;None;;;S11005;2021_Oct_22_1141;VideoMask;2021.1.2;120.13296322514311;
3.0;m;013_y_m_h_a.jpg;happy;9.0;sad_113.2.wmv;sad;7.0;incongruent;120.0;160.0;217.4973891947951;h_s;;;;;0;36;36;36;;;;;;;507.95356079994235;None;509.9782640999183;510.2950414000079;511.42843329999596;511.44509189995006;513.4283819999546;None;9;0;0.762076299986802;513.4283819999546;None;;;;;;;;3;;;;;;;515.020023799967;None;None;None;[];515.020023799967;None;"['7', '7', '7', '9']";"[1.0748819999862462, 1.3145187000045553, 1.5144383000442758, 1.9625157000264153]";515.020023799967;None;;;S11005;2021_Oct_22_1141;VideoMask;2021.1.2;120.13296322514311;
4.0;m;004_o_m_h_a.jpg;happy;9.0;happy_25.1ns.avi;happy;9.0;congruent;120.0;150.0;216.63044503818386;h_h;;;;;0;37;37;37;;;;;;;518.0198502999265;None;520.0362774999812;520.3530514999293;521.5363654999528;521.5531466999091;525.1781130000018;None;9;0;0.5483691999688745;525.1781130000018;None;;;;;;;;8;;;;;;;526.7196087999037;None;None;None;[];526.7196087999037;None;"['9', '9', '9', '9', '9']";"[0.5350339999422431, 0.7508370999712497, 0.9992765999631956, 1.5430775999557227, 2.2629615999758244]";526.7196087999037;None;;;S11005;2021_Oct_22_1141;VideoMask;2021.1.2;120.13296322514311;
4.0;m;004_o_m_s_a.jpg;sad;7.0;happy_131.2.wmv;happy;9.0;incongruent;130.0;150.0;181.38407540847405;s_h;;;;;0;38;38;38;;;;;;;529.7196380000096;None;531.4443973000161;531.7611817999277;532.9117720999056;532.944514199975;534.8943312999327;None;7;0;0.664406199939549;534.8943312999327;None;;;;;;;;7;;;;;;;536.4443148999708;None;None;None;[];536.4443148999708;None;"['9', '9', '9']";"[0.4824673000257462, 0.8182950000045821, 1.570100300014019]";536.4443148999708;None;;;S11005;2021_Oct_22_1141;VideoMask;2021.1.2;120.13296322514311;
0.0;f;040_y_f_h_a.jpg;happy;9.0;happy_24.3ns.avi;happy;9.0;congruent;120.0;150.0;213.25460698950434;h_h;;;;;0;39;39;39;;;;;;;539.4443141999654;None;541.410692699952;541.7274190000026;542.8945790999569;542.919594499981;544.7856982999947;None;None;0;;544.7856982999947;None;;;;;;;;7;;;;;;;546.3355296999216;None;None;None;[];546.3355296999216;None;"['9', '9']";"[0.8231898000231013, 1.0470204000594094]";546.3355296999216;None;;;S11005;2021_Oct_22_1141;VideoMask;2021.1.2;120.13296322514311;
2.0;f;012_o_f_s_a.jpg;sad;7.0;happy_139.1.wmv;happy;9.0;incongruent;130.0;150.0;162.31500468041804;s_h;;;;;0;40;40;40;;;;;;;549.3358187999111;None;550.8937617999036;551.2104434999637;552.3443006000016;552.368851199979;554.3525461999234;None;8;0;0.4939816000405699;554.3525461999234;None;;;;;;;;7;;;;;;;555.9437255999073;None;None;None;[];555.9437255999073;None;"['9', '9']";"[0.39108329999726266, 0.7270309999585152]";555.9437255999073;None;;;S11005;2021_Oct_22_1141;VideoMask;2021.1.2;120.13296322514311;
0.0;f;030_o_f_h_a.jpg;happy;9.0;happy_24.1ns.avi;happy;9.0;congruent;120.0;150.0;168.36256624020774;h_h;;;;;0;41;41;41;;;;;;;558.9437409999082;None;560.5518223999534;560.8684514999622;562.0602270999225;562.0769304999849;565.3267844999209;None;9;0;0.8476808000123128;565.3267844999209;None;;;;;;;;7;;;;;;;566.8766732999356;None;None;None;[];566.8766732999356;None;"['9', '9']";"[0.3221415000734851, 0.6422023000195622]";566.8766732999356;None;;;S11005;2021_Oct_22_1141;VideoMask;2021.1.2;120.13296322514311;
2.0;f;012_o_f_h_a.jpg;happy;9.0;sad_113.1.wmv;sad;7.0;incongruent;120.0;160.0;177.44551734737394;h_s;;;;;0;42;42;42;;;;;;;569.876875899965;None;571.5598081999924;571.8765249999706;573.009730199934;573.0263689999701;575.0183579999721;None;9;0;0.5161510999314487;575.0183579999721;None;;;;;;;;5;;;;;;;576.576449599932;None;None;None;[];576.576449599932;None;None;;576.576449599932;None;;;S11005;2021_Oct_22_1141;VideoMask;2021.1.2;120.13296322514311;
3.0;m;033_o_m_s_a.jpg;sad;7.0;sad_64.5ns.avi;sad;7.0;congruent;130.0;160.0;130.55717223801247;s_s;;;;;0;43;43;43;;;;;;;579.592960299924;None;580.8928109999979;581.2096150999423;582.3596610999666;582.3763022999046;588.9260747999651;None;8;0;0.5445650999899954;588.9260747999651;None;;;;;;;;2;;;;;;;590.4676417999435;None;None;None;[];590.4676417999435;None;"['7', '7', '7', '7']";"[0.7550803000340238, 0.9867371000582352, 1.2270532000111416, 1.9710598000092432]";590.4676417999435;None;;;S11005;2021_Oct_22_1141;VideoMask;2021.1.2;120.13296322514311;
7.0;m;027_o_m_h_a.jpg;happy;9.0;sad_117.1.wmv;sad;7.0;incongruent;120.0;160.0;181.28665202824095;h_s;;;;;0;44;44;44;;;;;;;593.4678642000072;None;595.1924478999572;595.5092029999942;596.6432287999196;596.6760081999237;598.6425968999974;None;9;0;0.6760494000045583;598.6425968999974;None;;;;;;;;3;;;;;;;600.4257664999459;None;None;None;[];600.4257664999459;None;"['7', '7', '7']";"[1.2609070000471547, 1.5168231000425294, 2.1170899000717327]";600.4257664999459;None;;;S11005;2021_Oct_22_1141;VideoMask;2021.1.2;120.13296322514311;
3.0;m;033_o_m_s_a.jpg;sad;7.0;happy_126.3.wmv;happy;9.0;incongruent;130.0;150.0;198.85252030535366;s_h;;;;;0;45;45;45;;;;;;;603.4429889000021;None;605.3088260999648;605.625491200015;606.7837258999934;606.800444399938;608.759016499971;None;8;0;0.9757507999893278;608.759016499971;None;;;;;;;;8;;;;;;;610.3087586999172;None;None;None;[];610.3087586999172;None;"['9', '9', '9']";"[1.7056977999163792, 1.969805600005202, 2.410085199982859]";610.3087586999172;None;;;S11005;2021_Oct_22_1141;VideoMask;2021.1.2;120.13296322514311;
3.0;m;033_o_m_h_a.jpg;happy;9.0;sad_136.1.wmv;sad;7.0;incongruent;120.0;160.0;176.97002883463455;h_s;;;;;0;46;46;46;;;;;;;613.308741100016;None;614.9834427000023;615.3002208999824;616.4253049999243;616.4417893999489;618.4335738999071;None;9;0;0.5891244999365881;618.4335738999071;None;;;;;;;;5;;;;;;;620.00850180001;None;None;None;[];620.00850180001;None;"['9', '7', '7']";"[1.7182009000098333, 2.286308499984443, 2.9498777999542654]";620.00850180001;None;;;S11005;2021_Oct_22_1141;VideoMask;2021.1.2;120.13296322514311;
9.0;f;019_m_f_h_a.jpg;happy;9.0;happy_10.1ns.avi;happy;9.0;congruent;120.0;150.0;157.2463435658512;h_h;;;;;0;47;47;47;;;;;;;623.0083906999789;None;624.5415955999633;624.8581402999116;626.025030199904;626.0417164999526;633.4332528999075;None;9;0;0.4613588999491185;633.4332528999075;None;;;;;;;;8;;;;;;;634.9830403999658;None;None;None;[];634.9830403999658;None;"['9', '9', '9', '9']";"[0.3195713000604883, 0.5754275000654161, 0.9355799000477418, 1.9518342000665143]";634.9830403999658;None;;;S11005;2021_Oct_22_1141;VideoMask;2021.1.2;120.13296322514311;
2.0;f;012_o_f_h_a.jpg;happy;9.0;happy_2.2ns.avi;happy;9.0;congruent;120.0;150.0;206.34800317295262;h_h;;;;;0;48;48;48;;;;;;;637.9829522999935;None;639.9494354999624;640.2662146999501;641.4329208999407;641.449546799995;653.6076240999391;None;8;0;0.46287889999803156;653.6076240999391;None;;;;;;;;6;;;;;;;655.3990040000062;None;None;None;[];655.3990040000062;None;"['9', '9', '7']";"[0.4159153000218794, 1.0718674999661744, 2.2638448999496177]";655.3990040000062;None;;;S11005;2021_Oct_22_1141;VideoMask;2021.1.2;120.13296322514311;
3.0;m;033_o_m_h_a.jpg;happy;9.0;happy_24.2ns.avi;happy;9.0;congruent;120.0;150.0;167.9423847659953;h_h;;;;;0;49;49;49;;;;;;;658.3990965000121;None;660.0072581999702;660.3238386999583;661.4822884999448;661.4989615000086;665.1822064999724;None;None;0;;665.1822064999724;None;;;;;;;;8;;;;;;;666.7319290000014;None;None;None;[];666.7319290000014;None;"['9', '9', '9']";"[0.6505979999201372, 1.5547090999316424, 2.0589207999873906]";666.7319290000014;None;;;S11005;2021_Oct_22_1141;VideoMask;2021.1.2;120.13296322514311;
1.0;f;021_o_f_s_a.jpg;sad;7.0;happy_61.2ns.avi;happy;9.0;incongruent;130.0;150.0;210.94664004826666;s_h;;;;;0;50;50;50;;;;;;;669.7319861999713;None;671.6902238999028;672.0068498000037;673.2402725999709;673.2576132999966;677.6819162999745;None;8;0;1.2446080999216065;677.6819162999745;None;;;;;;;;6;;;;;;;679.2317076999461;None;None;None;[];679.2317076999461;None;"['9', '9', '7']";"[0.9749998000916094, 1.4069443000480533, 1.7509027000050992]";679.2317076999461;None;;;S11005;2021_Oct_22_1141;VideoMask;2021.1.2;120.13296322514311;
4.0;m;004_o_m_s_a.jpg;sad;7.0;sad_2.4ns.avi;sad;7.0;congruent;130.0;160.0;153.02079367163634;s_s;;;;;0;51;51;51;;;;;;;682.2317988999421;None;683.7315880999668;684.0480727999238;685.2315952999052;685.2482433000114;693.139774799929;None;7;0;0.41892349999397993;693.139774799929;None;;;;;;;;3;;;;;;;694.6896221999777;None;None;None;[];694.6896221999777;None;"['7', '7']";"[0.6210560000035912, 0.8529879000270739]";694.6896221999777;None;;;S11005;2021_Oct_22_1141;VideoMask;2021.1.2;120.13296322514311;
8.0;m;008_y_m_h_a.jpg;happy;9.0;happy_1.2ns.avi;happy;9.0;congruent;120.0;150.0;210.98946429383824;h_h;;;;;0;52;52;52;;;;;;;697.6980696999235;None;699.6976385999005;700.0144439999713;701.1894612999167;701.2060252999654;713.9393142999616;None;9;0;0.49140719999559224;713.9393142999616;None;;;;;;;;7;;;;;;;715.4890024999622;None;None;None;[];715.4890024999622;None;"['9', '9', '9']";"[0.4937597999814898, 1.2936984000261873, 2.533521300065331]";715.4890024999622;None;;;S11005;2021_Oct_22_1141;VideoMask;2021.1.2;120.13296322514311;
2.0;f;012_o_f_s_a.jpg;sad;7.0;happy_52.2ns.avi;happy;9.0;incongruent;130.0;150.0;172.57202848318138;s_h;;;;;0;53;53;53;;;;;;;718.4888891999144;None;720.1219873999944;720.4387430999195;721.6221637999406;721.6388684000121;725.1220505000092;None;None;0;;725.1220505000092;None;;;;;;;;8;;;;;;;726.6720324999187;None;None;None;[];726.6720324999187;None;"['9', '9', '9']";"[1.3504383000545204, 1.6306327000493184, 1.9987426000880077]";726.6720324999187;None;;;S11005;2021_Oct_22_1141;VideoMask;2021.1.2;120.13296322514311;
9.0;f;019_m_f_s_a.jpg;sad;7.0;happy_61.1ns.avi;happy;9.0;incongruent;130.0;150.0;181.3003220572762;s_h;;;;;0;54;54;54;;;;;;;729.6802801999729;None;731.421876700013;731.7384457999142;732.8718791999854;732.8884648999665;740.2634223999921;None;7;0;0.45544670009985566;740.2634223999921;None;;;;;;;;7;;;;;;;741.8131961999461;None;None;None;[];741.8131961999461;None;"['9', '9', '7', '9']";"[1.2735865000868216, 1.8576439000898972, 2.5214862000430003, 2.921637700055726]";741.8131961999461;None;;;S11005;2021_Oct_22_1141;VideoMask;2021.1.2;120.13296322514311;
0.0;f;030_o_f_h_a.jpg;happy;9.0;sad_133.1.wmv;sad;7.0;incongruent;120.0;160.0;198.86251500867985;h_s;;;;;0;55;55;55;;;;;;;744.8214723999845;None;746.7047669999301;747.0213855999755;748.155181500013;748.1716485999059;750.154581299983;None;9;0;0.8760241999989375;750.154581299983;None;;;;;;;;3;;;;;;;751.7045551999472;None;None;None;[];751.7045551999472;None;"['7', '7']";"[0.4539515000069514, 0.7421315000392497]";751.7045551999472;None;;;S11005;2021_Oct_22_1141;VideoMask;2021.1.2;120.13296322514311;
0.0;f;040_y_f_h_a.jpg;happy;9.0;sad_128.2.wmv;sad;7.0;incongruent;120.0;160.0;206.10005857915363;h_s;;;;;0;56;56;56;;;;;;;754.7044839999871;None;756.6377508000005;756.9542916999198;758.1049024999375;758.1292477999814;760.0876556999283;None;9;0;0.535069000092335;760.0876556999283;None;;;;;;;;2;;;;;;;761.6958979999181;None;None;None;[];761.6958979999181;None;"['7', '7', '7', '7']";"[0.7506857000989839, 1.0389192000729963, 1.5027035000966862, 2.1589268000097945]";761.6958979999181;None;;;S11005;2021_Oct_22_1141;VideoMask;2021.1.2;120.13296322514311;
1.0;f;021_o_f_s_a.jpg;sad;7.0;sad_9.5ns.avi;sad;7.0;congruent;130.0;160.0;206.16642757875042;s_s;;;;;0;57;57;57;;;;;;;764.704276299919;None;766.6289950999198;766.9457319999347;768.0791264999425;768.0957691000076;773.8207527999766;None;7;0;0.6019606000045314;773.8207527999766;None;;;;;;;;2;;;;;;;775.3788654999807;None;None;None;[];775.3788654999807;None;"['7', '7', '7']";"[0.26778370002284646, 0.5077931999694556, 1.172000200022012]";775.3788654999807;None;;;S11005;2021_Oct_22_1141;VideoMask;2021.1.2;120.13296322514311;
1.0;f;021_o_f_h_a.jpg;happy;9.0;happy_12.1ns.avi;happy;9.0;congruent;120.0;150.0;132.59080005900228;h_h;;;;;0;58;58;58;;;;;;;778.3787444999907;None;779.7285777999787;780.0452954999637;781.2785123999929;781.2951870999532;788.7951524999226;None;None;0;;788.7951524999226;None;;;;;;;;6;;;;;;;790.3451016999315;None;None;None;[];790.3451016999315;None;"['7', '9', '9', '9', '9']";"[0.16543750010896474, 0.6697210000129417, 0.8774993000552058, 1.3015353000955656, 1.589573800098151]";790.3451016999315;None;;;S11005;2021_Oct_22_1141;VideoMask;2021.1.2;120.13296322514311;
3.0;m;013_y_m_s_a.jpg;sad;7.0;happy_56.2ns.avi;happy;9.0;incongruent;130.0;150.0;163.39234110935848;s_h;;;;;0;59;59;59;;;;;;;793.3534910999006;None;794.9198983999668;795.236482999986;796.4030555000063;796.4199378999183;801.39466729993;None;9;0;0.36407280003186315;801.39466729993;None;;;;;;;;6;;;;;;;802.9447239999427;None;None;None;[];802.9447239999427;None;"['9', '9', '9', '9']";"[1.2701217000139877, 1.6862441000994295, 2.28614139999263, 2.862048700102605]";802.9447239999427;None;;;S11005;2021_Oct_22_1141;VideoMask;2021.1.2;120.13296322514311;
;;;;;;;;;;;;;;;;;;;;;;;;;;;;;;;;;;;;;;;;;;;;;;;;;;;;;;;;;;;;;;;;;805.9446825999767;None;;;;;;
