primePerson;primeGender;prime;primeEmotion;corrAnsPrime;target;targetEmotion;corrAnsTar;Cond;ID_Primer;ID_Target;JitterTime;Condition;example.thisRepN;example.thisTrialN;example.thisN;example.thisIndex;study.thisRepN;study.thisTrialN;study.thisN;study.thisIndex;MR_trigger_time;MR_trigger_number;text_intro.started;text_intro.stopped;text_probe.started;text_probe.stopped;polygon_ISI.started;polygon_ISI.stopped;polygon.started;polygon.stopped;primerImage.started;primerImage.stopped;response.started;response.stopped;key_resp.keys;key_resp.corr;key_resp.rt;key_resp.started;key_resp.stopped;slider_Text.started;slider_Text.stopped;slider_ex.response;slider_ex.rt;slider_ex.history;slider_ex.started;slider_ex.stopped;Rating;slider_resp_response.keys;slider_resp_response.started;slider_resp_response.stopped;text_start.started;text_start.stopped;text_slider.started;text_slider.stopped;slider_stud.response;slider_stud.rt;slider_stud.history;slider_stud.started;slider_stud.stopped;slider_resp_study.keys;slider_resp_study.rt;slider_resp_study.started;slider_resp_study.stopped;text_ende.started;text_ende.stopped;participant;date;expName;psychopyVersion;frameRate;
1111;m;1111_m_m_h_a.jpg;happy;9;example_30.4ns.avi;neutral;7;incongruent;120.0;170.0;189.5874364012288;;0;0;0;0;;;;;175.41864069993608;1;175.49601030000485;177.49632179993205;177.49632179993205;None;179.51339500001632;None;181.77968429983594;182.0960752000101;183.2877045997884;183.30433219997212;187.5708963999059;None;8;0;1.5371462998446077;187.5708963999059;None;189.39588429988362;None;None;None;[];189.39588429988362;None;5;None;189.39588429988362;None;;;;;;;;;;;;;;;;S11309;2022_Mar_22_2058;VideoMask;2021.1.2;120.00062406387624;
1113;f;1113_y_f_s_a.jpg;sad;7;example_30.3ns.avi;neutral;7;incongruent;130.0;170.0;229.02432995836998;;0;1;1;1;;;;;;;;;;;192.41251789988019;None;194.5205862999428;194.83732049982063;195.97906769998372;195.99585850001313;197.9706228999421;None;8;0;0.9772779000923038;197.9706228999421;None;199.5205448998604;None;None;None;[];199.5205448998604;None;5;None;199.5205448998604;None;;;;;;;;;;;;;;;;S11309;2022_Mar_22_2058;VideoMask;2021.1.2;120.00062406387624;
9.0;f;019_m_f_h_a.jpg;happy;9.0;sad_115.1.wmv;sad;7.0;incongruent;120.0;160.0;128.09063432376465;h_s;;;;;0;0;0;0;;;;;;;203.55372159997933;None;204.82864700001664;205.14529879996553;206.27850259980187;206.2951429998502;208.27860249998048;None;7;0;1.2212532998528332;208.27860249998048;None;;;;;;;;4;;;;202.5454495998565;None;209.82852179999463;None;None;None;[];209.82852179999463;None;"['7', '7']";"[0.9434310998767614, 1.9195946999825537]";209.82852179999463;None;;;S11309;2022_Mar_22_2058;VideoMask;2021.1.2;120.00062406387624;
3.0;m;033_o_m_s_a.jpg;sad;7.0;sad_94.2ns.avi;sad;7.0;congruent;130.0;160.0;182.29120173647655;s_s;;;;;0;1;1;1;;;;;;;212.84528219979256;None;214.5616189998109;214.87841629981995;216.0950908998493;216.11170329991728;218.70337069989182;None;8;0;1.1405238998122513;218.70337069989182;None;;;;;;;;4;;;;;;220.27823129994795;None;None;None;[];220.27823129994795;None;['7'];[1.9498892000410706];220.27823129994795;None;;;S11309;2022_Mar_22_2058;VideoMask;2021.1.2;120.00062406387624;
8.0;m;008_y_m_h_a.jpg;happy;9.0;happy_26.1ns.avi;happy;9.0;congruent;120.0;150.0;155.9437854594882;h_h;;;;;0;2;2;2;;;;;;;223.28636499983259;None;224.77798189991154;225.09471859992482;226.36135789984837;226.3779998999089;228.21966599998996;None;9;0;0.8162000000011176;228.21966599998996;None;;;;;;;;8;;;;;;229.76958879991435;None;None;None;[];229.76958879991435;None;"['9', '9', '9']";"[0.954530700109899, 1.2984807000029832, 1.7781682000495493]";229.76958879991435;None;;;S11309;2022_Mar_22_2058;VideoMask;2021.1.2;120.00062406387624;
0.0;f;040_y_f_h_a.jpg;happy;9.0;sad_138.1.wmv;sad;7.0;incongruent;120.0;160.0;133.99071306426532;h_s;;;;;0;3;3;3;;;;;;;232.76960149989463;None;234.08596109994687;234.40267119999044;235.55278879986145;235.5694216999691;237.53610099991783;None;7;0;1.1318667000159621;237.53610099991783;None;;;;;;;;5;;;;;;239.0860246999655;None;None;None;[];239.0860246999655;None;None;;239.0860246999655;None;;;S11309;2022_Mar_22_2058;VideoMask;2021.1.2;120.00062406387624;
8.0;f;028_y_f_s_a.jpg;sad;7.0;sad_64.2ns.avi;sad;7.0;congruent;130.0;160.0;229.88540597086478;s_s;;;;;0;4;4;4;;;;;;;242.1024356998969;None;244.26058939984068;244.57742779981345;245.71883079991676;245.74445289978758;256.71056369994767;None;7;0;0.5975430000107735;256.71056369994767;None;;;;;;;;2;;;;;;258.2603728999384;None;None;None;[];258.2603728999384;None;"['7', '7', '7', '7']";"[1.4237897000275552, 1.8877405999228358, 2.1674256999976933, 2.5355259000789374]";258.2603728999384;None;;;S11309;2022_Mar_22_2058;VideoMask;2021.1.2;120.00062406387624;
7.0;m;027_o_m_s_a.jpg;sad;7.0;sad_10.4ns.avi;sad;7.0;congruent;130.0;160.0;185.20129417468752;s_s;;;;;0;5;5;5;;;;;;;261.26861679996364;None;263.01015899982303;263.3268297999166;264.4938592999242;264.50997219979763;267.62679199990816;None;7;0;0.9610923000145704;267.62679199990816;None;;;;;;;;3;;;;;;269.17673269985244;None;None;None;[];269.17673269985244;None;"['7', '7']";"[0.6591763999313116, 1.2591869998723269]";269.17673269985244;None;;;S11309;2022_Mar_22_2058;VideoMask;2021.1.2;120.00062406387624;
2.0;f;012_o_f_s_a.jpg;sad;7.0;sad_7.5ns.avi;sad;7.0;congruent;130.0;160.0;220.27842655424388;s_s;;;;;0;6;6;6;;;;;;;272.1850242000073;None;274.2097508998122;274.5264937998727;275.7015155998524;275.71819019992836;278.451481499942;None;7;0;0.8484384999610484;278.451481499942;None;;;;;;;;5;;;;;;280.0013409999665;None;None;None;[];280.0013409999665;None;['7'];[0.9946501001249999];280.0013409999665;None;;;S11309;2022_Mar_22_2058;VideoMask;2021.1.2;120.00062406387624;
2.0;f;012_o_f_h_a.jpg;happy;9.0;happy_27.1ns.avi;happy;9.0;congruent;120.0;150.0;146.44967055810616;h_h;;;;;0;7;7;7;;;;;;;283.0013750998769;None;284.4094120999798;284.72608579997905;285.9260583999567;285.9428669998888;288.35115869995207;None;9;0;0.5087360001634806;288.35115869995207;None;;;;;;;;9;;;;;;289.9010379000101;None;None;None;[];289.9010379000101;None;"['9', '9', '9', '9', '9', '9']";"[0.6947414998430759, 0.9908338999375701, 1.2949444998521358, 1.622681199805811, 1.9988780999556184, 2.19898399990052]";289.9010379000101;None;;;S11309;2022_Mar_22_2058;VideoMask;2021.1.2;120.00062406387624;
8.0;f;028_y_f_h_a.jpg;happy;9.0;sad_119.1.wmv;sad;7.0;incongruent;120.0;160.0;148.71526953572538;h_s;;;;;0;8;8;8;;;;;;;292.9010013998486;None;294.34244739986025;294.6592656997964;295.7924709999934;295.8092122999951;297.85917589999735;None;7;0;1.1445792999584228;297.85917589999735;None;;;;;;;;3;;;;;;299.409076299984;None;None;None;[];299.409076299984;None;"['7', '7']";"[1.0746512999758124, 1.5628386999014765]";299.409076299984;None;;;S11309;2022_Mar_22_2058;VideoMask;2021.1.2;120.00062406387624;
6.0;m;016_y_m_s_a.jpg;sad;7.0;happy_60.4ns.avi;happy;9.0;incongruent;130.0;150.0;126.02367393611817;s_h;;;;;0;9;9;9;;;;;;;302.40908059990034;None;303.675511199981;303.99222879996523;305.1426754000131;305.1672457999084;310.917034199927;None;8;0;0.5348458997905254;310.917034199927;None;;;;;;;;5;;;;;;312.46693889983;None;None;None;[];312.46693889983;None;None;;312.46693889983;None;;;S11309;2022_Mar_22_2058;VideoMask;2021.1.2;120.00062406387624;
9.0;f;019_m_f_s_a.jpg;sad;7.0;sad_8.4ns.avi;sad;7.0;congruent;130.0;160.0;171.6633093155257;s_s;;;;;0;10;10;10;;;;;;;315.5001313998364;None;317.1666598999873;317.483417699812;318.63380509987473;318.6584772998467;326.74983989982866;None;7;0;0.46197120007127523;326.74983989982866;None;;;;;;;;5;;;;;;328.2998231998645;None;None;None;[];328.2998231998645;None;"['7', '7']";"[0.5199191998690367, 2.544044699985534]";328.2998231998645;None;;;S11309;2022_Mar_22_2058;VideoMask;2021.1.2;120.00062406387624;
4.0;m;004_o_m_h_a.jpg;happy;9.0;happy_1.1ns.avi;happy;9.0;congruent;120.0;150.0;203.50057144619865;h_h;;;;;0;11;11;11;;;;;;;331.2997692998033;None;333.2578423998784;333.57468319986947;334.699644099921;334.7162497998215;349.1908336998895;None;8;0;0.5972667001187801;349.1908336998895;None;;;;;;;;5;;;;;;350.94078379985876;None;None;None;[];350.94078379985876;None;None;;350.94078379985876;None;;;S11309;2022_Mar_22_2058;VideoMask;2021.1.2;120.00062406387624;
7.0;m;027_o_m_h_a.jpg;happy;9.0;happy_20.1ns.avi;happy;9.0;congruent;120.0;150.0;152.91127178874285;h_h;;;;;0;12;12;12;;;;;;;353.9572479999624;None;355.43223019992;355.7487904999871;356.9239775999449;356.9406015998684;359.8988844999112;None;8;0;1.1051453000400215;359.8988844999112;None;;;;;;;;6;;;;;;361.44857739983127;None;None;None;[];361.44857739983127;None;['9'];[1.3233688999898732];361.44857739983127;None;;;S11309;2022_Mar_22_2058;VideoMask;2021.1.2;120.00062406387624;
0.0;f;040_y_f_s_a.jpg;sad;7.0;sad_94.3ns.avi;sad;7.0;congruent;130.0;160.0;155.27414203894395;s_s;;;;;0;13;13;13;;;;;;;364.4571486997884;None;365.94853219995275;366.2652280998882;367.40660719992593;367.423579499824;370.02363909990527;None;7;0;0.5482509001158178;370.02363909990527;None;;;;;;;;4;;;;;;371.715110699879;None;None;None;[];371.715110699879;None;['7'];[1.216820899862796];371.715110699879;None;;;S11309;2022_Mar_22_2058;VideoMask;2021.1.2;120.00062406387624;
0.0;f;030_o_f_s_a.jpg;sad;7.0;sad_68.1ns.avi;sad;7.0;congruent;130.0;160.0;158.9411396037211;s_s;;;;;0;14;14;14;;;;;;;374.7234124999959;None;376.26481659989804;376.58156309998594;377.74832579982467;377.76496379985474;385.1397269999143;None;7;0;0.5681861999910325;385.1397269999143;None;;;;;;;;4;;;;;;386.68969379994087;None;None;None;[];386.68969379994087;None;['7'];[0.5143466000445187];386.68969379994087;None;;;S11309;2022_Mar_22_2058;VideoMask;2021.1.2;120.00062406387624;
0.0;f;030_o_f_h_a.jpg;happy;9.0;sad_127.1.wmv;sad;7.0;incongruent;120.0;160.0;180.59976631384873;h_s;;;;;0;15;15;15;;;;;;;389.69807299994864;None;391.4060670998879;391.7228776998818;392.8478985999245;392.86448209988885;394.85607579979114;None;None;0;;394.85607579979114;None;;;;;;;;5;;;;;;396.405868700007;None;None;None;[];396.405868700007;None;None;;396.405868700007;None;;;S11309;2022_Mar_22_2058;VideoMask;2021.1.2;120.00062406387624;
8.0;m;008_y_m_s_a.jpg;sad;7.0;happy_133.3.wmv;happy;9.0;incongruent;130.0;150.0;152.577966552593;s_h;;;;;0;16;16;16;;;;;;;399.4309666999616;None;400.9140875998419;401.2308008999098;402.3641011000145;402.3812020998448;404.3726123999804;None;9;0;1.175078900065273;404.3726123999804;None;;;;;;;;5;;;;;;405.9307236999739;None;None;None;[];405.9307236999739;None;None;;405.9307236999739;None;;;S11309;2022_Mar_22_2058;VideoMask;2021.1.2;120.00062406387624;
3.0;m;033_o_m_h_a.jpg;happy;9.0;sad_128.1.wmv;sad;7.0;incongruent;120.0;160.0;171.0492454518585;h_s;;;;;0;17;17;17;;;;;;;408.9554821997881;None;410.5971438998822;410.9138215999119;412.0471313998569;412.0637355998624;414.0471679000184;None;8;0;0.7887699999846518;414.0471679000184;None;;;;;;;;5;;;;;;415.58872130000964;None;None;None;[];415.58872130000964;None;None;;415.58872130000964;None;;;S11309;2022_Mar_22_2058;VideoMask;2021.1.2;120.00062406387624;
1.0;f;021_o_f_h_a.jpg;happy;9.0;sad_116.1.wmv;sad;7.0;incongruent;120.0;160.0;184.06847610053055;h_s;;;;;0;18;18;18;;;;;;;418.60515959979966;None;420.3551685998682;420.67190149985254;421.8056270999368;421.8305889000185;423.80517319985665;None;7;0;0.6547421000432223;423.80517319985665;None;;;;;;;;5;;;;;;425.3550541999284;None;None;None;[];425.3550541999284;None;None;;425.3550541999284;None;;;S11309;2022_Mar_22_2058;VideoMask;2021.1.2;120.00062406387624;
4.0;m;004_o_m_s_a.jpg;sad;7.0;happy_28.1ns.avi;happy;9.0;incongruent;130.0;150.0;157.40741103039684;s_h;;;;;0;19;19;19;;;;;;;428.38004560000263;None;429.8881877998356;430.20490749995224;431.41304549993947;431.42991809989326;435.72990899998695;None;8;0;0.3859854000620544;435.72990899998695;None;;;;;;;;6;;;;;;437.27974509983324;None;None;None;[];437.27974509983324;None;['9'];[0.3321691998280585];437.27974509983324;None;;;S11309;2022_Mar_22_2058;VideoMask;2021.1.2;120.00062406387624;
8.0;f;028_y_f_s_a.jpg;sad;7.0;happy_122.3.wmv;happy;9.0;incongruent;130.0;150.0;171.8670540936116;s_h;;;;;0;20;20;20;;;;;;;440.2797524998896;None;441.9211698998697;442.2378934000153;443.37183919991367;443.39629870001227;445.3711496000178;None;8;0;0.6167376998346299;445.3711496000178;None;;;;;;;;5;;;;;;446.9211152999196;None;None;None;[];446.9211152999196;None;None;;446.9211152999196;None;;;S11309;2022_Mar_22_2058;VideoMask;2021.1.2;120.00062406387624;
8.0;m;008_y_m_s_a.jpg;sad;7.0;sad_6.5ns.avi;sad;7.0;congruent;130.0;160.0;170.39333839271438;s_s;;;;;0;21;21;21;;;;;;;449.9459740999155;None;451.57913489989005;451.89585369988345;453.0798896998167;453.12087779981084;458.03741170000285;None;7;0;0.5664772000163794;458.03741170000285;None;;;;;;;;4;;;;;;459.98735949979164;None;None;None;[];459.98735949979164;None;['7'];[0.8164836999494582];459.98735949979164;None;;;S11309;2022_Mar_22_2058;VideoMask;2021.1.2;120.00062406387624;
8.0;f;028_y_f_h_a.jpg;happy;9.0;happy_23.1ns.avi;happy;9.0;congruent;120.0;150.0;225.70986890587952;h_h;;;;;0;22;22;22;;;;;;;462.98741179984063;None;465.0621418999508;465.3786896998063;466.5202530999668;466.537125099916;471.0870895998087;None;8;0;0.7247193998191506;471.0870895998087;None;;;;;;;;6;;;;;;472.63696899986826;None;None;None;[];472.63696899986826;None;['9'];[0.4788186999503523];472.63696899986826;None;;;S11309;2022_Mar_22_2058;VideoMask;2021.1.2;120.00062406387624;
8.0;m;008_y_m_h_a.jpg;happy;9.0;sad_111.1.wmv;sad;7.0;incongruent;120.0;160.0;152.63076835312847;h_s;;;;;0;23;23;23;;;;;;;475.6452838999685;None;477.12006290000863;477.43675419990905;478.57823999994434;478.59506959980354;480.5700014999602;None;7;0;0.4098382000811398;480.5700014999602;None;;;;;;;;4;;;;;;482.11999919987284;None;None;None;[];482.11999919987284;None;['7'];[0.6518034001346678];482.11999919987284;None;;;S11309;2022_Mar_22_2058;VideoMask;2021.1.2;120.00062406387624;
0.0;f;040_y_f_s_a.jpg;sad;7.0;sad_67.2ns.avi;sad;7.0;congruent;130.0;160.0;220.9892697323079;s_s;;;;;0;24;24;24;;;;;;;485.1283817999065;None;487.186358399922;487.50307089998387;488.7032002999913;488.71988249989226;497.86122839991003;None;8;0;0.5986239998601377;497.86122839991003;None;;;;;;;;5;;;;;;499.41112189996056;None;None;None;[];499.41112189996056;None;None;;499.41112189996056;None;;;S11309;2022_Mar_22_2058;VideoMask;2021.1.2;120.00062406387624;
8.0;m;008_y_m_s_a.jpg;sad;7.0;happy_29.1ns.avi;happy;9.0;incongruent;130.0;150.0;120.0316142834122;s_h;;;;;0;25;25;25;;;;;;;502.42759939981624;None;503.62755809980445;503.94424219988286;505.0860220999457;505.1026563998312;507.7693247999996;None;8;0;0.5385318000335246;507.7693247999996;None;;;;;;;;6;;;;;;509.32750259991735;None;None;None;[];509.32750259991735;None;['9'];[0.30829739989712834];509.32750259991735;None;;;S11309;2022_Mar_22_2058;VideoMask;2021.1.2;120.00062406387624;
6.0;m;016_y_m_s_a.jpg;sad;7.0;sad_8.3ns.avi;sad;7.0;congruent;130.0;160.0;152.85371098242734;s_s;;;;;0;26;26;26;;;;;;;512.327509699855;None;513.8190595998894;514.1357408999465;515.2937434997875;515.3104308999609;523.0271875998005;None;7;0;0.6807101999875158;523.0271875998005;None;;;;;;;;4;;;;;;524.576992199989;None;None;None;[];524.576992199989;None;['7'];[0.9947152999229729];524.576992199989;None;;;S11309;2022_Mar_22_2058;VideoMask;2021.1.2;120.00062406387624;
6.0;m;016_y_m_h_a.jpg;happy;9.0;sad_114.1.wmv;sad;7.0;incongruent;120.0;160.0;136.20550699298644;h_s;;;;;0;27;27;27;;;;;;;527.5770183999557;None;528.926731399959;529.24349969998;530.376862199977;530.3934665999841;532.3766913998406;None;7;0;0.5472205001860857;532.3766913998406;None;;;;;;;;2;;;;;;533.9183775999118;None;None;None;[];533.9183775999118;None;"['7', '7', '7']";"[0.42943169991485775, 0.741288400022313, 1.117434199899435]";533.9183775999118;None;;;S11309;2022_Mar_22_2058;VideoMask;2021.1.2;120.00062406387624;
7.0;m;027_o_m_s_a.jpg;sad;7.0;happy_117.3.wmv;happy;9.0;incongruent;130.0;150.0;215.61964028550614;s_h;;;;;0;28;28;28;;;;;;;536.9267773998436;None;538.9347893998493;539.2605546999257;540.4099407999311;540.4264308998827;542.3848285998683;None;8;0;0.8429711998905987;542.3848285998683;None;;;;;;;;6;;;;;;543.9347156998701;None;None;None;[];543.9347156998701;None;['9'];[0.3811359000392258];543.9347156998701;None;;;S11309;2022_Mar_22_2058;VideoMask;2021.1.2;120.00062406387624;
6.0;m;016_y_m_h_a.jpg;happy;9.0;happy_9.2ns.avi;happy;9.0;congruent;120.0;150.0;130.52042428082717;h_h;;;;;0;29;29;29;;;;;;;546.9431370999664;None;548.2344175998587;548.5512212999165;549.7096043999773;549.7261386997998;555.6094074000139;None;8;0;0.9147209001239389;555.6094074000139;None;;;;;;;;5;;;;;;557.159308000002;None;None;None;[];557.159308000002;None;['9'];[0.4524887998122722];557.159308000002;None;;;S11309;2022_Mar_22_2058;VideoMask;2021.1.2;120.00062406387624;
0.0;f;040_y_f_s_a.jpg;sad;7.0;happy_127.3.wmv;happy;9.0;incongruent;130.0;150.0;131.7195455720239;s_h;;;;;0;30;30;30;;;;;;;560.1598135998938;None;561.4590278998949;561.7757443999872;562.900898899883;562.9174793998245;564.9757712997962;None;8;0;1.1001700998749584;564.9757712997962;None;;;;;;;;5;;;;;;566.8673529999796;None;None;None;[];566.8673529999796;None;None;;566.8673529999796;None;;;S11309;2022_Mar_22_2058;VideoMask;2021.1.2;120.00062406387624;
0.0;f;030_o_f_s_a.jpg;sad;7.0;happy_125.3.wmv;happy;9.0;incongruent;130.0;150.0;220.51454909128134;s_h;;;;;0;31;31;31;;;;;;;569.8923237000126;None;571.942083099857;572.2588609999511;573.392113099806;573.4088280999567;575.392072699964;None;9;0;0.35565329995006323;575.392072699964;None;;;;;;;;9;;;;;;576.9420068999752;None;None;None;[];576.9420068999752;None;"['9', '9', '9', '9']";"[0.477942300029099, 0.7577588001731783, 0.9817069000564516, 1.2216038000769913]";576.9420068999752;None;;;S11309;2022_Mar_22_2058;VideoMask;2021.1.2;120.00062406387624;
0.0;f;030_o_f_s_a.jpg;sad;7.0;sad_64.3ns.avi;sad;7.0;congruent;130.0;160.0;165.78667874766072;s_s;;;;;0;32;32;32;;;;;;;579.9504384999163;None;581.5418159998953;581.8585731999483;583.0668134998996;583.0837506998796;587.9916784998495;None;8;0;0.6281077999155968;587.9916784998495;None;;;;;;;;4;;;;;;589.5416248999536;None;None;None;[];589.5416248999536;None;['7'];[0.43823510012589395];589.5416248999536;None;;;S11309;2022_Mar_22_2058;VideoMask;2021.1.2;120.00062406387624;
3.0;m;013_y_m_s_a.jpg;sad;7.0;sad_7.7ns.avi;sad;7.0;congruent;130.0;160.0;196.24182255763262;s_s;;;;;0;33;33;33;;;;;;;592.5416538999416;None;594.3830255998764;594.6997599999886;595.8495117998682;595.8665928998962;601.8328541999217;None;8;0;0.9709754998330027;601.8328541999217;None;;;;;;;;2;;;;;;603.3826687999535;None;None;None;[];603.3826687999535;None;"['7', '7', '7']";"[0.43707099999301136, 0.7891303000506014, 1.349180500023067]";603.3826687999535;None;;;S11309;2022_Mar_22_2058;VideoMask;2021.1.2;120.00062406387624;
3.0;m;013_y_m_h_a.jpg;happy;9.0;happy_9.1ns.avi;happy;9.0;congruent;120.0;150.0;165.1890303600433;h_h;;;;;0;34;34;34;;;;;;;606.3827851999085;None;607.9659398999065;608.2826753999107;609.4243764998391;609.4410017000046;612.640823799884;None;8;0;0.8670474998652935;612.640823799884;None;;;;;;;;6;;;;;;614.1908411998302;None;None;None;[];614.1908411998302;None;['9'];[0.3488888998981565];614.1908411998302;None;;;S11309;2022_Mar_22_2058;VideoMask;2021.1.2;120.00062406387624;
4.0;m;004_o_m_h_a.jpg;happy;9.0;sad_95.1ns.avi;sad;7.0;incongruent;120.0;160.0;152.68270002069931;h_s;;;;;0;35;35;35;;;;;;;617.1909673998598;None;618.6905433998909;619.0072903998662;620.173984499881;620.190688499948;628.9321837997995;None;7;0;0.40766240004450083;628.9321837997995;None;;;;;;;;1;;;;;;630.490302799968;None;None;None;[];630.490302799968;None;"['7', '7', '7', '7']";"[0.29737960011698306, 0.6813088001217693, 1.017350200098008, 1.8654770001303405]";630.490302799968;None;;;S11309;2022_Mar_22_2058;VideoMask;2021.1.2;120.00062406387624;
3.0;m;013_y_m_h_a.jpg;happy;9.0;sad_113.2.wmv;sad;7.0;incongruent;120.0;160.0;217.4973891947951;h_s;;;;;0;36;36;36;;;;;;;633.4903291999362;None;635.523425599793;635.8401316998061;636.9732839998323;636.9904465998989;638.9902806999162;None;7;0;1.4055641000159085;638.9902806999162;None;;;;;;;;4;;;;;;640.5566525999457;None;None;None;[];640.5566525999457;None;['7'];[0.7834085000213236];640.5566525999457;None;;;S11309;2022_Mar_22_2058;VideoMask;2021.1.2;120.00062406387624;
4.0;m;004_o_m_h_a.jpg;happy;9.0;happy_25.1ns.avi;happy;9.0;congruent;120.0;150.0;216.63044503818386;h_h;;;;;0;37;37;37;;;;;;;643.5650766999461;None;645.5647275999654;645.8814756998327;647.139821899822;647.156420199899;650.706604299834;None;9;0;0.36126130004413426;650.706604299834;None;;;;;;;;8;;;;;;652.3062196997926;None;None;None;[];652.3062196997926;None;"['9', '9', '9']";"[0.2734844000078738, 0.6094368998892605, 0.9216200998052955]";652.3062196997926;None;;;S11309;2022_Mar_22_2058;VideoMask;2021.1.2;120.00062406387624;
4.0;m;004_o_m_s_a.jpg;sad;7.0;happy_131.2.wmv;happy;9.0;incongruent;130.0;150.0;181.38407540847405;s_h;;;;;0;38;38;38;;;;;;;655.3063272999134;None;657.0226894998923;657.3394684998784;658.4895573998801;658.5060181999579;660.4727516998537;None;9;0;0.7710065999999642;660.4727516998537;None;;;;;;;;8;;;;;;662.6226254999638;None;None;None;[];662.6226254999638;None;"['9', '9', '9']";"[0.33297690004110336, 0.837057099910453, 1.2055017999373376]";662.6226254999638;None;;;S11309;2022_Mar_22_2058;VideoMask;2021.1.2;120.00062406387624;
0.0;f;040_y_f_h_a.jpg;happy;9.0;happy_24.3ns.avi;happy;9.0;congruent;120.0;150.0;213.25460698950434;h_h;;;;;0;39;39;39;;;;;;;665.6226099999622;None;667.5974107999355;667.9140835998114;669.0641543997917;669.0808516999241;670.9724564999342;None;9;0;1.0793490000069141;670.9724564999342;None;;;;;;;;6;;;;;;672.522304699989;None;None;None;[];672.522304699989;None;"['9', '9']";"[1.193548700073734, 1.7056395001709461]";672.522304699989;None;;;S11309;2022_Mar_22_2058;VideoMask;2021.1.2;120.00062406387624;
2.0;f;012_o_f_s_a.jpg;sad;7.0;happy_139.1.wmv;happy;9.0;incongruent;130.0;150.0;162.31500468041804;s_h;;;;;0;40;40;40;;;;;;;675.5306617999449;None;677.0887902998365;677.405556099955;678.5388416999485;678.5555131998844;680.5387549998704;None;9;0;1.448964700102806;680.5387549998704;None;;;;;;;;6;;;;;;682.0885009998456;None;None;None;[];682.0885009998456;None;['9'];[0.49927370017394423];682.0885009998456;None;;;S11309;2022_Mar_22_2058;VideoMask;2021.1.2;120.00062406387624;
0.0;f;030_o_f_h_a.jpg;happy;9.0;happy_24.1ns.avi;happy;9.0;congruent;120.0;150.0;168.36256624020774;h_h;;;;;0;41;41;41;;;;;;;685.097122799838;None;686.6967831999063;687.0135405999608;688.1552509998437;688.171926099807;691.471754899947;None;9;0;1.356138200033456;691.471754899947;None;;;;;;;;5;;;;;;693.0216959998943;None;None;None;[];693.0216959998943;None;None;;693.0216959998943;None;;;S11309;2022_Mar_22_2058;VideoMask;2021.1.2;120.00062406387624;
2.0;f;012_o_f_h_a.jpg;happy;9.0;sad_113.1.wmv;sad;7.0;incongruent;120.0;160.0;177.44551734737394;h_s;;;;;0;42;42;42;;;;;;;696.0465656998567;None;697.7297705998644;698.0465272997972;699.1796757997945;699.1964869999792;701.1798086999916;None;None;0;;701.1798086999916;None;;;;;;;;5;;;;;;702.8295746999793;None;None;None;[];702.8295746999793;None;None;;702.8295746999793;None;;;S11309;2022_Mar_22_2058;VideoMask;2021.1.2;120.00062406387624;
3.0;m;033_o_m_s_a.jpg;sad;7.0;sad_64.5ns.avi;sad;7.0;congruent;130.0;160.0;130.55717223801247;s_s;;;;;0;43;43;43;;;;;;;705.8546624998562;None;707.1545809998643;707.4712204998359;708.6713086999953;708.688558699796;715.187712199986;None;7;0;0.33590730000287294;715.187712199986;None;;;;;;;;1;;;;;;716.7376288999803;None;None;None;[];716.7376288999803;None;"['7', '7', '7', '7', '7']";"[0.3300130001734942, 0.7059315000660717, 1.0420010001398623, 1.3941776000428945, 1.8981880000792444]";716.7376288999803;None;;;S11309;2022_Mar_22_2058;VideoMask;2021.1.2;120.00062406387624;
7.0;m;027_o_m_h_a.jpg;happy;9.0;sad_117.1.wmv;sad;7.0;incongruent;120.0;160.0;181.28665202824095;h_s;;;;;0;44;44;44;;;;;;;719.7459249999374;None;721.4706967999227;721.7873939999845;722.921210099943;722.945651399903;724.9207182999235;None;None;0;;724.9207182999235;None;;;;;;;;5;;;;;;726.4706929000095;None;None;None;[];726.4706929000095;None;['7'];[0.045007800217717886];726.4706929000095;None;;;S11309;2022_Mar_22_2058;VideoMask;2021.1.2;120.00062406387624;
3.0;m;033_o_m_s_a.jpg;sad;7.0;happy_126.3.wmv;happy;9.0;incongruent;130.0;150.0;198.85252030535366;s_h;;;;;0;45;45;45;;;;;;;729.4705923998263;None;731.3287688000128;731.6454380999785;732.7786361000035;732.7954247999005;734.778771799989;None;8;0;0.9849345998372883;734.778771799989;None;;;;;;;;5;;;;;;736.3286324997898;None;None;None;[];736.3286324997898;None;None;;736.3286324997898;None;;;S11309;2022_Mar_22_2058;VideoMask;2021.1.2;120.00062406387624;
3.0;m;033_o_m_h_a.jpg;happy;9.0;sad_136.1.wmv;sad;7.0;incongruent;120.0;160.0;176.97002883463455;h_s;;;;;0;46;46;46;;;;;;;739.3618063000031;None;741.036744899815;741.3534956998192;742.4869009999093;742.503468999872;744.4868828000035;None;7;0;0.5968902001623064;744.4868828000035;None;;;;;;;;4;;;;;;746.0367305998225;None;None;None;[];746.0367305998225;None;"['7', '7']";"[0.5109977999236435, 1.0311076000798494]";746.0367305998225;None;;;S11309;2022_Mar_22_2058;VideoMask;2021.1.2;120.00062406387624;
9.0;f;019_m_f_h_a.jpg;happy;9.0;happy_10.1ns.avi;happy;9.0;congruent;120.0;150.0;157.2463435658512;h_h;;;;;0;47;47;47;;;;;;;749.0365404998884;None;750.5530758998357;750.8698008998763;752.0615625998471;752.0781483999453;759.4613151999656;None;8;0;0.6305088000372052;759.4613151999656;None;;;;;;;;5;;;;;;761.0112391000148;None;None;None;[];761.0112391000148;None;None;;761.0112391000148;None;;;S11309;2022_Mar_22_2058;VideoMask;2021.1.2;120.00062406387624;
2.0;f;012_o_f_h_a.jpg;happy;9.0;happy_2.2ns.avi;happy;9.0;congruent;120.0;150.0;206.34800317295262;h_h;;;;;0;48;48;48;;;;;;;764.0444740999956;None;766.0191946998239;766.3361299999524;767.4861314999871;767.502676300006;779.6692209998146;None;9;0;0.6144242000300437;779.6692209998146;None;;;;;;;;6;;;;;;781.2189408999402;None;None;None;[];781.2189408999402;None;['9'];[1.2967011998407543];781.2189408999402;None;;;S11309;2022_Mar_22_2058;VideoMask;2021.1.2;120.00062406387624;
3.0;m;033_o_m_h_a.jpg;happy;9.0;happy_24.2ns.avi;happy;9.0;congruent;120.0;150.0;167.9423847659953;h_h;;;;;0;49;49;49;;;;;;;784.2273221998475;None;785.8270530998707;786.1437328997999;787.3021294998471;787.3194068998564;791.0019779999275;None;9;0;0.34575729980133474;791.0019779999275;None;;;;;;;;8;;;;;;792.551930599846;None;None;None;[];792.551930599846;None;"['9', '9', '9']";"[0.340002000099048, 0.7317351000383496, 1.324179199989885]";792.551930599846;None;;;S11309;2022_Mar_22_2058;VideoMask;2021.1.2;120.00062406387624;
1.0;f;021_o_f_s_a.jpg;sad;7.0;happy_61.2ns.avi;happy;9.0;incongruent;130.0;150.0;210.94664004826666;s_h;;;;;0;50;50;50;;;;;;;795.5603130999953;None;797.5099033999722;797.8266248998698;798.9933824997861;799.0100934999064;803.4849119000137;None;8;0;0.3587528998032212;803.4849119000137;None;;;;;;;;5;;;;;;805.0347418999299;None;None;None;[];805.0347418999299;None;None;;805.0347418999299;None;;;S11309;2022_Mar_22_2058;VideoMask;2021.1.2;120.00062406387624;
4.0;m;004_o_m_s_a.jpg;sad;7.0;sad_2.4ns.avi;sad;7.0;congruent;130.0;160.0;153.02079367163634;s_s;;;;;0;51;51;51;;;;;;;808.0681689998601;None;809.5679842999671;809.8846212998033;811.0679779998027;811.0846657999791;818.9763075998053;None;7;0;0.2912198998965323;818.9763075998053;None;;;;;;;;4;;;;;;820.5260039998684;None;None;None;[];820.5260039998684;None;['7'];[0.4536542999558151];820.5260039998684;None;;;S11309;2022_Mar_22_2058;VideoMask;2021.1.2;120.00062406387624;
8.0;m;008_y_m_h_a.jpg;happy;9.0;happy_1.2ns.avi;happy;9.0;congruent;120.0;150.0;210.98946429383824;h_h;;;;;0;52;52;52;;;;;;;823.5260464998428;None;825.517351699993;825.8341634999961;826.9841938000172;827.0008079998661;839.7755445998628;None;8;0;0.44422919978387654;839.7755445998628;None;;;;;;;;5;;;;;;841.3336720999796;None;None;None;[];841.3336720999796;None;None;;841.3336720999796;None;;;S11309;2022_Mar_22_2058;VideoMask;2021.1.2;120.00062406387624;
2.0;f;012_o_f_s_a.jpg;sad;7.0;happy_52.2ns.avi;happy;9.0;incongruent;130.0;150.0;172.57202848318138;s_h;;;;;0;53;53;53;;;;;;;844.3669936999213;None;845.9917752000038;846.3085605998058;847.4752353997901;847.4918387997895;850.9917342998087;None;9;0;0.49984479998238385;850.9917342998087;None;;;;;;;;6;;;;;;852.5416898999829;None;None;None;[];852.5416898999829;None;['9'];[0.3498175998684019];852.5416898999829;None;;;S11309;2022_Mar_22_2058;VideoMask;2021.1.2;120.00062406387624;
9.0;f;019_m_f_s_a.jpg;sad;7.0;happy_61.1ns.avi;happy;9.0;incongruent;130.0;150.0;181.3003220572762;s_h;;;;;0;54;54;54;;;;;;;855.5416035999078;None;857.2747543998994;857.5914300999139;858.8331927999388;858.8498263999354;866.1165318998974;None;8;0;0.4071657999884337;866.1165318998974;None;;;;;;;;5;;;;;;867.6828836000059;None;None;None;[];867.6828836000059;None;None;;867.6828836000059;None;;;S11309;2022_Mar_22_2058;VideoMask;2021.1.2;120.00062406387624;
0.0;f;030_o_f_h_a.jpg;happy;9.0;sad_133.1.wmv;sad;7.0;incongruent;120.0;160.0;198.86251500867985;h_s;;;;;0;55;55;55;;;;;;;870.7078373997938;None;872.5659481999464;872.8826894999947;874.0077672998887;874.0243930998258;876.0159371998161;None;7;0;0.6517738997936249;876.0159371998161;None;;;;;;;;5;;;;;;877.5658332000021;None;None;None;[];877.5658332000021;None;None;;877.5658332000021;None;;;S11309;2022_Mar_22_2058;VideoMask;2021.1.2;120.00062406387624;
0.0;f;040_y_f_h_a.jpg;happy;9.0;sad_128.2.wmv;sad;7.0;incongruent;120.0;160.0;206.10005857915363;h_s;;;;;0;56;56;56;;;;;;;880.5907889998052;None;882.5157003998756;882.8323321999051;883.9738854998723;883.990708099911;885.9656257999595;None;7;0;0.8780507000628859;885.9656257999595;None;;;;;;;;5;;;;;;887.5155758999754;None;None;None;[];887.5155758999754;None;None;;887.5155758999754;None;;;S11309;2022_Mar_22_2058;VideoMask;2021.1.2;120.00062406387624;
1.0;f;021_o_f_s_a.jpg;sad;7.0;sad_9.5ns.avi;sad;7.0;congruent;130.0;160.0;206.16642757875042;s_s;;;;;0;57;57;57;;;;;;;890.5406330998521;None;892.4654159999918;892.7820214999374;893.9821202999447;893.9987637999002;899.6402065998409;None;7;0;0.5873020000290126;899.6402065998409;None;;;;;;;;4;;;;;;901.1901564998552;None;None;None;[];901.1901564998552;None;['7'];[0.8135977999772877];901.1901564998552;None;;;S11309;2022_Mar_22_2058;VideoMask;2021.1.2;120.00062406387624;
1.0;f;021_o_f_h_a.jpg;happy;9.0;happy_12.1ns.avi;happy;9.0;congruent;120.0;150.0;132.59080005900228;h_h;;;;;0;58;58;58;;;;;;;904.1985118999146;None;905.5232302998193;905.8399458997883;906.9983173999935;907.0147944998462;914.5898324998561;None;8;0;0.39780030003748834;914.5898324998561;None;;;;;;;;5;;;;;;916.1313657998107;None;None;None;[];916.1313657998107;None;None;;916.1313657998107;None;;;S11309;2022_Mar_22_2058;VideoMask;2021.1.2;120.00062406387624;
3.0;m;013_y_m_s_a.jpg;sad;7.0;happy_56.2ns.avi;happy;9.0;incongruent;130.0;150.0;163.39234110935848;s_h;;;;;0;59;59;59;;;;;;;919.1646207999438;None;920.7312453999184;921.047792499885;922.2724724998698;922.2901196000166;927.2059606998228;None;8;0;0.4215144000481814;927.2059606998228;None;;;;;;;;6;;;;;;928.7558552999981;None;None;None;[];928.7558552999981;None;['9'];[0.3756948998197913];928.7558552999981;None;;;S11309;2022_Mar_22_2058;VideoMask;2021.1.2;120.00062406387624;
;;;;;;;;;;;;;;;;;;;;;;;;;;;;;;;;;;;;;;;;;;;;;;;;;;;;;;;;;;;;;;;;931.764322699979;None;;;;;;
