primePerson;primeGender;prime;primeEmotion;corrAnsPrime;target;targetEmotion;corrAnsTar;Cond;ID_Primer;ID_Target;JitterTime;Condition;example.thisRepN;example.thisTrialN;example.thisN;example.thisIndex;study.thisRepN;study.thisTrialN;study.thisN;study.thisIndex;MR_trigger_time;MR_trigger_number;text_intro.started;text_intro.stopped;text_probe.started;text_probe.stopped;polygon_ISI.started;polygon_ISI.stopped;polygon.started;polygon.stopped;primerImage.started;primerImage.stopped;response.started;response.stopped;key_resp.keys;key_resp.corr;key_resp.started;key_resp.stopped;slider_Text.started;slider_Text.stopped;slider_ex.response;slider_ex.rt;slider_ex.history;slider_ex.started;slider_ex.stopped;Rating;slider_resp_response.keys;slider_resp_response.started;slider_resp_response.stopped;text_start.started;text_start.stopped;key_resp.rt;text_slider.started;text_slider.stopped;slider_stud.response;slider_stud.rt;slider_stud.history;slider_stud.started;slider_stud.stopped;slider_resp_study.keys;slider_resp_study.rt;slider_resp_study.started;slider_resp_study.stopped;text_ende.started;text_ende.stopped;participant;date;expName;psychopyVersion;frameRate;
1111;m;1111_m_m_h_a.jpg;happy;9;example_30.4ns.avi;neutral;7;incongruent;120.0;170.0;189.5874364012288;;0;0;0;0;;;;;26.966087399981916;1;27.04358349973336;29.04385989997536;29.04385989997536;None;31.060297899879515;None;33.28659939998761;33.601880399975926;34.76854979991913;34.78523199958727;39.11048939963803;None;None;0;39.11048939963803;None;40.668152399826795;None;None;None;[];40.668152399826795;None;5;None;40.668152399826795;None;;;;;;;;;;;;;;;;;S11502;2022_Jun_07_1802;VideoMask;2021.1.2;120.0416783408903;
1113;f;1113_y_f_s_a.jpg;sad;7;example_30.3ns.avi;neutral;7;incongruent;130.0;170.0;229.02432995836998;;0;1;1;1;;;;;;;;;;;43.6848619999364;None;45.801435499917716;46.11813509976491;47.25153459981084;47.26813889993355;49.25160039961338;None;None;0;49.25160039961338;None;50.80122709972784;None;None;None;[];50.80122709972784;None;5;None;50.80122709972784;None;;;;;;;;;;;;;;;;;S11502;2022_Jun_07_1802;VideoMask;2021.1.2;120.0416783408903;
9.0;f;019_m_f_h_a.jpg;happy;9.0;sad_115.1.wmv;sad;7.0;incongruent;120.0;160.0;128.09063432376465;h_s;;;;;0;0;0;0;;;;;;;54.83463149983436;None;56.10942529980093;56.42614909959957;57.559392999857664;57.57608549995348;59.576177299954;None;7;0;59.576177299954;None;;;;;;;;3;;;;53.826315799728036;None;0.8837946997955441;61.13442719960585;None;None;None;[];61.13442719960585;None;"['7', '7']";"[0.6216068998910487, 2.037625900004059]";61.13442719960585;None;;;S11502;2022_Jun_07_1802;VideoMask;2021.1.2;120.0416783408903;
3.0;m;033_o_m_s_a.jpg;sad;7.0;sad_94.2ns.avi;sad;7.0;congruent;130.0;160.0;182.29120173647655;s_s;;;;;0;1;1;1;;;;;;;64.13433039980009;None;65.8509523998946;66.16754099959508;67.33425929956138;67.35088459961116;69.99254199955612;None;7;0;69.99254199955612;None;;;;;;;;4;;;;;;0.7874372997321188;71.5424204999581;None;None;None;[];71.5424204999581;None;['7'];[0.797609300352633];71.5424204999581;None;;;S11502;2022_Jun_07_1802;VideoMask;2021.1.2;120.0416783408903;
8.0;m;008_y_m_h_a.jpg;happy;9.0;happy_26.1ns.avi;happy;9.0;congruent;120.0;150.0;155.9437854594882;h_h;;;;;0;2;2;2;;;;;;;74.5506364996545;None;76.03383699990809;76.35045969998464;77.51726669957861;77.53388019977137;79.47555559966713;None;9;0;79.47555559966713;None;;;;;;;;6;;;;;;0.5205300999805331;81.08371009957045;None;None;None;[];81.08371009957045;None;['9'];[0.45618450036272407];81.08371009957045;None;;;S11502;2022_Jun_07_1802;VideoMask;2021.1.2;120.0416783408903;
0.0;f;040_y_f_h_a.jpg;happy;9.0;sad_138.1.wmv;sad;7.0;incongruent;120.0;160.0;133.99071306426532;h_s;;;;;0;3;3;3;;;;;;;84.08381939958781;None;85.42522839969024;85.75028649996966;86.87533809989691;86.89194019977003;88.88367109978572;None;7;0;88.88367109978572;None;;;;;;;;4;;;;;;1.1202707001939416;90.46682539954782;None;None;None;[];90.46682539954782;None;['7'];[0.7613716996274889];90.46682539954782;None;;;S11502;2022_Jun_07_1802;VideoMask;2021.1.2;120.0416783408903;
8.0;f;028_y_f_s_a.jpg;sad;7.0;sad_64.2ns.avi;sad;7.0;congruent;130.0;160.0;229.88540597086478;s_s;;;;;0;4;4;4;;;;;;;93.475184999872;None;95.62483389955014;95.94160939985886;97.08332909969613;97.09995259996504;108.07463719975203;None;7;0;108.07463719975203;None;;;;;;;;3;;;;;;0.7855414999648929;109.62458750000224;None;None;None;[];109.62458750000224;None;"['7', '7']";"[0.37945959996432066, 0.57136519998312]";109.62458750000224;None;;;S11502;2022_Jun_07_1802;VideoMask;2021.1.2;120.0416783408903;
7.0;m;027_o_m_s_a.jpg;sad;7.0;sad_10.4ns.avi;sad;7.0;congruent;130.0;160.0;185.20129417468752;s_s;;;;;0;5;5;5;;;;;;;112.63295339979231;None;114.37432749988511;114.69098209962249;115.86604199977592;115.8827556995675;118.99109079968184;None;7;0;118.99109079968184;None;;;;;;;;3;;;;;;0.7408900000154972;120.54081559972838;None;None;None;[];120.54081559972838;None;"['7', '7']";"[0.439200300257653, 0.6153722000308335]";120.54081559972838;None;;;S11502;2022_Jun_07_1802;VideoMask;2021.1.2;120.0416783408903;
2.0;f;012_o_f_s_a.jpg;sad;7.0;sad_7.5ns.avi;sad;7.0;congruent;130.0;160.0;220.27842655424388;s_s;;;;;0;6;6;6;;;;;;;123.54092069994658;None;125.56562539981678;125.88231629971415;127.07385179959238;127.09053479973227;129.8072906997986;None;7;0;129.8072906997986;None;;;;;;;;3;;;;;;0.6448546000756323;131.4072371996008;None;None;None;[];131.4072371996008;None;"['7', '7']";"[0.2851677001453936, 0.6527416999451816]";131.4072371996008;None;;;S11502;2022_Jun_07_1802;VideoMask;2021.1.2;120.0416783408903;
2.0;f;012_o_f_h_a.jpg;happy;9.0;happy_27.1ns.avi;happy;9.0;congruent;120.0;150.0;146.44967055810616;h_h;;;;;0;7;7;7;;;;;;;134.40724279964343;None;135.8235906995833;136.14025619998574;137.34862770000473;137.36542409984395;139.7653196998872;None;9;0;139.7653196998872;None;;;;;;;;6;;;;;;0.5747676999308169;141.31528159976006;None;None;None;[];141.31528159976006;None;"['9', '9']";"[0.3127083000726998, 1.1848304001614451]";141.31528159976006;None;;;S11502;2022_Jun_07_1802;VideoMask;2021.1.2;120.0416783408903;
8.0;f;028_y_f_h_a.jpg;happy;9.0;sad_119.1.wmv;sad;7.0;incongruent;120.0;160.0;148.71526953572538;h_s;;;;;0;8;8;8;;;;;;;144.32367539964616;None;145.77336889971048;146.09004269959405;147.22341249976307;147.2401457997039;149.29024639958516;None;7;0;149.29024639958516;None;;;;;;;;2;;;;;;0.8178094001486897;150.8399183996953;None;None;None;[];150.8399183996953;None;"['7', '7', '7', '7']";"[0.3000369002111256, 0.46805489994585514, 0.7561280000954866, 1.052274300251156]";150.8399183996953;None;;;S11502;2022_Jun_07_1802;VideoMask;2021.1.2;120.0416783408903;
6.0;m;016_y_m_s_a.jpg;sad;7.0;happy_60.4ns.avi;happy;9.0;incongruent;130.0;150.0;126.02367393611817;s_h;;;;;0;9;9;9;;;;;;;153.83984759962186;None;155.09814989985898;155.41476630000398;156.54813709994778;156.56478859996423;162.3397854999639;None;9;0;162.3397854999639;None;;;;;;;;7;;;;;;0.4561735996976495;163.88956659985706;None;None;None;[];163.88956659985706;None;"['9', '9']";"[0.2984568001702428, 0.48231029976159334]";163.88956659985706;None;;;S11502;2022_Jun_07_1802;VideoMask;2021.1.2;120.0416783408903;
9.0;f;019_m_f_s_a.jpg;sad;7.0;sad_8.4ns.avi;sad;7.0;congruent;130.0;160.0;171.6633093155257;s_s;;;;;0;10;10;10;;;;;;;166.8895456995815;None;168.54768769955263;168.8643457996659;170.0060352999717;170.02270889980718;178.1307855998166;None;8;0;178.1307855998166;None;;;;;;;;5;;;;;;1.153314699884504;179.68070119991899;None;None;None;[];179.68070119991899;None;None;;179.68070119991899;None;;;S11502;2022_Jun_07_1802;VideoMask;2021.1.2;120.0416783408903;
4.0;m;004_o_m_h_a.jpg;happy;9.0;happy_1.1ns.avi;happy;9.0;congruent;120.0;150.0;203.50057144619865;h_h;;;;;0;11;11;11;;;;;;;182.71404249966145;None;184.680426299572;184.99715189961717;186.16397150000557;186.18045109976083;200.61357159959152;None;9;0;200.61357159959152;None;;;;;;;;7;;;;;;0.5744198001921177;202.16338449995965;None;None;None;[];202.16338449995965;None;"['9', '9']";"[0.35273499973118305, 0.5206737997941673]";202.16338449995965;None;;;S11502;2022_Jun_07_1802;VideoMask;2021.1.2;120.0416783408903;
7.0;m;027_o_m_h_a.jpg;happy;9.0;happy_20.1ns.avi;happy;9.0;congruent;120.0;150.0;152.91127178874285;h_h;;;;;0;12;12;12;;;;;;;205.17180799972266;None;206.64642499992624;206.96317129954696;208.10490849986672;208.12152229994535;211.11314909998327;None;9;0;211.11314909998327;None;;;;;;;;6;;;;;;0.467168599832803;212.66308189975098;None;None;None;[];212.66308189975098;None;"['9', '9']";"[0.28492889972403646, 1.5332454997114837]";212.66308189975098;None;;;S11502;2022_Jun_07_1802;VideoMask;2021.1.2;120.0416783408903;
0.0;f;040_y_f_s_a.jpg;sad;7.0;sad_94.3ns.avi;sad;7.0;congruent;130.0;160.0;155.27414203894395;s_s;;;;;0;13;13;13;;;;;;;215.6630781996064;None;217.14615589985624;217.4629121995531;218.62108699977398;218.63787049986422;221.22121849982068;None;8;0;221.22121849982068;None;;;;;;;;5;;;;;;0.3988266000524163;222.7710886998102;None;None;None;[];222.7710886998102;None;None;;222.7710886998102;None;;;S11502;2022_Jun_07_1802;VideoMask;2021.1.2;120.0416783408903;
0.0;f;030_o_f_s_a.jpg;sad;7.0;sad_68.1ns.avi;sad;7.0;congruent;130.0;160.0;158.9411396037211;s_s;;;;;0;14;14;14;;;;;;;225.79603119986132;None;227.33764919964597;227.65422139968723;228.78793039964512;228.8125451998785;236.2124547995627;None;7;0;236.2124547995627;None;;;;;;;;3;;;;;;0.6715595000423491;237.76219319971278;None;None;None;[];237.76219319971278;None;"['7', '7', '7', '7']";"[0.36184699973091483, 0.5457954998128116, 0.8098308998160064, 1.4101058999076486]";237.76219319971278;None;;;S11502;2022_Jun_07_1802;VideoMask;2021.1.2;120.0416783408903;
0.0;f;030_o_f_h_a.jpg;happy;9.0;sad_127.1.wmv;sad;7.0;incongruent;120.0;160.0;180.59976631384873;h_s;;;;;0;15;15;15;;;;;;;240.770488999784;None;242.48702969960868;242.80374199990183;243.92882789997384;243.94546809978783;245.9370004995726;None;7;0;245.9370004995726;None;;;;;;;;2;;;;;;0.9390914998948574;247.48700209986418;None;None;None;[];247.48700209986418;None;"['7', '7', '7']";"[0.3570428998209536, 0.5730189997702837, 0.7969445995986462]";247.48700209986418;None;;;S11502;2022_Jun_07_1802;VideoMask;2021.1.2;120.0416783408903;
8.0;m;008_y_m_s_a.jpg;sad;7.0;happy_133.3.wmv;happy;9.0;incongruent;130.0;150.0;152.577966552593;s_h;;;;;0;16;16;16;;;;;;;250.49540519993752;None;251.98673389991745;252.30344769963995;253.42855379963294;253.44508069986477;255.43683479959145;None;9;0;255.43683479959145;None;;;;;;;;7;;;;;;0.5192540003918111;256.9867031998001;None;None;None;[];256.9867031998001;None;"['9', '9']";"[1.9295439003035426, 2.2252620002254844]";256.9867031998001;None;;;S11502;2022_Jun_07_1802;VideoMask;2021.1.2;120.0416783408903;
3.0;m;033_o_m_h_a.jpg;happy;9.0;sad_128.1.wmv;sad;7.0;incongruent;120.0;160.0;171.0492454518585;h_s;;;;;0;17;17;17;;;;;;;259.98663249984384;None;261.61975469999015;261.936478999909;263.09457739954814;263.11133309965953;265.0698269996792;None;7;0;265.0698269996792;None;;;;;;;;3;;;;;;0.7504456997849047;266.6197632998228;None;None;None;[];266.6197632998228;None;"['7', '7']";"[0.28838369995355606, 1.0481434999965131]";266.6197632998228;None;;;S11502;2022_Jun_07_1802;VideoMask;2021.1.2;120.0416783408903;
1.0;f;021_o_f_h_a.jpg;happy;9.0;sad_116.1.wmv;sad;7.0;incongruent;120.0;160.0;184.06847610053055;h_s;;;;;0;18;18;18;;;;;;;269.61971409991384;None;271.3611144996248;271.67784259980544;272.8362882998772;272.85280039999634;274.81118289986625;None;7;0;274.81118289986625;None;;;;;;;;2;;;;;;0.3767146999016404;276.3609186997637;None;None;None;[];276.3609186997637;None;"['7', '7', '7', '7']";"[0.4110163999721408, 0.6349534001201391, 0.8510734001174569, 1.4750498002395034]";276.3609186997637;None;;;S11502;2022_Jun_07_1802;VideoMask;2021.1.2;120.0416783408903;
4.0;m;004_o_m_s_a.jpg;sad;7.0;happy_28.1ns.avi;happy;9.0;incongruent;130.0;150.0;157.40741103039684;s_h;;;;;0;19;19;19;;;;;;;279.3693309999071;None;280.91916189994663;281.23571899998933;282.3690471998416;282.38574679987505;286.76067199977115;None;9;0;286.76067199977115;None;;;;;;;;7;;;;;;0.3633031998760998;288.3107301997952;None;None;None;[];288.3107301997952;None;"['9', '9']";"[0.7095034997910261, 1.3574519995599985]";288.3107301997952;None;;;S11502;2022_Jun_07_1802;VideoMask;2021.1.2;120.0416783408903;
8.0;f;028_y_f_s_a.jpg;sad;7.0;happy_122.3.wmv;happy;9.0;incongruent;130.0;150.0;171.8670540936116;s_h;;;;;0;20;20;20;;;;;;;291.3190560997464;None;292.9604786997661;293.27718969993293;294.41871469980106;294.43545349966735;296.41031809989363;None;9;0;296.41031809989363;None;;;;;;;;8;;;;;;0.43371690018102527;297.9603945999406;None;None;None;[];297.9603945999406;None;"['9', '9', '9']";"[0.29955700039863586, 0.5796547001227736, 0.8517522001639009]";297.9603945999406;None;;;S11502;2022_Jun_07_1802;VideoMask;2021.1.2;120.0416783408903;
8.0;m;008_y_m_s_a.jpg;sad;7.0;sad_6.5ns.avi;sad;7.0;congruent;130.0;160.0;170.39333839271438;s_s;;;;;0;21;21;21;;;;;;;300.96035309974104;None;302.5934928995557;302.9101732997224;304.04353689961135;304.0603781999089;309.05173939978704;None;7;0;309.05173939978704;None;;;;;;;;3;;;;;;0.8323316997848451;310.6017353995703;None;None;None;[];310.6017353995703;None;"['7', '7']";"[0.4023825996555388, 0.7704149996861815]";310.6017353995703;None;;;S11502;2022_Jun_07_1802;VideoMask;2021.1.2;120.0416783408903;
8.0;f;028_y_f_h_a.jpg;happy;9.0;happy_23.1ns.avi;happy;9.0;congruent;120.0;150.0;225.70986890587952;h_h;;;;;0;22;22;22;;;;;;;313.6017326996662;None;315.9930983996019;316.3098094998859;317.5014912998304;317.51800119969994;322.0180882997811;None;9;0;322.0180882997811;None;;;;;;;;7;;;;;;0.5860146000050008;323.56786609999835;None;None;None;[];323.56786609999835;None;"['9', '9', '9']";"[0.4602250000461936, 0.8122479999437928, 1.7080510002560914]";323.56786609999835;None;;;S11502;2022_Jun_07_1802;VideoMask;2021.1.2;120.0416783408903;
8.0;m;008_y_m_h_a.jpg;happy;9.0;sad_111.1.wmv;sad;7.0;incongruent;120.0;160.0;152.63076835312847;h_s;;;;;0;23;23;23;;;;;;;326.5762480995618;None;328.05118179973215;328.3677584999241;329.50148979993537;329.5261369999498;331.5010676998645;None;7;0;331.5010676998645;None;;;;;;;;3;;;;;;0.5430781999602914;333.04271449986845;None;None;None;[];333.04271449986845;None;"['7', '7']";"[0.44947769958525896, 0.665323399938643]";333.04271449986845;None;;;S11502;2022_Jun_07_1802;VideoMask;2021.1.2;120.0416783408903;
0.0;f;040_y_f_s_a.jpg;sad;7.0;sad_67.2ns.avi;sad;7.0;congruent;130.0;160.0;220.9892697323079;s_s;;;;;0;24;24;24;;;;;;;336.050930199679;None;338.1090649999678;338.42579549970105;339.5923236999661;339.6091487999074;348.7838772996329;None;7;0;348.7838772996329;None;;;;;;;;4;;;;;;0.6443202998489141;350.3338281996548;None;None;None;[];350.3338281996548;None;['7'];[0.39035880006849766];350.3338281996548;None;;;S11502;2022_Jun_07_1802;VideoMask;2021.1.2;120.0416783408903;
8.0;m;008_y_m_s_a.jpg;sad;7.0;happy_29.1ns.avi;happy;9.0;incongruent;130.0;150.0;120.0316142834122;s_h;;;;;0;25;25;25;;;;;;;353.3338527996093;None;354.5335805998184;354.85030689975247;356.058348399587;356.0753425997682;358.6752560995519;None;9;0;358.6752560995519;None;;;;;;;;8;;;;;;0.5209803995676339;360.22520339954644;None;None;None;[];360.22520339954644;None;"['9', '9', '9']";"[0.49101309990510345, 0.6668198998086154, 0.9868848002515733]";360.22520339954644;None;;;S11502;2022_Jun_07_1802;VideoMask;2021.1.2;120.0416783408903;
6.0;m;016_y_m_s_a.jpg;sad;7.0;sad_8.3ns.avi;sad;7.0;congruent;130.0;160.0;152.85371098242734;s_s;;;;;0;26;26;26;;;;;;;363.23359179962426;None;364.71663219993934;365.03329399973154;366.19135169964284;366.20815599989146;373.9247569995932;None;7;0;373.9247569995932;None;;;;;;;;5;;;;;;1.27934779971838;375.4747287998907;None;None;None;[];375.4747287998907;None;None;;375.4747287998907;None;;;S11502;2022_Jun_07_1802;VideoMask;2021.1.2;120.0416783408903;
6.0;m;016_y_m_h_a.jpg;happy;9.0;sad_114.1.wmv;sad;7.0;incongruent;120.0;160.0;136.20550699298644;h_s;;;;;0;27;27;27;;;;;;;378.49964389996603;None;379.8411490996368;380.1578302998096;381.29120479989797;381.3078410997987;383.29119809996337;None;7;0;383.29119809996337;None;;;;;;;;4;;;;;;1.208926500286907;384.8410940999165;None;None;None;[];384.8410940999165;None;['7'];[0.4670357001014054];384.8410940999165;None;;;S11502;2022_Jun_07_1802;VideoMask;2021.1.2;120.0416783408903;
7.0;m;027_o_m_s_a.jpg;sad;7.0;happy_117.3.wmv;happy;9.0;incongruent;130.0;150.0;215.61964028550614;s_h;;;;;0;28;28;28;;;;;;;387.84943559998646;None;389.8491717996076;390.1658671996556;391.3242740998976;391.3407858996652;393.29923769971356;None;9;0;393.29923769971356;None;;;;;;;;7;;;;;;0.6089162998832762;394.8574525997974;None;None;None;[];394.8574525997974;None;"['9', '9', '9']";"[0.4187813000753522, 0.6026972997933626, 1.122683099936694]";394.8574525997974;None;;;S11502;2022_Jun_07_1802;VideoMask;2021.1.2;120.0416783408903;
6.0;m;016_y_m_h_a.jpg;happy;9.0;happy_9.2ns.avi;happy;9.0;congruent;120.0;150.0;130.52042428082717;h_h;;;;;0;29;29;29;;;;;;;397.86580069968477;None;399.165528499987;399.48223569989204;400.6489486997016;400.66561779985204;406.540490699932;None;9;0;406.540490699932;None;;;;;;;;8;;;;;;0.391782000195235;408.1070499997586;None;None;None;[];408.1070499997586;None;"['9', '9', '9']";"[0.345121200196445, 0.5370014002546668, 0.7370029003359377]";408.1070499997586;None;;;S11502;2022_Jun_07_1802;VideoMask;2021.1.2;120.0416783408903;
0.0;f;040_y_f_s_a.jpg;sad;7.0;happy_127.3.wmv;happy;9.0;incongruent;130.0;150.0;131.7195455720239;s_h;;;;;0;30;30;30;;;;;;;411.10695159994066;None;412.40681549999863;412.7235107999295;413.8568499996327;413.87354729976505;415.92359939962626;None;None;0;415.92359939962626;None;;;;;;;;5;;;;;;;417.4732607998885;None;None;None;[];417.4732607998885;None;None;;417.4732607998885;None;;;S11502;2022_Jun_07_1802;VideoMask;2021.1.2;120.0416783408903;
0.0;f;030_o_f_s_a.jpg;sad;7.0;happy_125.3.wmv;happy;9.0;incongruent;130.0;150.0;220.51454909128134;s_h;;;;;0;31;31;31;;;;;;;420.4898581998423;None;422.5398018998094;422.856525699608;423.9982272996567;424.0147183998488;425.9981464999728;None;8;0;425.9981464999728;None;;;;;;;;5;;;;;;0.8699926999397576;427.54811289999634;None;None;None;[];427.54811289999634;None;None;;427.54811289999634;None;;;S11502;2022_Jun_07_1802;VideoMask;2021.1.2;120.0416783408903;
0.0;f;030_o_f_s_a.jpg;sad;7.0;sad_64.3ns.avi;sad;7.0;congruent;130.0;160.0;165.78667874766072;s_s;;;;;0;32;32;32;;;;;;;430.5730515997857;None;432.1647045998834;432.4812224996276;433.62297569960356;433.63953549973667;438.61525299958885;None;7;0;438.61525299958885;None;;;;;;;;3;;;;;;0.6849964000284672;440.38104929961264;None;None;None;[];440.38104929961264;None;"['7', '7']";"[0.43910309998318553, 0.6951159997843206]";440.38104929961264;None;;;S11502;2022_Jun_07_1802;VideoMask;2021.1.2;120.0416783408903;
3.0;m;013_y_m_s_a.jpg;sad;7.0;sad_7.7ns.avi;sad;7.0;congruent;130.0;160.0;196.24182255763262;s_s;;;;;0;33;33;33;;;;;;;443.38114179996774;None;445.2308094999753;445.547503199894;446.722540399991;446.73916139965877;452.68056199979037;None;7;0;452.68056199979037;None;;;;;;;;3;;;;;;0.819649999961257;454.2223259997554;None;None;None;[];454.2223259997554;None;"['7', '7']";"[0.3736982000991702, 0.5337836998514831]";454.2223259997554;None;;;S11502;2022_Jun_07_1802;VideoMask;2021.1.2;120.0416783408903;
3.0;m;013_y_m_h_a.jpg;happy;9.0;happy_9.1ns.avi;happy;9.0;congruent;120.0;150.0;165.1890303600433;h_h;;;;;0;34;34;34;;;;;;;457.2223646999337;None;458.79700759984553;459.11373739968985;460.28126159962267;460.3054418996908;463.47218409972265;None;None;0;463.47218409972265;None;;;;;;;;7;;;;;;;465.2218397995457;None;None;None;[];465.2218397995457;None;"['9', '9']";"[0.5665402999147773, 1.4464020999148488]";465.2218397995457;None;;;S11502;2022_Jun_07_1802;VideoMask;2021.1.2;120.0416783408903;
4.0;m;004_o_m_h_a.jpg;happy;9.0;sad_95.1ns.avi;sad;7.0;incongruent;120.0;160.0;152.68270002069931;h_s;;;;;0;35;35;35;;;;;;;468.2218968998641;None;469.7216608999297;470.03840639954433;471.19673599954695;471.21347229974344;479.9634208995849;None;7;0;479.9634208995849;None;;;;;;;;3;;;;;;0.7367670997045934;481.5214209998958;None;None;None;[];481.5214209998958;None;"['7', '7']";"[0.330761699937284, 0.5467928000725806]";481.5214209998958;None;;;S11502;2022_Jun_07_1802;VideoMask;2021.1.2;120.0416783408903;
3.0;m;013_y_m_h_a.jpg;happy;9.0;sad_113.2.wmv;sad;7.0;incongruent;120.0;160.0;217.4973891947951;h_s;;;;;0;36;36;36;;;;;;;484.529756099917;None;486.5544819999486;486.8712240997702;488.0045109996572;488.021241299808;490.01286669960245;None;8;0;490.01286669960245;None;;;;;;;;4;;;;;;1.023242600262165;491.562812899705;None;None;None;[];491.562812899705;None;['7'];[1.393349299672991];491.562812899705;None;;;S11502;2022_Jun_07_1802;VideoMask;2021.1.2;120.0416783408903;
4.0;m;004_o_m_h_a.jpg;happy;9.0;happy_25.1ns.avi;happy;9.0;congruent;120.0;150.0;216.63044503818386;h_h;;;;;0;37;37;37;;;;;;;494.5628341999836;None;496.5624340996146;496.8792337998748;498.0625119996257;498.0792122995481;501.70435259956867;None;9;0;501.70435259956867;None;;;;;;;;6;;;;;;0.8598525002598763;503.2624649996869;None;None;None;[];503.2624649996869;None;['9'];[0.2538371002301574];503.2624649996869;None;;;S11502;2022_Jun_07_1802;VideoMask;2021.1.2;120.0416783408903;
4.0;m;004_o_m_s_a.jpg;sad;7.0;happy_131.2.wmv;happy;9.0;incongruent;130.0;150.0;181.38407540847405;s_h;;;;;0;38;38;38;;;;;;;506.26234779972583;None;507.97882069973275;508.29562989994884;509.43718389980495;509.45374989975244;511.4288646997884;None;None;0;511.4288646997884;None;;;;;;;;6;;;;;;;512.9788573998958;None;None;None;[];512.9788573998958;None;['9'];[1.1853505000472069];512.9788573998958;None;;;S11502;2022_Jun_07_1802;VideoMask;2021.1.2;120.0416783408903;
0.0;f;040_y_f_h_a.jpg;happy;9.0;happy_24.3ns.avi;happy;9.0;congruent;120.0;150.0;213.25460698950434;h_h;;;;;0;39;39;39;;;;;;;515.9787427997217;None;517.9452130999416;518.2619252000004;519.3951359000057;519.4123063995503;521.3202111995779;None;9;0;521.3202111995779;None;;;;;;;;6;;;;;;0.8598803002387285;522.8701740996912;None;None;None;[];522.8701740996912;None;"['9', '9']";"[0.31801450019702315, 1.1983990003354847]";522.8701740996912;None;;;S11502;2022_Jun_07_1802;VideoMask;2021.1.2;120.0416783408903;
2.0;f;012_o_f_s_a.jpg;sad;7.0;happy_139.1.wmv;happy;9.0;incongruent;130.0;150.0;162.31500468041804;s_h;;;;;0;40;40;40;;;;;;;525.8700289996341;None;527.4282524995506;527.7449696999975;528.8787666996941;528.9033163995482;530.8782676998526;None;9;0;530.8782676998526;None;;;;;;;;6;;;;;;0.5099688996560872;532.4282110999338;None;None;None;[];532.4282110999338;None;['9'];[0.22439130023121834];532.4282110999338;None;;;S11502;2022_Jun_07_1802;VideoMask;2021.1.2;120.0416783408903;
0.0;f;030_o_f_h_a.jpg;happy;9.0;happy_24.1ns.avi;happy;9.0;congruent;120.0;150.0;168.36256624020774;h_h;;;;;0;41;41;41;;;;;;;535.4371218997985;None;537.0446217996068;537.3613424999639;538.5696764998138;538.5863051996566;541.8279695999809;None;9;0;541.8279695999809;None;;;;;;;;6;;;;;;1.248235299717635;543.3778838999569;None;None;None;[];543.3778838999569;None;['9'];[0.5703628999181092];543.3778838999569;None;;;S11502;2022_Jun_07_1802;VideoMask;2021.1.2;120.0416783408903;
2.0;f;012_o_f_h_a.jpg;happy;9.0;sad_113.1.wmv;sad;7.0;incongruent;120.0;160.0;177.44551734737394;h_s;;;;;0;42;42;42;;;;;;;546.3860249998979;None;548.0692659998313;548.3859906997532;549.5196483996697;549.5443444997072;551.5193303995766;None;7;0;551.5193303995766;None;;;;;;;;3;;;;;;0.4849072997458279;553.0692480998114;None;None;None;[];553.0692480998114;None;"['7', '7']";"[0.28707310045138, 0.4789374000392854]";553.0692480998114;None;;;S11502;2022_Jun_07_1802;VideoMask;2021.1.2;120.0416783408903;
3.0;m;033_o_m_s_a.jpg;sad;7.0;sad_64.5ns.avi;sad;7.0;congruent;130.0;160.0;130.55717223801247;s_s;;;;;0;43;43;43;;;;;;;556.0776783996262;None;557.3689086996019;557.6856788997538;558.8606900000013;558.8774221995845;565.4030257998966;None;7;0;565.4030257998966;None;;;;;;;;2;;;;;;0.769123500213027;567.04383029975;None;None;None;[];567.04383029975;None;"['7', '7', '7']";"[0.2963932999409735, 0.5364712998270988, 0.8563675000332296]";567.04383029975;None;;;S11502;2022_Jun_07_1802;VideoMask;2021.1.2;120.0416783408903;
7.0;m;027_o_m_h_a.jpg;happy;9.0;sad_117.1.wmv;sad;7.0;incongruent;120.0;160.0;181.28665202824095;h_s;;;;;0;44;44;44;;;;;;;570.043733399827;None;571.7602266999893;572.0769775998779;573.2186211999506;573.2352976999246;575.210253899917;None;7;0;575.210253899917;None;;;;;;;;4;;;;;;1.2659060000441968;576.7518726997077;None;None;None;[];576.7518726997077;None;"['7', '7', '7']";"[0.4603575998917222, 0.8764050998724997, 1.4284296999685466]";576.7518726997077;None;;;S11502;2022_Jun_07_1802;VideoMask;2021.1.2;120.0416783408903;
3.0;m;033_o_m_s_a.jpg;sad;7.0;happy_126.3.wmv;happy;9.0;incongruent;130.0;150.0;198.85252030535366;s_h;;;;;0;45;45;45;;;;;;;579.7519077998586;None;581.6099259997718;581.9352909997106;583.0681953998283;583.0849895998836;585.0683630998246;None;9;0;585.0683630998246;None;;;;;;;;8;;;;;;0.9359095999971032;586.6181886997074;None;None;None;[];586.6181886997074;None;"['9', '9', '9', '9', '7']";"[0.4340490000322461, 0.8660730998963118, 1.4022548999637365, 1.8821282996796072, 2.6821735999546945]";586.6181886997074;None;;;S11502;2022_Jun_07_1802;VideoMask;2021.1.2;120.0416783408903;
3.0;m;033_o_m_h_a.jpg;happy;9.0;sad_136.1.wmv;sad;7.0;incongruent;120.0;160.0;176.97002883463455;h_s;;;;;0;46;46;46;;;;;;;589.6180667998269;None;591.2929685995914;591.6096627996303;592.7347336998209;592.7513373997062;594.7429632996209;None;7;0;594.7429632996209;None;;;;;;;;5;;;;;;1.117382099851966;596.2929014996625;None;None;None;[];596.2929014996625;None;None;;596.2929014996625;None;;;S11502;2022_Jun_07_1802;VideoMask;2021.1.2;120.0416783408903;
9.0;f;019_m_f_h_a.jpg;happy;9.0;happy_10.1ns.avi;happy;9.0;congruent;120.0;150.0;157.2463435658512;h_h;;;;;0;47;47;47;;;;;;;599.3177969995886;None;600.8426740998402;601.1594442999922;602.367710699793;602.3843709998764;609.750804499723;None;8;0;609.750804499723;None;;;;;;;;5;;;;;;0.7814877000637352;611.3008215995505;None;None;None;[];611.3008215995505;None;None;;611.3008215995505;None;;;S11502;2022_Jun_07_1802;VideoMask;2021.1.2;120.0416783408903;
2.0;f;012_o_f_h_a.jpg;happy;9.0;happy_2.2ns.avi;happy;9.0;congruent;120.0;150.0;206.34800317295262;h_h;;;;;0;48;48;48;;;;;;;614.3171758996323;None;616.2838282999583;616.6006572996266;617.7256632996723;617.7422816995531;629.9421060997993;None;9;0;629.9421060997993;None;;;;;;;;6;;;;;;0.7421149001456797;631.5001761997119;None;None;None;[];631.5001761997119;None;['9'];[0.36822629999369383];631.5001761997119;None;;;S11502;2022_Jun_07_1802;VideoMask;2021.1.2;120.0416783408903;
3.0;m;033_o_m_h_a.jpg;happy;9.0;happy_24.2ns.avi;happy;9.0;congruent;120.0;150.0;167.9423847659953;h_h;;;;;0;49;49;49;;;;;;;634.5001492998563;None;636.1165870996192;636.4333491995931;637.5833983998746;637.5999601995572;641.2915202998556;None;9;0;641.2915202998556;None;;;;;;;;6;;;;;;0.8326355000026524;642.8415096998215;None;None;None;[];642.8415096998215;None;['9'];[0.3226995002478361];642.8415096998215;None;;;S11502;2022_Jun_07_1802;VideoMask;2021.1.2;120.0416783408903;
1.0;f;021_o_f_s_a.jpg;sad;7.0;happy_61.2ns.avi;happy;9.0;incongruent;130.0;150.0;210.94664004826666;s_h;;;;;0;50;50;50;;;;;;;645.8415061999112;None;647.7912678997964;648.1078880997375;649.3419535998255;649.3660879996605;653.7662757998332;None;8;0;653.7662757998332;None;;;;;;;;5;;;;;;0.39800090016797185;655.3161114999093;None;None;None;[];655.3161114999093;None;None;;655.3161114999093;None;;;S11502;2022_Jun_07_1802;VideoMask;2021.1.2;120.0416783408903;
4.0;m;004_o_m_s_a.jpg;sad;7.0;sad_2.4ns.avi;sad;7.0;congruent;130.0;160.0;153.02079367163634;s_s;;;;;0;51;51;51;;;;;;;658.3325018999167;None;659.8240844998509;660.1408304995857;661.3159507997334;661.33319819998;669.2324738996103;None;7;0;669.2324738996103;None;;;;;;;;3;;;;;;0.915809900034219;670.7822976997122;None;None;None;[];670.7822976997122;None;"['7', '7']";"[0.4220060002990067, 0.630131000187248]";670.7822976997122;None;;;S11502;2022_Jun_07_1802;VideoMask;2021.1.2;120.0416783408903;
8.0;m;008_y_m_h_a.jpg;happy;9.0;happy_1.2ns.avi;happy;9.0;congruent;120.0;150.0;210.98946429383824;h_h;;;;;0;52;52;52;;;;;;;673.7822680999525;None;675.7736162999645;676.099010899663;677.2238492998295;677.2404506998137;690.0150198996998;None;9;0;690.0150198996998;None;;;;;;;;7;;;;;;0.4213048997335136;691.5649749999866;None;None;None;[];691.5649749999866;None;"['9', '9', '9']";"[0.583241400308907, 0.7433230001479387, 2.6953167002648115]";691.5649749999866;None;;;S11502;2022_Jun_07_1802;VideoMask;2021.1.2;120.0416783408903;
2.0;f;012_o_f_s_a.jpg;sad;7.0;happy_52.2ns.avi;happy;9.0;incongruent;130.0;150.0;172.57202848318138;s_h;;;;;0;53;53;53;;;;;;;694.5650106999092;None;696.1896977997385;696.5064307996072;697.7062547998503;697.7229587999173;701.1898281998001;None;8;0;701.1898281998001;None;;;;;;;;5;;;;;;0.7586958999745548;702.739554299973;None;None;None;[];702.739554299973;None;None;;702.739554299973;None;;;S11502;2022_Jun_07_1802;VideoMask;2021.1.2;120.0416783408903;
9.0;f;019_m_f_s_a.jpg;sad;7.0;happy_61.1ns.avi;happy;9.0;incongruent;130.0;150.0;181.3003220572762;s_h;;;;;0;54;54;54;;;;;;;705.764432199765;None;707.5143510997295;707.8310036999173;709.031493099872;709.0564399999566;716.3560903999023;None;8;0;716.3560903999023;None;;;;;;;;6;;;;;;0.40846629999578;717.9141744999215;None;None;None;[];717.9141744999215;None;"['9', '9']";"[0.9940689001232386, 1.7461816002614796]";717.9141744999215;None;;;S11502;2022_Jun_07_1802;VideoMask;2021.1.2;120.0416783408903;
0.0;f;030_o_f_h_a.jpg;happy;9.0;sad_133.1.wmv;sad;7.0;incongruent;120.0;160.0;198.86251500867985;h_s;;;;;0;55;55;55;;;;;;;720.9142478997819;None;722.7722099996172;723.0889186998829;724.2389799999073;724.255644199904;726.230502799619;None;7;0;726.230502799619;None;;;;;;;;3;;;;;;0.7577173002064228;727.7806127998047;None;None;None;[];727.7806127998047;None;"['7', '7']";"[0.39150770008563995, 0.5677033998072147]";727.7806127998047;None;;;S11502;2022_Jun_07_1802;VideoMask;2021.1.2;120.0416783408903;
0.0;f;040_y_f_h_a.jpg;happy;9.0;sad_128.2.wmv;sad;7.0;incongruent;120.0;160.0;206.10005857915363;h_s;;;;;0;56;56;56;;;;;;;730.7888536998071;None;732.7219325997867;733.038633399643;734.1719194999896;734.1969222999178;736.1720255999826;None;7;0;736.1720255999826;None;;;;;;;;3;;;;;;0.7523894999176264;737.7219262998551;None;None;None;[];737.7219262998551;None;"['7', '7']";"[0.5064015001989901, 0.6582770003005862]";737.7219262998551;None;;;S11502;2022_Jun_07_1802;VideoMask;2021.1.2;120.0416783408903;
1.0;f;021_o_f_s_a.jpg;sad;7.0;sad_9.5ns.avi;sad;7.0;congruent;130.0;160.0;206.16642757875042;s_s;;;;;0;57;57;57;;;;;;;740.7219014996663;None;742.6381157999858;742.9549979995936;744.1134294997901;744.1300351996906;749.8132355995476;None;7;0;749.8132355995476;None;;;;;;;;3;;;;;;0.6552547998726368;751.3631700999103;None;None;None;[];751.3631700999103;None;"['7', '7', '7']";"[0.38521230034530163, 0.5610138000920415, 1.0971770002506673]";751.3631700999103;None;;;S11502;2022_Jun_07_1802;VideoMask;2021.1.2;120.0416783408903;
1.0;f;021_o_f_h_a.jpg;happy;9.0;happy_12.1ns.avi;happy;9.0;congruent;120.0;150.0;132.59080005900228;h_h;;;;;0;58;58;58;;;;;;;754.3715193998069;None;755.7046728995629;756.0212635998614;757.1877751997672;757.204571899958;764.7711908998899;None;9;0;764.7711908998899;None;;;;;;;;5;;;;;;1.177224799990654;766.3374688997865;None;None;None;[];766.3374688997865;None;"['9', '7']";"[1.130885699763894, 2.802977899555117]";766.3374688997865;None;;;S11502;2022_Jun_07_1802;VideoMask;2021.1.2;120.0416783408903;
3.0;m;013_y_m_s_a.jpg;sad;7.0;happy_56.2ns.avi;happy;9.0;incongruent;130.0;150.0;163.39234110935848;s_h;;;;;0;59;59;59;;;;;;;769.3375830999576;None;770.9040975999087;771.2291423999704;772.3956846999936;772.4123938996345;777.3872805996798;None;9;0;777.3872805996798;None;;;;;;;;6;;;;;;0.6731759998947382;778.9372999998741;None;None;None;[];778.9372999998741;None;['9'];[0.39511389983817935];778.9372999998741;None;;;S11502;2022_Jun_07_1802;VideoMask;2021.1.2;120.0416783408903;
;;;;;;;;;;;;;;;;;;;;;;;;;;;;;;;;;;;;;;;;;;;;;;;;;;;;;;;;;;;;;;;;781.9456212995574;None;;;;;;
