primePerson;primeGender;prime;primeEmotion;corrAnsPrime;target;targetEmotion;corrAnsTar;Cond;ID_Primer;ID_Target;JitterTime;Condition;example.thisRepN;example.thisTrialN;example.thisN;example.thisIndex;study.thisRepN;study.thisTrialN;study.thisN;study.thisIndex;MR_trigger_time;MR_trigger_number;text_intro.started;text_intro.stopped;text_probe.started;text_probe.stopped;polygon_ISI.started;polygon_ISI.stopped;polygon.started;polygon.stopped;primerImage.started;primerImage.stopped;response.started;response.stopped;key_resp.keys;key_resp.corr;key_resp.rt;key_resp.started;key_resp.stopped;slider_Text.started;slider_Text.stopped;slider_ex.response;slider_ex.rt;slider_ex.history;slider_ex.started;slider_ex.stopped;Rating;slider_resp_response.keys;slider_resp_response.rt;slider_resp_response.started;slider_resp_response.stopped;text_start.started;text_start.stopped;text_slider.started;text_slider.stopped;slider_stud.response;slider_stud.rt;slider_stud.history;slider_stud.started;slider_stud.stopped;slider_resp_study.keys;slider_resp_study.rt;slider_resp_study.started;slider_resp_study.stopped;text_ende.started;text_ende.stopped;participant;date;expName;psychopyVersion;frameRate;
1111;m;1111_m_m_h_a.jpg;happy;9;example_30.4ns.avi;neutral;7;incongruent;120.0;170.0;189.5874364012288;;0;0;0;0;;;;;29.263572600029875;1;29.34104520000983;31.34129050001502;31.34129050001502;None;33.3577339000185;None;35.34135060000699;35.657735500019044;36.85761619999539;36.87430140003562;41.13266459997976;None;8;0;1.0346862000296824;41.13266459997976;None;42.69131949997973;None;None;None;[];42.69131949997973;None;7;"['9', '9']";"[1.4042455999879166, 2.9481472999905236]";42.69131949997973;None;;;;;;;;;;;;;;;;S10828;2021_Aug_16_1738;VideoMask;2021.1.2;120.07944455036477;
1113;f;1113_y_f_s_a.jpg;sad;7;example_30.3ns.avi;neutral;7;incongruent;130.0;170.0;229.02432995836998;;0;1;1;1;;;;;;;;;;;45.69060329999775;None;47.807195400004275;48.12389909999911;49.33231760002673;49.349014099978376;51.26563290000195;None;None;0;;51.26563290000195;None;52.815513300010934;None;None;None;[];52.815513300010934;None;6;"['9', '9', '7']";"[0.03179380000801757, 0.6237947000190616, 2.2481441000127234]";52.815513300010934;None;;;;;;;;;;;;;;;;S10828;2021_Aug_16_1738;VideoMask;2021.1.2;120.07944455036477;
9.0;f;019_m_f_h_a.jpg;happy;9.0;sad_115.1.wmv;sad;7.0;incongruent;120.0;160.0;128.09063432376465;h_s;;;;;0;0;0;0;;;;;;;56.84038030001102;None;58.123493599996436;58.44080240000039;59.57343970000511;59.59026929998072;61.59032489999663;None;7;0;0.7052267999970354;61.59032489999663;None;;;;;;;;2;;;;;55.81532170000719;None;63.15691920003155;None;None;None;[];63.15691920003155;None;"['7', '7', '7']";"[0.07465699996100739, 0.4345678999670781, 2.2906739999889396]";63.15691920003155;None;;;S10828;2021_Aug_16_1738;VideoMask;2021.1.2;120.07944455036477;
3.0;m;033_o_m_s_a.jpg;sad;7.0;sad_94.2ns.avi;sad;7.0;congruent;130.0;160.0;182.29120173647655;s_s;;;;;0;1;1;1;;;;;;;66.14843870000914;None;67.86478699999861;68.18160499999067;69.30667050002376;69.32328930002404;72.0066044999985;None;None;0;;72.0066044999985;None;;;;;;;;3;;;;;;;73.56516190001275;None;None;None;[];73.56516190001275;None;"['7', '7']";"[0.3783402999979444, 2.7065052000107244]";73.56516190001275;None;;;S10828;2021_Aug_16_1738;VideoMask;2021.1.2;120.07944455036477;
8.0;m;008_y_m_h_a.jpg;happy;9.0;happy_26.1ns.avi;happy;9.0;congruent;120.0;150.0;155.9437854594882;h_h;;;;;0;2;2;2;;;;;;;76.56475520000095;None;78.05617809999967;78.37306429998716;79.57302720000735;79.58997480000835;81.49795769999037;None;None;0;;81.49795769999037;None;;;;;;;;6;;;;;;;83.04786410002271;None;None;None;[];83.04786410002271;None;['9'];[0.4157769999583252];83.04786410002271;None;;;S10828;2021_Aug_16_1738;VideoMask;2021.1.2;120.07944455036477;
0.0;f;040_y_f_h_a.jpg;happy;9.0;sad_138.1.wmv;sad;7.0;incongruent;120.0;160.0;133.99071306426532;h_s;;;;;0;3;3;3;;;;;;;86.05613520002225;None;87.38927769998554;87.70598969998537;88.83109849999892;88.84763470001053;90.83935120003298;None;None;0;;90.83935120003298;None;;;;;;;;5;;;;;;;92.38927220000187;None;None;None;[];92.38927220000187;None;None;;92.38927220000187;None;;;S10828;2021_Aug_16_1738;VideoMask;2021.1.2;120.07944455036477;
8.0;f;028_y_f_s_a.jpg;sad;7.0;sad_64.2ns.avi;sad;7.0;congruent;130.0;160.0;229.88540597086478;s_s;;;;;0;4;4;4;;;;;;;95.40570629999274;None;97.63078940002015;97.94732129998738;99.13050329999533;99.14708860003157;110.08031049999408;None;None;0;;110.08031049999408;None;;;;;;;;4;;;;;;;111.63012109999545;None;None;None;[];111.63012109999545;None;['7'];[0.39356739999493584];111.63012109999545;None;;;S10828;2021_Aug_16_1738;VideoMask;2021.1.2;120.07944455036477;
7.0;m;027_o_m_s_a.jpg;sad;7.0;sad_10.4ns.avi;sad;7.0;congruent;130.0;160.0;185.20129417468752;s_s;;;;;0;5;5;5;;;;;;;114.63860649999697;None;116.43015070003457;116.74675960000604;117.92176950001158;117.93841420003446;121.04675320000388;None;None;0;;121.04675320000388;None;;;;;;;;5;;;;;;;122.58815299998969;None;None;None;[];122.58815299998969;None;None;;122.58815299998969;None;;;S10828;2021_Aug_16_1738;VideoMask;2021.1.2;120.07944455036477;
2.0;f;012_o_f_s_a.jpg;sad;7.0;sad_7.5ns.avi;sad;7.0;congruent;130.0;160.0;220.27842655424388;s_s;;;;;0;6;6;6;;;;;;;125.62968060001731;None;127.66290350002237;127.97968330001459;129.1551758000278;129.1797161999857;131.9049918000237;None;None;0;;131.9049918000237;None;;;;;;;;3;;;;;;;133.6467273000162;None;None;None;[];133.6467273000162;None;"['7', '7', '7', '7']";"[0.38463350001256913, 0.6646907000103965, 1.0407113999826834, 1.7764765999745578]";133.6467273000162;None;;;S10828;2021_Aug_16_1738;VideoMask;2021.1.2;120.07944455036477;
2.0;f;012_o_f_h_a.jpg;happy;9.0;happy_27.1ns.avi;happy;9.0;congruent;120.0;150.0;146.44967055810616;h_h;;;;;0;7;7;7;;;;;;;136.65468740003416;None;138.09590409998782;138.4127778999973;139.58778340002755;139.60445149999578;142.03781280003022;None;None;0;;142.03781280003022;None;;;;;;;;6;;;;;;;143.58746740000788;None;None;None;[];143.58746740000788;None;"['9', '7']";"[2.2841719000134617, 2.6437163000227883]";143.58746740000788;None;;;S10828;2021_Aug_16_1738;VideoMask;2021.1.2;120.07944455036477;
8.0;f;028_y_f_h_a.jpg;happy;9.0;sad_119.1.wmv;sad;7.0;incongruent;120.0;160.0;148.71526953572538;h_s;;;;;0;8;8;8;;;;;;;146.58762370003387;None;148.07070510002086;148.3874709000229;149.5288899000152;149.54574730002787;151.5875002000248;None;None;0;;151.5875002000248;None;;;;;;;;4;;;;;;;153.13724100001855;None;None;None;[];153.13724100001855;None;['7'];[1.4382503000088036];153.13724100001855;None;;;S10828;2021_Aug_16_1738;VideoMask;2021.1.2;120.07944455036477;
6.0;m;016_y_m_s_a.jpg;sad;7.0;happy_60.4ns.avi;happy;9.0;incongruent;130.0;150.0;126.02367393611817;s_h;;;;;0;9;9;9;;;;;;;156.1457167000044;None;157.4620067999931;157.7787665000069;158.9121001000167;158.92947339999955;164.7036541000125;None;None;0;;164.7036541000125;None;;;;;;;;6;;;;;;;166.25341710000066;None;None;None;[];166.25341710000066;None;['9'];[0.4501380000147037];166.25341710000066;None;;;S10828;2021_Aug_16_1738;VideoMask;2021.1.2;120.07944455036477;
9.0;f;019_m_f_s_a.jpg;sad;7.0;sad_8.4ns.avi;sad;7.0;congruent;130.0;160.0;171.6633093155257;s_s;;;;;0;10;10;10;;;;;;;169.25362610002048;None;170.9617825000314;171.27841119997902;172.42053240002133;172.4450363999931;180.54493059997912;None;None;0;;180.54493059997912;None;;;;;;;;4;;;;;;;182.09467840002617;None;None;None;[];182.09467840002617;None;['7'];[0.42474159999983385];182.09467840002617;None;;;S10828;2021_Aug_16_1738;VideoMask;2021.1.2;120.07944455036477;
4.0;m;004_o_m_h_a.jpg;happy;9.0;happy_1.1ns.avi;happy;9.0;congruent;120.0;150.0;203.50057144619865;h_h;;;;;0;11;11;11;;;;;;;185.09467329998733;None;187.10295309999492;187.41949619998923;188.5529222000041;188.56957870000042;203.0358243000228;None;None;0;;203.0358243000228;None;;;;;;;;7;;;;;;;204.5857449999894;None;None;None;[];204.5857449999894;None;"['9', '9', '9']";"[0.357236500014551, 0.6693083000136539, 1.1578396999975666]";204.5857449999894;None;;;S10828;2021_Aug_16_1738;VideoMask;2021.1.2;120.07944455036477;
7.0;m;027_o_m_h_a.jpg;happy;9.0;happy_20.1ns.avi;happy;9.0;congruent;120.0;150.0;152.91127178874285;h_h;;;;;0;12;12;12;;;;;;;207.58567870000843;None;209.0937120000017;209.41059929999756;210.52767710003536;210.5444268999854;213.56051370000932;None;None;0;;213.56051370000932;None;;;;;;;;7;;;;;;;215.1104292999953;None;None;None;[];215.1104292999953;None;"['9', '9']";"[0.28855570004088804, 0.6246694000437856]";215.1104292999953;None;;;S10828;2021_Aug_16_1738;VideoMask;2021.1.2;120.07944455036477;
0.0;f;040_y_f_s_a.jpg;sad;7.0;sad_94.3ns.avi;sad;7.0;congruent;130.0;160.0;155.27414203894395;s_s;;;;;0;13;13;13;;;;;;;218.11874439998064;None;219.6517130000284;219.9684755000053;221.1189532999997;221.14334080001572;223.72680740000214;None;None;0;;223.72680740000214;None;;;;;;;;5;;;;;;;225.27673310000682;None;None;None;[];225.27673310000682;None;None;;225.27673310000682;None;;;S10828;2021_Aug_16_1738;VideoMask;2021.1.2;120.07944455036477;
0.0;f;030_o_f_s_a.jpg;sad;7.0;sad_68.1ns.avi;sad;7.0;congruent;130.0;160.0;158.9411396037211;s_s;;;;;0;14;14;14;;;;;;;228.2932667999994;None;229.8430512000341;230.15996600000653;231.31823119998444;231.33487289998448;238.71806069999002;None;None;0;;238.71806069999002;None;;;;;;;;4;;;;;;;240.26850300002843;None;None;None;[];240.26850300002843;None;['7'];[0.3546504999976605];240.26850300002843;None;;;S10828;2021_Aug_16_1738;VideoMask;2021.1.2;120.07944455036477;
0.0;f;030_o_f_h_a.jpg;happy;9.0;sad_127.1.wmv;sad;7.0;incongruent;120.0;160.0;180.59976631384873;h_s;;;;;0;15;15;15;;;;;;;243.26797390001593;None;245.00932379998267;245.32601180003257;246.45115290000103;246.4677428000141;248.45940280001378;None;None;0;;248.45940280001378;None;;;;;;;;4;;;;;;;250.00910969998222;None;None;None;[];250.00910969998222;None;"['7', '7']";"[0.4459294999833219, 1.2942356999847107]";250.00910969998222;None;;;S10828;2021_Aug_16_1738;VideoMask;2021.1.2;120.07944455036477;
8.0;m;008_y_m_s_a.jpg;sad;7.0;happy_133.3.wmv;happy;9.0;incongruent;130.0;150.0;152.577966552593;s_h;;;;;0;16;16;16;;;;;;;253.01757590001216;None;254.5174159000162;254.83409610000672;255.95918840001104;255.97569330001716;257.96743710001465;None;None;0;;257.96743710001465;None;;;;;;;;7;;;;;;;259.5171331000165;None;None;None;[];259.5171331000165;None;"['9', '9']";"[0.37004290003096685, 1.4820762000163086]";259.5171331000165;None;;;S10828;2021_Aug_16_1738;VideoMask;2021.1.2;120.07944455036477;
3.0;m;033_o_m_h_a.jpg;happy;9.0;sad_128.1.wmv;sad;7.0;incongruent;120.0;160.0;171.0492454518585;h_s;;;;;0;17;17;17;;;;;;;262.51734259998193;None;264.192013700027;264.5087369999965;265.6419251000043;265.65881980000995;267.6421926000039;None;None;0;;267.6421926000039;None;;;;;;;;4;;;;;;;269.19184260000475;None;None;None;[];269.19184260000475;None;['7'];[0.43135610001627356];269.19184260000475;None;;;S10828;2021_Aug_16_1738;VideoMask;2021.1.2;120.07944455036477;
1.0;f;021_o_f_h_a.jpg;happy;9.0;sad_116.1.wmv;sad;7.0;incongruent;120.0;160.0;184.06847610053055;h_s;;;;;0;18;18;18;;;;;;;272.1919999999809;None;273.9501038999879;274.2667574000079;275.40824830002384;275.4250966000254;277.4083752000006;None;None;0;;277.4083752000006;None;;;;;;;;5;;;;;;;278.95867979998;None;None;None;[];278.95867979998;None;None;;278.95867979998;None;;;S10828;2021_Aug_16_1738;VideoMask;2021.1.2;120.07944455036477;
4.0;m;004_o_m_s_a.jpg;sad;7.0;happy_28.1ns.avi;happy;9.0;incongruent;130.0;150.0;157.40741103039684;s_h;;;;;0;19;19;19;;;;;;;281.9833440000075;None;283.54165070003364;283.8580464000115;285.0081988000311;285.02459540002747;289.38332720001927;None;None;0;;289.38332720001927;None;;;;;;;;7;;;;;;;290.9334534999798;None;None;None;[];290.9334534999798;None;"['9', '9']";"[0.3298023999668658, 0.681461300002411]";290.9334534999798;None;;;S10828;2021_Aug_16_1738;VideoMask;2021.1.2;120.07944455036477;
8.0;f;028_y_f_s_a.jpg;sad;7.0;happy_122.3.wmv;happy;9.0;incongruent;130.0;150.0;171.8670540936116;s_h;;;;;0;20;20;20;;;;;;;293.94121780002024;None;295.5993771000067;295.91607909998856;297.0495111999917;297.06616550002946;299.04943940002704;None;None;0;;299.04943940002704;None;;;;;;;;6;;;;;;;300.5993791000219;None;None;None;[];300.5993791000219;None;['9'];[1.8957434999756515];300.5993791000219;None;;;S10828;2021_Aug_16_1738;VideoMask;2021.1.2;120.07944455036477;
8.0;m;008_y_m_s_a.jpg;sad;7.0;sad_6.5ns.avi;sad;7.0;congruent;130.0;160.0;170.39333839271438;s_s;;;;;0;21;21;21;;;;;;;303.6077845999971;None;305.25757670000894;305.57433660002425;306.7663887999952;306.78276420000475;311.707309600024;None;None;0;;311.707309600024;None;;;;;;;;3;;;;;;;313.25791869999375;None;None;None;[];313.25791869999375;None;"['7', '7']";"[0.3331571000162512, 0.6372588000376709]";313.25791869999375;None;;;S10828;2021_Aug_16_1738;VideoMask;2021.1.2;120.07944455036477;
8.0;f;028_y_f_h_a.jpg;happy;9.0;happy_23.1ns.avi;happy;9.0;congruent;120.0;150.0;225.70986890587952;h_h;;;;;0;22;22;22;;;;;;;316.2573240000056;None;318.37383639998734;318.69032719999086;319.85698709997814;319.87353370001074;324.4153096000082;None;None;0;;324.4153096000082;None;;;;;;;;6;;;;;;;325.97350090002874;None;None;None;[];325.97350090002874;None;['9'];[0.29747529997257516];325.97350090002874;None;;;S10828;2021_Aug_16_1738;VideoMask;2021.1.2;120.07944455036477;
8.0;m;008_y_m_h_a.jpg;happy;9.0;sad_111.1.wmv;sad;7.0;incongruent;120.0;160.0;152.63076835312847;h_s;;;;;0;23;23;23;;;;;;;328.98172059998615;None;330.4815895999782;330.7983176999842;331.96558570000343;331.9817102000234;333.94003019999946;None;None;0;;333.94003019999946;None;;;;;;;;4;;;;;;;335.48973570001544;None;None;None;[];335.48973570001544;None;['7'];[1.8211415000259876];335.48973570001544;None;;;S10828;2021_Aug_16_1738;VideoMask;2021.1.2;120.07944455036477;
0.0;f;040_y_f_s_a.jpg;sad;7.0;sad_67.2ns.avi;sad;7.0;congruent;130.0;160.0;220.9892697323079;s_s;;;;;0;24;24;24;;;;;;;338.4983672000235;None;340.61460430000443;340.9313705000095;342.13185850001173;342.1563016999862;351.2894863000256;None;None;0;;351.2894863000256;None;;;;;;;;5;;;;;;;352.83942839998053;None;None;None;[];352.83942839998053;None;None;;352.83942839998053;None;;;S10828;2021_Aug_16_1738;VideoMask;2021.1.2;120.07944455036477;
8.0;m;008_y_m_s_a.jpg;sad;7.0;happy_29.1ns.avi;happy;9.0;incongruent;130.0;150.0;120.0316142834122;s_h;;;;;0;25;25;25;;;;;;;355.8642409000313;None;357.1058747000061;357.42245419998653;358.63093580002896;358.64731660002144;361.24741359998006;None;None;0;;361.24741359998006;None;;;;;;;;5;;;;;;;362.7978502000333;None;None;None;[];362.7978502000333;None;None;;362.7978502000333;None;;;S10828;2021_Aug_16_1738;VideoMask;2021.1.2;120.07944455036477;
6.0;m;016_y_m_s_a.jpg;sad;7.0;sad_8.3ns.avi;sad;7.0;congruent;130.0;160.0;152.85371098242734;s_s;;;;;0;26;26;26;;;;;;;365.82219720003195;None;367.372208899993;367.6891367000062;368.85533310001483;368.8721850999864;376.58040370000526;None;None;0;;376.58040370000526;None;;;;;;;;5;;;;;;;378.13006500003394;None;None;None;[];378.13006500003394;None;None;;378.13006500003394;None;;;S10828;2021_Aug_16_1738;VideoMask;2021.1.2;120.07944455036477;
6.0;m;016_y_m_h_a.jpg;happy;9.0;sad_114.1.wmv;sad;7.0;incongruent;120.0;160.0;136.20550699298644;h_s;;;;;0;27;27;27;;;;;;;381.163473099994;None;382.5299172999803;382.84698339999886;383.97181419999106;383.9883925000322;385.9883452000213;None;None;0;;385.9883452000213;None;;;;;;;;5;;;;;;;387.5383732999908;None;None;None;[];387.5383732999908;None;None;;387.5383732999908;None;;;S10828;2021_Aug_16_1738;VideoMask;2021.1.2;120.07944455036477;
7.0;m;027_o_m_s_a.jpg;sad;7.0;happy_117.3.wmv;happy;9.0;incongruent;130.0;150.0;215.61964028550614;s_h;;;;;0;28;28;28;;;;;;;390.5547279000166;None;392.554646100034;392.8714654999785;394.0297107999795;394.04632329999004;396.0046102000051;None;None;0;;396.0046102000051;None;;;;;;;;6;;;;;;;397.5551494000247;None;None;None;[];397.5551494000247;None;['9'];[1.459811799984891];397.5551494000247;None;;;S10828;2021_Aug_16_1738;VideoMask;2021.1.2;120.07944455036477;
6.0;m;016_y_m_h_a.jpg;happy;9.0;happy_9.2ns.avi;happy;9.0;congruent;120.0;150.0;130.52042428082717;h_h;;;;;0;29;29;29;;;;;;;400.5546658000094;None;401.87935220001964;402.1959838999901;403.32948790001683;403.346066099999;409.25422310002614;None;9;0;0.2884926000260748;409.25422310002614;None;;;;;;;;7;;;;;;;410.80426559998887;None;None;None;[];410.80426559998887;None;"['9', '9', '9']";"[0.30660159996477887, 0.6183924999786541, 1.106560799991712]";410.80426559998887;None;;;S10828;2021_Aug_16_1738;VideoMask;2021.1.2;120.07944455036477;
0.0;f;040_y_f_s_a.jpg;sad;7.0;happy_127.3.wmv;happy;9.0;incongruent;130.0;150.0;131.7195455720239;s_h;;;;;0;30;30;30;;;;;;;413.8040849000099;None;415.11225710000144;415.4289793000207;416.55410320003284;416.571439500025;418.62908099999186;None;None;0;;418.62908099999186;None;;;;;;;;6;;;;;;;420.1789634000161;None;None;None;[];420.1789634000161;None;['9'];[0.34805560001404956];420.1789634000161;None;;;S10828;2021_Aug_16_1738;VideoMask;2021.1.2;120.07944455036477;
0.0;f;030_o_f_s_a.jpg;sad;7.0;happy_125.3.wmv;happy;9.0;incongruent;130.0;150.0;220.51454909128134;s_h;;;;;0;31;31;31;;;;;;;423.1789761999971;None;425.27026720001595;425.58701110002585;426.737082800013;426.7537306000013;428.7203832999803;None;None;0;;428.7203832999803;None;;;;;;;;5;;;;;;;430.27050550002605;None;None;None;[];430.27050550002605;None;None;;430.27050550002605;None;;;S10828;2021_Aug_16_1738;VideoMask;2021.1.2;120.07944455036477;
0.0;f;030_o_f_s_a.jpg;sad;7.0;sad_64.3ns.avi;sad;7.0;congruent;130.0;160.0;165.78667874766072;s_s;;;;;0;32;32;32;;;;;;;433.28668489999836;None;434.9282660000026;435.2450646000216;436.445035599987;436.46171719999984;441.3783929999918;None;None;0;;441.3783929999918;None;;;;;;;;4;;;;;;;442.92803589999676;None;None;None;[];442.92803589999676;None;['7'];[0.6868179000448436];442.92803589999676;None;;;S10828;2021_Aug_16_1738;VideoMask;2021.1.2;120.07944455036477;
3.0;m;013_y_m_s_a.jpg;sad;7.0;sad_7.7ns.avi;sad;7.0;congruent;130.0;160.0;196.24182255763262;s_s;;;;;0;33;33;33;;;;;;;445.93648329999996;None;447.8119362000143;448.12838790001115;449.2777697999845;449.30314430000726;455.2612492000335;None;None;0;;455.2612492000335;None;;;;;;;;3;;;;;;;456.81092040002113;None;None;None;[];456.81092040002113;None;"['7', '7']";"[0.38788579998072237, 0.7319686000118963]";456.81092040002113;None;;;S10828;2021_Aug_16_1738;VideoMask;2021.1.2;120.07944455036477;
3.0;m;013_y_m_h_a.jpg;happy;9.0;happy_9.1ns.avi;happy;9.0;congruent;120.0;150.0;165.1890303600433;h_h;;;;;0;34;34;34;;;;;;;459.8194928999874;None;461.45261259999825;461.76919120003004;462.9532920999918;462.9857784000342;466.1274114000262;None;None;0;;466.1274114000262;None;;;;;;;;6;;;;;;;467.6773263000068;None;None;None;[];467.6773263000068;None;['9'];[0.21726140001555905];467.6773263000068;None;;;S10828;2021_Aug_16_1738;VideoMask;2021.1.2;120.07944455036477;
4.0;m;004_o_m_h_a.jpg;happy;9.0;sad_95.1ns.avi;sad;7.0;incongruent;120.0;160.0;152.68270002069931;h_s;;;;;0;35;35;35;;;;;;;470.6857630999875;None;472.2187290000147;472.5357643000316;473.73553579999134;473.7528047999949;482.4604420000105;None;None;0;;482.4604420000105;None;;;;;;;;4;;;;;;;484.0183985999902;None;None;None;[];484.0183985999902;None;['7'];[0.5483507999451831];484.0183985999902;None;;;S10828;2021_Aug_16_1738;VideoMask;2021.1.2;120.07944455036477;
3.0;m;013_y_m_h_a.jpg;happy;9.0;sad_113.2.wmv;sad;7.0;incongruent;120.0;160.0;217.4973891947951;h_s;;;;;0;36;36;36;;;;;;;487.0269021000131;None;489.0765805999981;489.4024524000124;490.5436058000196;490.56003860000055;492.5265350000118;None;None;0;;492.5265350000118;None;;;;;;;;5;;;;;;;494.0770257000113;None;None;None;[];494.0770257000113;None;None;;494.0770257000113;None;;;S10828;2021_Aug_16_1738;VideoMask;2021.1.2;120.07944455036477;
4.0;m;004_o_m_h_a.jpg;happy;9.0;happy_25.1ns.avi;happy;9.0;congruent;120.0;150.0;216.63044503818386;h_h;;;;;0;37;37;37;;;;;;;497.1098273000098;None;499.14293060003547;499.4597332000267;500.62635640002554;500.64305529999547;504.2846640999778;None;None;0;;504.2846640999778;None;;;;;;;;5;;;;;;;505.8426820000168;None;None;None;[];505.8426820000168;None;None;;505.8426820000168;None;;;S10828;2021_Aug_16_1738;VideoMask;2021.1.2;120.07944455036477;
4.0;m;004_o_m_s_a.jpg;sad;7.0;happy_131.2.wmv;happy;9.0;incongruent;130.0;150.0;181.38407540847405;s_h;;;;;0;38;38;38;;;;;;;508.86762440000894;None;510.6092529000016;510.925961400033;512.0591015000246;512.0759810000309;514.0596134000225;None;None;0;;514.0596134000225;None;;;;;;;;5;;;;;;;515.6094051999971;None;None;None;[];515.6094051999971;None;None;;515.6094051999971;None;;;S10828;2021_Aug_16_1738;VideoMask;2021.1.2;120.07944455036477;
0.0;f;040_y_f_h_a.jpg;happy;9.0;happy_24.3ns.avi;happy;9.0;congruent;120.0;150.0;213.25460698950434;h_h;;;;;0;39;39;39;;;;;;;518.6341837000218;None;520.6343880000059;520.9506898000254;522.117796000035;522.1423308000085;524.009178599983;None;None;0;;524.009178599983;None;;;;;;;;5;;;;;;;525.5587408000138;None;None;None;[];525.5587408000138;None;None;;525.5587408000138;None;;;S10828;2021_Aug_16_1738;VideoMask;2021.1.2;120.07944455036477;
2.0;f;012_o_f_s_a.jpg;sad;7.0;happy_139.1.wmv;happy;9.0;incongruent;130.0;150.0;162.31500468041804;s_h;;;;;0;40;40;40;;;;;;;528.5843801000156;None;530.1753142999951;530.4919430000009;531.6335148999933;531.6504338000086;533.625276900013;None;None;0;;533.625276900013;None;;;;;;;;5;;;;;;;535.1751472000033;None;None;None;[];535.1751472000033;None;"['9', '9']";"[0.7273686000262387, 2.5275366000132635]";535.1751472000033;None;;;S10828;2021_Aug_16_1738;VideoMask;2021.1.2;120.07944455036477;
0.0;f;030_o_f_h_a.jpg;happy;9.0;happy_24.1ns.avi;happy;9.0;congruent;120.0;150.0;168.36256624020774;h_h;;;;;0;41;41;41;;;;;;;538.1753437999869;None;539.824986200023;540.141774400021;541.342450199998;541.3667770000175;544.6168578999932;None;None;0;;544.6168578999932;None;;;;;;;;5;;;;;;;546.1749150999822;None;None;None;[];546.1749150999822;None;None;;546.1749150999822;None;;;S10828;2021_Aug_16_1738;VideoMask;2021.1.2;120.07944455036477;
2.0;f;012_o_f_h_a.jpg;happy;9.0;sad_113.1.wmv;sad;7.0;incongruent;120.0;160.0;177.44551734737394;h_s;;;;;0;42;42;42;;;;;;;549.1914659999893;None;550.8998174000299;551.2164388999809;552.374589700019;552.3913155000191;554.3580399000202;None;None;0;;554.3580399000202;None;;;;;;;;4;;;;;;;555.9080072999932;None;None;None;[];555.9080072999932;None;['7'];[0.3707084000343457];555.9080072999932;None;;;S10828;2021_Aug_16_1738;VideoMask;2021.1.2;120.07944455036477;
3.0;m;033_o_m_s_a.jpg;sad;7.0;sad_64.5ns.avi;sad;7.0;congruent;130.0;160.0;130.55717223801247;s_s;;;;;0;43;43;43;;;;;;;558.9162669000216;None;560.2494841000298;560.5660577000235;561.7078072000295;561.7244182000286;568.2826731000096;None;None;0;;568.2826731000096;None;;;;;;;;3;;;;;;;569.8323723999783;None;None;None;[];569.8323723999783;None;"['7', '7']";"[0.42218519997550175, 0.8701752999913879]";569.8323723999783;None;;;S10828;2021_Aug_16_1738;VideoMask;2021.1.2;120.07944455036477;
7.0;m;027_o_m_h_a.jpg;happy;9.0;sad_117.1.wmv;sad;7.0;incongruent;120.0;160.0;181.28665202824095;h_s;;;;;0;44;44;44;;;;;;;572.8409221000038;None;574.5988773999852;574.9156410000287;576.0487048000214;576.0662872000248;578.0489375999896;None;None;0;;578.0489375999896;None;;;;;;;;5;;;;;;;579.5989515000256;None;None;None;[];579.5989515000256;None;None;;579.5989515000256;None;;;S10828;2021_Aug_16_1738;VideoMask;2021.1.2;120.07944455036477;
3.0;m;033_o_m_s_a.jpg;sad;7.0;happy_126.3.wmv;happy;9.0;incongruent;130.0;150.0;198.85252030535366;s_h;;;;;0;45;45;45;;;;;;;582.6321034000139;None;584.5069492000039;584.8236586999847;585.9740760999848;585.9903710000217;587.9486985999974;None;None;0;;587.9486985999974;None;;;;;;;;6;;;;;;;589.4983830000274;None;None;None;[];589.4983830000274;None;['9'];[1.3162268999731168];589.4983830000274;None;;;S10828;2021_Aug_16_1738;VideoMask;2021.1.2;120.07944455036477;
3.0;m;033_o_m_h_a.jpg;happy;9.0;sad_136.1.wmv;sad;7.0;incongruent;120.0;160.0;176.97002883463455;h_s;;;;;0;46;46;46;;;;;;;592.4985852999962;None;594.1899344000267;594.5072306999937;595.6318863999913;595.64842089999;597.6483574000304;None;None;0;;597.6483574000304;None;;;;;;;;4;;;;;;;599.1980913000298;None;None;None;[];599.1980913000298;None;['7'];[0.3843969999579713];599.1980913000298;None;;;S10828;2021_Aug_16_1738;VideoMask;2021.1.2;120.07944455036477;
9.0;f;019_m_f_h_a.jpg;happy;9.0;happy_10.1ns.avi;happy;9.0;congruent;120.0;150.0;157.2463435658512;h_h;;;;;0;47;47;47;;;;;;;602.2066272000084;None;603.7898653000011;604.1063718000078;605.2647217999911;605.2814098999952;612.6812728000223;None;None;0;;612.6812728000223;None;;;;;;;;6;;;;;;;614.2309252999839;None;None;None;[];614.2309252999839;None;['9'];[0.38344809995032847];614.2309252999839;None;;;S10828;2021_Aug_16_1738;VideoMask;2021.1.2;120.07944455036477;
2.0;f;012_o_f_h_a.jpg;happy;9.0;happy_2.2ns.avi;happy;9.0;congruent;120.0;150.0;206.34800317295262;h_h;;;;;0;48;48;48;;;;;;;617.2393334999797;None;619.2392267999821;619.5557967000059;620.680864599999;620.6976263999823;632.8974209000007;None;None;0;;632.8974209000007;None;;;;;;;;5;;;;;;;634.7888208000222;None;None;None;[];634.7888208000222;None;None;;634.7888208000222;None;;;S10828;2021_Aug_16_1738;VideoMask;2021.1.2;120.07944455036477;
3.0;m;033_o_m_h_a.jpg;happy;9.0;happy_24.2ns.avi;happy;9.0;congruent;120.0;150.0;167.9423847659953;h_h;;;;;0;49;49;49;;;;;;;637.8135305999895;None;639.4469411000027;639.7635908999946;641.0136053999886;641.0302690999815;644.6219241999788;None;None;0;;644.6219241999788;None;;;;;;;;5;;;;;;;646.5305705000064;None;None;None;[];646.5305705000064;None;None;;646.5305705000064;None;;;S10828;2021_Aug_16_1738;VideoMask;2021.1.2;120.07944455036477;
1.0;f;021_o_f_s_a.jpg;sad;7.0;happy_61.2ns.avi;happy;9.0;incongruent;130.0;150.0;210.94664004826666;s_h;;;;;0;50;50;50;;;;;;;649.5548064000322;None;651.5637006000034;651.8799872000236;653.0132222999819;653.029823800025;657.5386437000125;None;None;0;;657.5386437000125;None;;;;;;;;5;;;;;;;659.2878324000048;None;None;None;[];659.2878324000048;None;None;;659.2878324000048;None;;;S10828;2021_Aug_16_1738;VideoMask;2021.1.2;120.07944455036477;
4.0;m;004_o_m_s_a.jpg;sad;7.0;sad_2.4ns.avi;sad;7.0;congruent;130.0;160.0;153.02079367163634;s_s;;;;;0;51;51;51;;;;;;;662.3210709000123;None;663.837876399979;664.1545397000154;665.3465041000163;665.3627675999887;673.2459500000114;None;None;0;;673.2459500000114;None;;;;;;;;4;;;;;;;674.7956929000211;None;None;None;[];674.7956929000211;None;['7'];[0.4744180999696255];674.7956929000211;None;;;S10828;2021_Aug_16_1738;VideoMask;2021.1.2;120.07944455036477;
8.0;m;008_y_m_h_a.jpg;happy;9.0;happy_1.2ns.avi;happy;9.0;congruent;120.0;150.0;210.98946429383824;h_h;;;;;0;52;52;52;;;;;;;677.7957555000321;None;679.8540578000247;680.1706085000187;681.3123305999907;681.328920800006;694.1036201000097;None;None;0;;694.1036201000097;None;;;;;;;;6;;;;;;;695.6449870999786;None;None;None;[];695.6449870999786;None;['9'];[0.20905890001449734];695.6449870999786;None;;;S10828;2021_Aug_16_1738;VideoMask;2021.1.2;120.07944455036477;
2.0;f;012_o_f_s_a.jpg;sad;7.0;happy_52.2ns.avi;happy;9.0;incongruent;130.0;150.0;172.57202848318138;s_h;;;;;0;53;53;53;;;;;;;698.661879900028;None;700.3283672999823;700.6449361999985;701.8614815000328;701.8783412000048;705.3282554000034;None;None;0;;705.3282554000034;None;;;;;;;;6;;;;;;;706.8783570000087;None;None;None;[];706.8783570000087;None;['9'];[0.4796801999909803];706.8783570000087;None;;;S10828;2021_Aug_16_1738;VideoMask;2021.1.2;120.07944455036477;
9.0;f;019_m_f_s_a.jpg;sad;7.0;happy_61.1ns.avi;happy;9.0;incongruent;130.0;150.0;181.3003220572762;s_h;;;;;0;54;54;54;;;;;;;709.878040999989;None;711.661369199981;711.9778967000311;713.1779781000223;713.1945986999781;720.5029371000128;None;None;0;;720.5029371000128;None;;;;;;;;5;;;;;;;722.0611770999967;None;None;None;[];722.0611770999967;None;None;;722.0611770999967;None;;;S10828;2021_Aug_16_1738;VideoMask;2021.1.2;120.07944455036477;
0.0;f;030_o_f_h_a.jpg;happy;9.0;sad_133.1.wmv;sad;7.0;incongruent;120.0;160.0;198.86251500867985;h_s;;;;;0;55;55;55;;;;;;;725.0857382999966;None;726.9607339000213;727.2773773000226;728.4025459000259;728.4192226000014;730.4108197999885;None;None;0;;730.4108197999885;None;;;;;;;;5;;;;;;;731.9607471000054;None;None;None;[];731.9607471000054;None;None;;731.9607471000054;None;;;S10828;2021_Aug_16_1738;VideoMask;2021.1.2;120.07944455036477;
0.0;f;040_y_f_h_a.jpg;happy;9.0;sad_128.2.wmv;sad;7.0;incongruent;120.0;160.0;206.10005857915363;h_s;;;;;0;56;56;56;;;;;;;734.9855510999914;None;736.9271881000022;737.2440354999853;738.3853355000028;738.4019778000074;740.3772927999962;None;None;0;;740.3772927999962;None;;;;;;;;5;;;;;;;742.002481100033;None;None;None;[];742.002481100033;None;None;;742.002481100033;None;;;S10828;2021_Aug_16_1738;VideoMask;2021.1.2;120.07944455036477;
1.0;f;021_o_f_s_a.jpg;sad;7.0;sad_9.5ns.avi;sad;7.0;congruent;130.0;160.0;206.16642757875042;s_s;;;;;0;57;57;57;;;;;;;745.0268338000169;None;746.9767658000346;747.2935558999889;748.477549400006;748.4935335000046;754.1606478000176;None;None;0;;754.1606478000176;None;;;;;;;;3;;;;;;;756.0349805000005;None;None;None;[];756.0349805000005;None;"['7', '7']";"[0.2509514999692328, 0.5552374999970198]";756.0349805000005;None;;;S10828;2021_Aug_16_1738;VideoMask;2021.1.2;120.07944455036477;
1.0;f;021_o_f_h_a.jpg;happy;9.0;happy_12.1ns.avi;happy;9.0;congruent;120.0;150.0;132.59080005900228;h_h;;;;;0;58;58;58;;;;;;;759.0432796999812;None;760.4429681000183;760.759714099986;761.9014015999855;761.918015400006;769.5096232999931;None;None;0;;769.5096232999931;None;;;;;;;;6;;;;;;;771.0680523000192;None;None;None;[];771.0680523000192;None;['9'];[0.3699188000173308];771.0680523000192;None;;;S10828;2021_Aug_16_1738;VideoMask;2021.1.2;120.07944455036477;
3.0;m;013_y_m_s_a.jpg;sad;7.0;happy_56.2ns.avi;happy;9.0;incongruent;130.0;150.0;163.39234110935848;s_h;;;;;0;59;59;59;;;;;;;774.0678980000084;None;775.6674413000001;775.9842870000284;777.1507096000132;777.1676215000334;782.1424530000077;None;None;0;;782.1424530000077;None;;;;;;;;6;;;;;;;783.6924694000045;None;None;None;[];783.6924694000045;None;['9'];[0.22553500003414229];783.6924694000045;None;;;S10828;2021_Aug_16_1738;VideoMask;2021.1.2;120.07944455036477;
;;;;;;;;;;;;;;;;;;;;;;;;;;;;;;;;;;;;;;;;;;;;;;;;;;;;;;;;;;;;;;;;;786.6924682999961;None;;;;;;
