primePerson;primeGender;prime;primeEmotion;corrAnsPrime;target;targetEmotion;corrAnsTar;Cond;ID_Primer;ID_Target;JitterTime;Condition;example.thisRepN;example.thisTrialN;example.thisN;example.thisIndex;study.thisRepN;study.thisTrialN;study.thisN;study.thisIndex;MR_trigger_time;MR_trigger_number;text_intro.started;text_intro.stopped;text_probe.started;text_probe.stopped;polygon_ISI.started;polygon_ISI.stopped;polygon.started;polygon.stopped;primerImage.started;primerImage.stopped;response.started;response.stopped;key_resp.keys;key_resp.corr;key_resp.rt;key_resp.started;key_resp.stopped;slider_Text.started;slider_Text.stopped;slider_ex.response;slider_ex.rt;slider_ex.history;slider_ex.started;slider_ex.stopped;Rating;slider_resp_response.keys;slider_resp_response.rt;slider_resp_response.started;slider_resp_response.stopped;text_start.started;text_start.stopped;text_slider.started;text_slider.stopped;slider_stud.response;slider_stud.rt;slider_stud.history;slider_stud.started;slider_stud.stopped;slider_resp_study.keys;slider_resp_study.rt;slider_resp_study.started;slider_resp_study.stopped;text_ende.started;text_ende.stopped;participant;date;expName;psychopyVersion;frameRate;
1111;m;1111_m_m_h_a.jpg;happy;9;example_30.4ns.avi;neutral;7;incongruent;120.0;170.0;189.5874364012288;;0;0;0;0;;;;;23.575618700007908;1;23.669932499993593;25.670118500012904;25.670118500012904;None;27.686769399995683;None;29.945071399997687;30.261482700007036;31.42832599999383;31.44492869998794;35.7364266999939;None;8;0;0.6693962999852374;35.7364266999939;None;37.29476260000956;None;None;None;[];37.29476260000956;None;6;['9'];[1.3432226000004448];37.29476260000956;None;;;;;;;;;;;;;;;;S11152;2022_Jan_14_1733;VideoMask;2021.1.2;120.016034152481;
1113;f;1113_y_f_s_a.jpg;sad;7;example_30.3ns.avi;neutral;7;incongruent;130.0;170.0;229.02432995836998;;0;1;1;1;;;;;;;;;;;40.286384100007126;None;42.41128239998943;42.7278462999966;43.87788240000373;43.89449209999293;45.86148580000736;None;8;0;1.4804233000031672;45.86148580000736;None;47.4110811999999;None;None;None;[];47.4110811999999;None;6;['9'];[1.6989148000138812];47.4110811999999;None;;;;;;;;;;;;;;;;S11152;2022_Jan_14_1733;VideoMask;2021.1.2;120.016034152481;
9.0;f;019_m_f_h_a.jpg;happy;9.0;sad_115.1.wmv;sad;7.0;incongruent;120.0;160.0;128.09063432376465;h_s;;;;;0;0;0;0;;;;;;;51.46934790001251;None;52.75257300000521;53.06943040000624;54.20237419998739;54.219272999995155;56.202651700004935;None;7;0;0.6353286000085063;56.202651700004935;None;;;;;;;;4;;;;;50.419570099998964;None;57.75242629999411;None;None;None;[];57.75242629999411;None;['7'];[0.8855429000104778];57.75242629999411;None;;;S11152;2022_Jan_14_1733;VideoMask;2021.1.2;120.016034152481;
3.0;m;033_o_m_s_a.jpg;sad;7.0;sad_94.2ns.avi;sad;7.0;congruent;130.0;160.0;182.29120173647655;s_s;;;;;0;1;1;1;;;;;;;60.76922119999654;None;62.502212299994426;62.81897900000331;63.95226459999685;63.96939859999111;66.6439905000152;None;8;0;1.4500449000042863;66.6439905000152;None;;;;;;;;4;;;;;;;68.19379089999711;None;None;None;[];68.19379089999711;None;"['7', '7']";"[1.060126800002763, 1.5798672000237275]";68.19379089999711;None;;;S11152;2022_Jan_14_1733;VideoMask;2021.1.2;120.016034152481;
8.0;m;008_y_m_h_a.jpg;happy;9.0;happy_26.1ns.avi;happy;9.0;congruent;120.0;150.0;155.9437854594882;h_h;;;;;0;2;2;2;;;;;;;71.19380810001167;None;72.69354010000825;73.01017280001543;74.17689959998825;74.1939238999912;76.13595029999851;None;9;0;0.6538712999899872;76.13595029999851;None;;;;;;;;8;;;;;;;77.7766879000119;None;None;None;[];77.7766879000119;None;"['9', '9', '9']";"[0.5571809999819379, 0.8930846999865025, 1.2610201999777928]";77.7766879000119;None;;;S11152;2022_Jan_14_1733;VideoMask;2021.1.2;120.016034152481;
0.0;f;040_y_f_h_a.jpg;happy;9.0;sad_138.1.wmv;sad;7.0;incongruent;120.0;160.0;133.99071306426532;h_s;;;;;0;3;3;3;;;;;;;80.77682960001403;None;82.10993390000658;82.42685920000076;83.55179610001505;83.56830499999342;85.55999080001493;None;7;0;1.3257275999931153;85.55999080001493;None;;;;;;;;3;;;;;;;87.10996400000295;None;None;None;[];87.10996400000295;None;"['7', '7']";"[0.6877902999985963, 1.07190010001068]";87.10996400000295;None;;;S11152;2022_Jan_14_1733;VideoMask;2021.1.2;120.016034152481;
8.0;f;028_y_f_s_a.jpg;sad;7.0;sad_64.2ns.avi;sad;7.0;congruent;130.0;160.0;229.88540597086478;s_s;;;;;0;4;4;4;;;;;;;90.11819229999674;None;92.32633449998684;92.64299779999419;93.81885979999788;93.84299470001133;104.77618320001056;None;7;0;0.6216704999969807;104.77618320001056;None;;;;;;;;2;;;;;;;106.32593500000075;None;None;None;[];106.32593500000075;None;"['7', '7', '7']";"[0.5360988000174984, 0.8078846000134945, 1.4718577000021469]";106.32593500000075;None;;;S11152;2022_Jan_14_1733;VideoMask;2021.1.2;120.016034152481;
7.0;m;027_o_m_s_a.jpg;sad;7.0;sad_10.4ns.avi;sad;7.0;congruent;130.0;160.0;185.20129417468752;s_s;;;;;0;5;5;5;;;;;;;109.33425210000132;None;111.09240439999849;111.40902359999018;112.63446400000248;112.6507724999974;115.70929749999777;None;7;0;0.4807671000016853;115.70929749999777;None;;;;;;;;3;;;;;;;117.25884369999403;None;None;None;[];117.25884369999403;None;"['7', '7', '7', '7']";"[0.5070245999959297, 0.8030297000077553, 1.1869337000243831, 1.8752452000044286]";117.25884369999403;None;;;S11152;2022_Jan_14_1733;VideoMask;2021.1.2;120.016034152481;
2.0;f;012_o_f_s_a.jpg;sad;7.0;sad_7.5ns.avi;sad;7.0;congruent;130.0;160.0;220.27842655424388;s_s;;;;;0;6;6;6;;;;;;;120.25907100000768;None;122.30070059999707;122.61705349999829;123.76760079999804;123.79220399999758;126.54224919999251;None;7;0;0.7994689000188373;126.54224919999251;None;;;;;;;;2;;;;;;;128.68363809998846;None;None;None;[];128.68363809998846;None;"['7', '7', '7', '7']";"[0.3143984999915119, 0.6100900999736041, 0.9780409999948461, 1.7544760999735445]";128.68363809998846;None;;;S11152;2022_Jan_14_1733;VideoMask;2021.1.2;120.016034152481;
2.0;f;012_o_f_h_a.jpg;happy;9.0;happy_27.1ns.avi;happy;9.0;congruent;120.0;150.0;146.44967055810616;h_h;;;;;0;7;7;7;;;;;;;131.68357610001112;None;133.10840689999168;133.4251471000025;134.60002169999643;134.61687130000792;137.050089700002;None;9;0;0.6276756000006571;137.050089700002;None;;;;;;;;8;;;;;;;138.7249765000015;None;None;None;[];138.7249765000015;None;"['9', '9', '9']";"[0.39287370000965893, 0.9126681000052486, 1.2007193000172265]";138.7249765000015;None;;;S11152;2022_Jan_14_1733;VideoMask;2021.1.2;120.016034152481;
8.0;f;028_y_f_h_a.jpg;happy;9.0;sad_119.1.wmv;sad;7.0;incongruent;120.0;160.0;148.71526953572538;h_s;;;;;0;8;8;8;;;;;;;141.72493779999786;None;143.1831208000076;143.4998152999906;144.63323529998888;144.65025860001333;146.69994349998888;None;7;0;0.39405850000912324;146.69994349998888;None;;;;;;;;1;;;;;;;148.24976880001486;None;None;None;[];148.24976880001486;None;"['7', '7', '7', '7']";"[0.4281314999971073, 0.7161021000065375, 1.0283252999943215, 1.5403212999808602]";148.24976880001486;None;;;S11152;2022_Jan_14_1733;VideoMask;2021.1.2;120.016034152481;
6.0;m;016_y_m_s_a.jpg;sad;7.0;happy_60.4ns.avi;happy;9.0;incongruent;130.0;150.0;126.02367393611817;s_h;;;;;0;9;9;9;;;;;;;151.24977659998694;None;152.54129230001126;152.85800820001168;154.03289380000206;154.04965800000355;159.7826936999918;None;9;0;0.5753410999896005;159.7826936999918;None;;;;;;;;9;;;;;;;161.33273570000893;None;None;None;[];161.33273570000893;None;"['9', '9', '9', '9', '9']";"[0.08942040000692941, 0.38505609999992885, 0.6252498999820091, 0.8411026999820024, 1.9132140000001527]";161.33273570000893;None;;;S11152;2022_Jan_14_1733;VideoMask;2021.1.2;120.016034152481;
9.0;f;019_m_f_s_a.jpg;sad;7.0;sad_8.4ns.avi;sad;7.0;congruent;130.0;160.0;171.6633093155257;s_s;;;;;0;10;10;10;;;;;;;164.34103250000044;None;166.01582659999258;166.34154920000583;167.51586039998801;167.53273129998706;175.59910039999522;None;7;0;0.3669215000118129;175.59910039999522;None;;;;;;;;1;;;;;;;177.14889270000276;None;None;None;[];177.14889270000276;None;"['7', '7', '7', '7']";"[0.3451266000047326, 0.9370349000091664, 1.2168820000078995, 1.4890718999959063]";177.14889270000276;None;;;S11152;2022_Jan_14_1733;VideoMask;2021.1.2;120.016034152481;
4.0;m;004_o_m_h_a.jpg;happy;9.0;happy_1.1ns.avi;happy;9.0;congruent;120.0;150.0;203.50057144619865;h_h;;;;;0;11;11;11;;;;;;;180.1572021000029;None;182.13188460000674;182.4488180000044;183.60684110000147;183.62352309998823;198.0652005999873;None;9;0;0.4688894000137225;198.0652005999873;None;;;;;;;;8;;;;;;;199.62325510001392;None;None;None;[];199.62325510001392;None;"['9', '9', '9']";"[0.3506823999923654, 0.6545783999899868, 0.966669199988246]";199.62325510001392;None;;;S11152;2022_Jan_14_1733;VideoMask;2021.1.2;120.016034152481;
7.0;m;027_o_m_h_a.jpg;happy;9.0;happy_20.1ns.avi;happy;9.0;congruent;120.0;150.0;152.91127178874285;h_h;;;;;0;12;12;12;;;;;;;202.62324770001578;None;204.10631979999016;204.42306110000936;205.56469960001414;205.58140990001266;208.5897122999886;None;9;0;0.4322515000239946;208.5897122999886;None;;;;;;;;7;;;;;;;210.69790400000056;None;None;None;[];210.69790400000056;None;"['9', '9']";"[0.4841149999992922, 0.7719130000041332]";210.69790400000056;None;;;S11152;2022_Jan_14_1733;VideoMask;2021.1.2;120.016034152481;
0.0;f;040_y_f_s_a.jpg;sad;7.0;sad_94.3ns.avi;sad;7.0;congruent;130.0;160.0;155.27414203894395;s_s;;;;;0;13;13;13;;;;;;;213.7061590999947;None;215.2060211999924;215.5226820000098;216.75596840001526;216.77251740000793;219.28104010000243;None;7;0;0.30075230001239106;219.28104010000243;None;;;;;;;;1;;;;;;;220.83087179998984;None;None;None;[];220.83087179998984;None;"['7', '7', '7', '7']";"[0.5992639999894891, 0.8150151000008918, 1.038937099976465, 1.3029540999850724]";220.83087179998984;None;;;S11152;2022_Jan_14_1733;VideoMask;2021.1.2;120.016034152481;
0.0;f;030_o_f_s_a.jpg;sad;7.0;sad_68.1ns.avi;sad;7.0;congruent;130.0;160.0;158.9411396037211;s_s;;;;;0;14;14;14;;;;;;;223.83083839999745;None;225.39734739999403;225.7140456000052;226.89746320000268;226.91412400000263;234.2721995000029;None;7;0;0.3497913000173867;234.2721995000029;None;;;;;;;;3;;;;;;;235.82196040000417;None;None;None;[];235.82196040000417;None;"['7', '7']";"[0.29607430001487955, 0.6241018000000622]";235.82196040000417;None;;;S11152;2022_Jan_14_1733;VideoMask;2021.1.2;120.016034152481;
0.0;f;030_o_f_h_a.jpg;happy;9.0;sad_127.1.wmv;sad;7.0;incongruent;120.0;160.0;180.59976631384873;h_s;;;;;0;15;15;15;;;;;;;238.82222800000454;None;240.53864839999005;240.8552708000061;241.98040679999394;241.99703309999313;243.98873760001152;None;None;0;;243.98873760001152;None;;;;;;;;4;;;;;;;245.66336310000042;None;None;None;[];245.66336310000042;None;['7'];[0.19849060001433827];245.66336310000042;None;;;S11152;2022_Jan_14_1733;VideoMask;2021.1.2;120.016034152481;
8.0;m;008_y_m_s_a.jpg;sad;7.0;happy_133.3.wmv;happy;9.0;incongruent;130.0;150.0;152.577966552593;s_h;;;;;0;16;16;16;;;;;;;248.6718930999923;None;250.1632508999901;250.47999849999906;251.60496379999677;251.62167500000214;253.61327569998684;None;9;0;0.40880159998778254;253.61327569998684;None;;;;;;;;6;;;;;;;255.16324540000642;None;None;None;[];255.16324540000642;None;['9'];[0.27500059999874793];255.16324540000642;None;;;S11152;2022_Jan_14_1733;VideoMask;2021.1.2;120.016034152481;
3.0;m;033_o_m_h_a.jpg;happy;9.0;sad_128.1.wmv;sad;7.0;incongruent;120.0;160.0;171.0492454518585;h_s;;;;;0;17;17;17;;;;;;;258.1632830000017;None;259.8046362999885;260.12135750000016;261.262928000011;261.2795679999981;263.2713877999922;None;7;0;0.7346411000180524;263.2713877999922;None;;;;;;;;3;;;;;;;264.8214081999904;None;None;None;[];264.8214081999904;None;"['7', '7']";"[0.5445392999972682, 0.8964021999854594]";264.8214081999904;None;;;S11152;2022_Jan_14_1733;VideoMask;2021.1.2;120.016034152481;
1.0;f;021_o_f_h_a.jpg;happy;9.0;sad_116.1.wmv;sad;7.0;incongruent;120.0;160.0;184.06847610053055;h_s;;;;;0;18;18;18;;;;;;;267.8297467000084;None;269.5793068000057;269.89617200000794;271.054394900013;271.0710426000005;273.0300167000096;None;7;0;0.5998951999936253;273.0300167000096;None;;;;;;;;4;;;;;;;274.57937500000116;None;None;None;[];274.57937500000116;None;['7'];[0.5547909000015352];274.57937500000116;None;;;S11152;2022_Jan_14_1733;VideoMask;2021.1.2;120.016034152481;
4.0;m;004_o_m_s_a.jpg;sad;7.0;happy_28.1ns.avi;happy;9.0;incongruent;130.0;150.0;157.40741103039684;s_h;;;;;0;19;19;19;;;;;;;277.5875484000135;None;279.1209295000008;279.4374574999965;280.5955740000063;280.6125364000036;284.9623850999924;None;9;0;0.6595213999971747;284.9623850999924;None;;;;;;;;7;;;;;;;286.5123400000157;None;None;None;[];286.5123400000157;None;"['9', '9', '9']";"[0.35791989997960627, 0.6535629999998491, 1.0457031999831088]";286.5123400000157;None;;;S11152;2022_Jan_14_1733;VideoMask;2021.1.2;120.016034152481;
8.0;f;028_y_f_s_a.jpg;sad;7.0;happy_122.3.wmv;happy;9.0;incongruent;130.0;150.0;171.8670540936116;s_h;;;;;0;20;20;20;;;;;;;289.5206588000001;None;291.17040510001243;291.4871446999896;292.62057749999803;292.63716410001507;294.6204956000147;None;9;0;0.697652900009416;294.6204956000147;None;;;;;;;;9;;;;;;;296.1703872999933;None;None;None;[];296.1703872999933;None;"['9', '9', '9', '9']";"[0.32361769999261014, 0.5954745999770239, 0.8755673999839928, 1.1878383999865036]";296.1703872999933;None;;;S11152;2022_Jan_14_1733;VideoMask;2021.1.2;120.016034152481;
8.0;m;008_y_m_s_a.jpg;sad;7.0;sad_6.5ns.avi;sad;7.0;congruent;130.0;160.0;170.39333839271438;s_s;;;;;0;21;21;21;;;;;;;299.17877719999524;None;300.8117632000067;301.1285147999879;302.2867510000069;302.3035154000099;307.2618278999871;None;7;0;0.3521077999903355;307.2618278999871;None;;;;;;;;2;;;;;;;309.55340689999866;None;None;None;[];309.55340689999866;None;"['7', '7', '7']";"[0.396617199992761, 0.7089280000072904, 0.9807461999880616]";309.55340689999866;None;;;S11152;2022_Jan_14_1733;VideoMask;2021.1.2;120.016034152481;
8.0;f;028_y_f_h_a.jpg;happy;9.0;happy_23.1ns.avi;happy;9.0;congruent;120.0;150.0;225.70986890587952;h_h;;;;;0;22;22;22;;;;;;;312.55333679998876;None;314.6449253000028;314.961443600012;316.1279050000012;316.14478000000236;320.6697223999945;None;9;0;0.808523099985905;320.6697223999945;None;;;;;;;;7;;;;;;;322.2196116000123;None;None;None;[];322.2196116000123;None;"['9', '9']";"[0.5144785000011325, 0.8587158999871463]";322.2196116000123;None;;;S11152;2022_Jan_14_1733;VideoMask;2021.1.2;120.016034152481;
8.0;m;008_y_m_h_a.jpg;happy;9.0;sad_111.1.wmv;sad;7.0;incongruent;120.0;160.0;152.63076835312847;h_s;;;;;0;23;23;23;;;;;;;325.2194340999995;None;326.69427700000233;327.0111739000131;328.15256720001344;328.1694254000031;330.1444176000077;None;7;0;0.3736714000115171;330.1444176000077;None;;;;;;;;4;;;;;;;331.6943087000109;None;None;None;[];331.6943087000109;None;['7'];[0.295863899984397];331.6943087000109;None;;;S11152;2022_Jan_14_1733;VideoMask;2021.1.2;120.016034152481;
0.0;f;040_y_f_s_a.jpg;sad;7.0;sad_67.2ns.avi;sad;7.0;congruent;130.0;160.0;220.9892697323079;s_s;;;;;0;24;24;24;;;;;;;334.69437529999414;None;336.79399909998756;337.11083019999205;338.27752370000235;338.29409770001075;347.47784880001564;None;7;0;0.3762390000047162;347.47784880001564;None;;;;;;;;3;;;;;;;349.06882730001234;None;None;None;[];349.06882730001234;None;"['7', '7']";"[0.3372112999786623, 0.6731382999860216]";349.06882730001234;None;;;S11152;2022_Jan_14_1733;VideoMask;2021.1.2;120.016034152481;
8.0;m;008_y_m_s_a.jpg;sad;7.0;happy_29.1ns.avi;happy;9.0;incongruent;130.0;150.0;120.0316142834122;s_h;;;;;0;25;25;25;;;;;;;352.07709510001587;None;353.28521639999235;353.60200710000936;354.7773495000147;354.79365730000427;357.42702820000704;None;9;0;0.5711308000027202;357.42702820000704;None;;;;;;;;7;;;;;;;359.0018510000082;None;None;None;[];359.0018510000082;None;"['9', '9']";"[0.32457629998680204, 0.6122269999759737]";359.0018510000082;None;;;S11152;2022_Jan_14_1733;VideoMask;2021.1.2;120.016034152481;
6.0;m;016_y_m_s_a.jpg;sad;7.0;sad_8.3ns.avi;sad;7.0;congruent;130.0;160.0;152.85371098242734;s_s;;;;;0;26;26;26;;;;;;;362.0017938000092;None;363.5271323999914;363.84331210001255;364.99316330000875;365.01000300000305;372.7347967000096;None;7;0;0.5755192000069655;372.7347967000096;None;;;;;;;;3;;;;;;;374.2847500999924;None;None;None;[];374.2847500999924;None;"['7', '7', '7']";"[0.37737339999875985, 0.6975366999977268, 1.0254017999977805]";374.2847500999924;None;;;S11152;2022_Jan_14_1733;VideoMask;2021.1.2;120.016034152481;
6.0;m;016_y_m_h_a.jpg;happy;9.0;sad_114.1.wmv;sad;7.0;incongruent;120.0;160.0;136.20550699298644;h_s;;;;;0;27;27;27;;;;;;;377.2845709999965;None;378.63448939999216;378.9512509999913;380.1013348000124;380.11792340001557;382.08458910000627;None;7;0;0.4815923999994993;382.08458910000627;None;;;;;;;;3;;;;;;;383.634496499988;None;None;None;[];383.634496499988;None;"['7', '7']";"[0.27562630001921207, 0.5715006999962498]";383.634496499988;None;;;S11152;2022_Jan_14_1733;VideoMask;2021.1.2;120.016034152481;
7.0;m;027_o_m_s_a.jpg;sad;7.0;happy_117.3.wmv;happy;9.0;incongruent;130.0;150.0;215.61964028550614;s_h;;;;;0;28;28;28;;;;;;;386.64287680000416;None;388.6508540000068;388.96751779998885;390.1010019000096;390.11751780001214;392.1010362000088;None;9;0;1.20923199999379;392.1010362000088;None;;;;;;;;4;;;;;;;393.6508388000075;None;None;None;[];393.6508388000075;None;['7'];[1.043214600009378];393.6508388000075;None;;;S11152;2022_Jan_14_1733;VideoMask;2021.1.2;120.016034152481;
6.0;m;016_y_m_h_a.jpg;happy;9.0;happy_9.2ns.avi;happy;9.0;congruent;120.0;150.0;130.52042428082717;h_h;;;;;0;29;29;29;;;;;;;396.65080060000764;None;397.9755286000145;398.29231349998736;399.4260138999962;399.44267160000163;405.3504823000112;None;9;0;0.9996709999977611;405.3504823000112;None;;;;;;;;5;;;;;;;406.9004729000153;None;None;None;[];406.9004729000153;None;None;;406.9004729000153;None;;;S11152;2022_Jan_14_1733;VideoMask;2021.1.2;120.016034152481;
0.0;f;040_y_f_s_a.jpg;sad;7.0;happy_127.3.wmv;happy;9.0;incongruent;130.0;150.0;131.7195455720239;s_h;;;;;0;30;30;30;;;;;;;409.9252865999879;None;411.2335213999904;411.55043030000525;412.67526499999803;412.6919159000099;414.7503260000085;None;9;0;0.7279076999984682;414.7503260000085;None;;;;;;;;9;;;;;;;416.30015369999455;None;None;None;[];416.30015369999455;None;"['9', '9', '9', '9', '9', '9', '9']";"[0.5539527999935672, 0.8099437000055332, 1.0258327999908943, 1.2656853999942541, 1.5623556000064127, 1.978160200000275, 2.4580283999966923]";416.30015369999455;None;;;S11152;2022_Jan_14_1733;VideoMask;2021.1.2;120.016034152481;
0.0;f;030_o_f_s_a.jpg;sad;7.0;happy_125.3.wmv;happy;9.0;incongruent;130.0;150.0;220.51454909128134;s_h;;;;;0;31;31;31;;;;;;;419.30858089998947;None;421.38384359999327;421.69991900000605;422.8333277000056;422.84996290001436;424.8334661000117;None;9;0;0.7245090999931563;424.8334661000117;None;;;;;;;;7;;;;;;;426.37485290001496;None;None;None;[];426.37485290001496;None;"['9', '9']";"[0.37510820000898093, 0.6710593000170775]";426.37485290001496;None;;;S11152;2022_Jan_14_1733;VideoMask;2021.1.2;120.016034152481;
0.0;f;030_o_f_s_a.jpg;sad;7.0;sad_64.3ns.avi;sad;7.0;congruent;130.0;160.0;165.78667874766072;s_s;;;;;0;32;32;32;;;;;;;429.3748809999961;None;430.98295110001345;431.29959670000244;432.441794399987;432.4581013999996;437.4330258000118;None;7;0;0.5491398999874946;437.4330258000118;None;;;;;;;;3;;;;;;;438.982792099996;None;None;None;[];438.982792099996;None;"['7', '7', '7']";"[0.5355469000060111, 0.8552159999962896, 1.1994739000219852]";438.982792099996;None;;;S11152;2022_Jan_14_1733;VideoMask;2021.1.2;120.016034152481;
3.0;m;013_y_m_s_a.jpg;sad;7.0;sad_7.7ns.avi;sad;7.0;congruent;130.0;160.0;196.24182255763262;s_s;;;;;0;33;33;33;;;;;;;441.99123730001156;None;443.849220700009;444.16596969999955;445.34906929999124;445.3657915999938;451.2993279999937;None;7;0;0.4909050000132993;451.2993279999937;None;;;;;;;;4;;;;;;;452.8491074999911;None;None;None;[];452.8491074999911;None;['7'];[0.35707220001495443];452.8491074999911;None;;;S11152;2022_Jan_14_1733;VideoMask;2021.1.2;120.016034152481;
3.0;m;013_y_m_h_a.jpg;happy;9.0;happy_9.1ns.avi;happy;9.0;congruent;120.0;150.0;165.1890303600433;h_h;;;;;0;34;34;34;;;;;;;455.8490418000147;None;457.44915830000537;457.7655580000137;458.89887460001046;458.9156201000151;462.14056979998713;None;None;0;;462.14056979998713;None;;;;;;;;6;;;;;;;463.6988682000083;None;None;None;[];463.6988682000083;None;['9'];[0.33933410001918674];463.6988682000083;None;;;S11152;2022_Jan_14_1733;VideoMask;2021.1.2;120.016034152481;
4.0;m;004_o_m_h_a.jpg;happy;9.0;sad_95.1ns.avi;sad;7.0;incongruent;120.0;160.0;152.68270002069931;h_s;;;;;0;35;35;35;;;;;;;466.69879150000634;None;468.2402698000078;468.5569209000096;469.6819327000121;469.69923210001434;478.4818321999919;None;7;0;0.7403408999962267;478.4818321999919;None;;;;;;;;4;;;;;;;480.0399507000111;None;None;None;[];480.0399507000111;None;['7'];[0.35026880001532845];480.0399507000111;None;;;S11152;2022_Jan_14_1733;VideoMask;2021.1.2;120.016034152481;
3.0;m;013_y_m_h_a.jpg;happy;9.0;sad_113.2.wmv;sad;7.0;incongruent;120.0;160.0;217.4973891947951;h_s;;;;;0;36;36;36;;;;;;;483.03984730000957;None;485.072951500013;485.38995059998706;486.51477420001174;486.5313642999972;488.53139920000103;None;8;0;1.467078199988464;488.53139920000103;None;;;;;;;;5;;;;;;;490.08962109999266;None;None;None;[];490.08962109999266;None;None;;490.08962109999266;None;;;S11152;2022_Jan_14_1733;VideoMask;2021.1.2;120.016034152481;
4.0;m;004_o_m_h_a.jpg;happy;9.0;happy_25.1ns.avi;happy;9.0;congruent;120.0;150.0;216.63044503818386;h_h;;;;;0;37;37;37;;;;;;;493.1144350999966;None;495.1393664999923;495.45606840000255;496.59781579999253;496.6144057000056;500.2811462999962;None;9;0;1.2769902999862097;500.2811462999962;None;;;;;;;;8;;;;;;;501.8392534000159;None;None;None;[];501.8392534000159;None;"['9', '9', '9', '9']";"[0.40673859999515116, 0.7268369999947026, 1.1112479000003077, 1.5109442000102717]";501.8392534000159;None;;;S11152;2022_Jan_14_1733;VideoMask;2021.1.2;120.016034152481;
4.0;m;004_o_m_s_a.jpg;sad;7.0;happy_131.2.wmv;happy;9.0;incongruent;130.0;150.0;181.38407540847405;s_h;;;;;0;38;38;38;;;;;;;504.84769910000614;None;506.5806923999917;506.89753990000463;508.0474392999895;508.063883099996;510.03083540001535;None;9;0;0.527518599992618;510.03083540001535;None;;;;;;;;6;;;;;;;511.5806809999922;None;None;None;[];511.5806809999922;None;['9'];[0.2975039000157267];511.5806809999922;None;;;S11152;2022_Jan_14_1733;VideoMask;2021.1.2;120.016034152481;
0.0;f;040_y_f_h_a.jpg;happy;9.0;happy_24.3ns.avi;happy;9.0;congruent;120.0;150.0;213.25460698950434;h_h;;;;;0;39;39;39;;;;;;;514.5890909000009;None;516.5804051999876;516.8974307999888;518.0475398999988;518.0641952000151;519.9554493000032;None;9;0;1.0670558999991044;519.9554493000032;None;;;;;;;;7;;;;;;;521.5137078000116;None;None;None;[];521.5137078000116;None;"['9', '9', '9', '9']";"[0.3485688999935519, 1.2527293000021018, 1.836702000000514, 2.300656799983699]";521.5137078000116;None;;;S11152;2022_Jan_14_1733;VideoMask;2021.1.2;120.016034152481;
2.0;f;012_o_f_s_a.jpg;sad;7.0;happy_139.1.wmv;happy;9.0;incongruent;130.0;150.0;162.31500468041804;s_h;;;;;0;40;40;40;;;;;;;524.5226191999973;None;526.0884708999947;526.4051357000135;527.5384732999955;527.5549948000116;529.538486800011;None;9;0;0.6998616000055335;529.538486800011;None;;;;;;;;8;;;;;;;531.0884346000094;None;None;None;[];531.0884346000094;None;"['9', '9', '9', '9']";"[0.3656829000101425, 0.7097234000102617, 1.0457927999959793, 1.4058389000128955]";531.0884346000094;None;;;S11152;2022_Jan_14_1733;VideoMask;2021.1.2;120.016034152481;
0.0;f;030_o_f_h_a.jpg;happy;9.0;happy_24.1ns.avi;happy;9.0;congruent;120.0;150.0;168.36256624020774;h_h;;;;;0;41;41;41;;;;;;;534.0967595000111;None;535.7214921000123;536.0382058999967;537.2713707000075;537.2880264999985;540.4965766000096;None;9;0;0.3977274000062607;540.4965766000096;None;;;;;;;;6;;;;;;;542.0463728999894;None;None;None;[];542.0463728999894;None;['9'];[0.2959356000064872];542.0463728999894;None;;;S11152;2022_Jan_14_1733;VideoMask;2021.1.2;120.016034152481;
2.0;f;012_o_f_h_a.jpg;happy;9.0;sad_113.1.wmv;sad;7.0;incongruent;120.0;160.0;177.44551734737394;h_s;;;;;0;42;42;42;;;;;;;545.0546961000073;None;546.7462432000029;547.0629120999947;548.2043703999952;548.2212735000066;550.2129913000099;None;7;0;0.7296329000091646;550.2129913000099;None;;;;;;;;4;;;;;;;551.7711399999971;None;None;None;[];551.7711399999971;None;['7'];[0.26729049999266863];551.7711399999971;None;;;S11152;2022_Jan_14_1733;VideoMask;2021.1.2;120.016034152481;
3.0;m;033_o_m_s_a.jpg;sad;7.0;sad_64.5ns.avi;sad;7.0;congruent;130.0;160.0;130.55717223801247;s_s;;;;;0;43;43;43;;;;;;;554.7711208999972;None;556.0882238000049;556.4042947000125;557.5293448999873;557.5460244000133;564.1209347000113;None;7;0;0.845251399994595;564.1209347000113;None;;;;;;;;3;;;;;;;565.6707458999881;None;None;None;[];565.6707458999881;None;"['7', '7']";"[0.3755920999974478, 0.7197308999893721]";565.6707458999881;None;;;S11152;2022_Jan_14_1733;VideoMask;2021.1.2;120.016034152481;
7.0;m;027_o_m_h_a.jpg;happy;9.0;sad_117.1.wmv;sad;7.0;incongruent;120.0;160.0;181.28665202824095;h_s;;;;;0;44;44;44;;;;;;;568.6791186000046;None;570.4121600000071;570.7288923999877;571.8625181000098;571.8870350999932;573.8623124000151;None;None;0;;573.8623124000151;None;;;;;;;;5;;;;;;;575.4122268999927;None;None;None;[];575.4122268999927;None;None;;575.4122268999927;None;;;S11152;2022_Jan_14_1733;VideoMask;2021.1.2;120.016034152481;
3.0;m;033_o_m_s_a.jpg;sad;7.0;happy_126.3.wmv;happy;9.0;incongruent;130.0;150.0;198.85252030535366;s_h;;;;;0;45;45;45;;;;;;;578.4369508000091;None;580.3035309000115;580.6203196000133;581.7535192999931;581.778410400002;583.7624972999911;None;9;0;1.1639733999909367;583.7624972999911;None;;;;;;;;5;;;;;;;585.5201450999884;None;None;None;[];585.5201450999884;None;None;;585.5201450999884;None;;;S11152;2022_Jan_14_1733;VideoMask;2021.1.2;120.016034152481;
3.0;m;033_o_m_h_a.jpg;happy;9.0;sad_136.1.wmv;sad;7.0;incongruent;120.0;160.0;176.97002883463455;h_s;;;;;0;46;46;46;;;;;;;588.5365900000033;None;590.2282316999917;590.5449442999961;591.6783952999976;591.6949491999985;593.6783472000097;None;None;0;;593.6783472000097;None;;;;;;;;6;;;;;;;595.2283823000034;None;None;None;[];595.2283823000034;None;['9'];[1.8821907000092324];595.2283823000034;None;;;S11152;2022_Jan_14_1733;VideoMask;2021.1.2;120.016034152481;
9.0;f;019_m_f_h_a.jpg;happy;9.0;happy_10.1ns.avi;happy;9.0;congruent;120.0;150.0;157.2463435658512;h_h;;;;;0;47;47;47;;;;;;;598.2282842000131;None;599.7864174999995;600.1029926000047;601.2780976000067;601.2947352000047;608.6777906999923;None;9;0;0.4965545999875758;608.6777906999923;None;;;;;;;;6;;;;;;;610.2277376000129;None;None;None;[];610.2277376000129;None;['9'];[0.28289430000586435];610.2277376000129;None;;;S11152;2022_Jan_14_1733;VideoMask;2021.1.2;120.016034152481;
2.0;f;012_o_f_h_a.jpg;happy;9.0;happy_2.2ns.avi;happy;9.0;congruent;120.0;150.0;206.34800317295262;h_h;;;;;0;48;48;48;;;;;;;613.2361185000045;None;615.2442823000019;615.5608951000031;616.6942400000116;616.7115217999963;628.894088800007;None;9;0;0.504248400015058;628.894088800007;None;;;;;;;;6;;;;;;;630.4521390000009;None;None;None;[];630.4521390000009;None;['9'];[0.3940625000104774];630.4521390000009;None;;;S11152;2022_Jan_14_1733;VideoMask;2021.1.2;120.016034152481;
3.0;m;033_o_m_h_a.jpg;happy;9.0;happy_24.2ns.avi;happy;9.0;congruent;120.0;150.0;167.9423847659953;h_h;;;;;0;49;49;49;;;;;;;633.4605543999933;None;635.0769453000103;635.393576100003;636.5270598999923;636.544011799997;640.2518520999874;None;9;0;0.9382945999968797;640.2518520999874;None;;;;;;;;6;;;;;;;641.8018168999988;None;None;None;[];641.8018168999988;None;['9'];[0.37250650001806207];641.8018168999988;None;;;S11152;2022_Jan_14_1733;VideoMask;2021.1.2;120.016034152481;
1.0;f;021_o_f_s_a.jpg;sad;7.0;happy_61.2ns.avi;happy;9.0;incongruent;130.0;150.0;210.94664004826666;s_h;;;;;0;50;50;50;;;;;;;644.810198399995;None;646.8183495000121;647.1349658000108;648.334973399993;648.3516197999998;652.7932647000125;None;9;0;0.41300459997728467;652.7932647000125;None;;;;;;;;7;;;;;;;654.34316389999;None;None;None;[];654.34316389999;None;"['9', '9']";"[0.2714006000023801, 0.5430731999804266]";654.34316389999;None;;;S11152;2022_Jan_14_1733;VideoMask;2021.1.2;120.016034152481;
4.0;m;004_o_m_s_a.jpg;sad;7.0;sad_2.4ns.avi;sad;7.0;congruent;130.0;160.0;153.02079367163634;s_s;;;;;0;51;51;51;;;;;;;657.3430850000004;None;658.8513348000124;659.1680022999935;660.3762834999943;660.392748000013;668.2595857999986;None;7;0;0.29918969998834655;668.2595857999986;None;;;;;;;;4;;;;;;;669.8176545999886;None;None;None;[];669.8176545999886;None;"['7', '7']";"[0.26087790000019595, 0.7329253000207245]";669.8176545999886;None;;;S11152;2022_Jan_14_1733;VideoMask;2021.1.2;120.016034152481;
8.0;m;008_y_m_h_a.jpg;happy;9.0;happy_1.2ns.avi;happy;9.0;congruent;120.0;150.0;210.98946429383824;h_h;;;;;0;52;52;52;;;;;;;672.8180514000123;None;674.8675210000074;675.1840621000156;676.3347813000146;676.3511332999915;689.1086922000104;None;9;0;0.6737347999878693;689.1086922000104;None;;;;;;;;6;;;;;;;691.0836685000104;None;None;None;[];691.0836685000104;None;"['9', '9']";"[0.9867612999805715, 1.4590726000024006]";691.0836685000104;None;;;S11152;2022_Jan_14_1733;VideoMask;2021.1.2;120.016034152481;
2.0;f;012_o_f_s_a.jpg;sad;7.0;happy_52.2ns.avi;happy;9.0;incongruent;130.0;150.0;172.57202848318138;s_h;;;;;0;53;53;53;;;;;;;694.0836008999904;None;695.7333490999881;696.0500974000024;697.2665871999925;697.284086700005;700.7336316000146;None;9;0;0.4647752000018954;700.7336316000146;None;;;;;;;;6;;;;;;;702.2833390999876;None;None;None;[];702.2833390999876;None;['9'];[2.03503160001128];702.2833390999876;None;;;S11152;2022_Jan_14_1733;VideoMask;2021.1.2;120.016034152481;
9.0;f;019_m_f_s_a.jpg;sad;7.0;happy_61.1ns.avi;happy;9.0;incongruent;130.0;150.0;181.3003220572762;s_h;;;;;0;54;54;54;;;;;;;705.2833049999899;None;707.0580269999919;707.3747790000052;708.5163345999899;708.5332036000036;715.9004003999871;None;9;0;0.7302001999923959;715.9004003999871;None;;;;;;;;6;;;;;;;717.457928799995;None;None;None;[];717.457928799995;None;['9'];[0.3326107999891974];717.457928799995;None;;;S11152;2022_Jan_14_1733;VideoMask;2021.1.2;120.016034152481;
0.0;f;030_o_f_h_a.jpg;happy;9.0;sad_133.1.wmv;sad;7.0;incongruent;120.0;160.0;198.86251500867985;h_s;;;;;0;55;55;55;;;;;;;720.4578549000144;None;722.3326438000076;722.6494543000008;723.7828273999912;723.7994345999905;725.7827636000002;None;7;0;0.2874848000064958;725.7827636000002;None;;;;;;;;4;;;;;;;727.332582300005;None;None;None;[];727.332582300005;None;['7'];[0.3216885000001639];727.332582300005;None;;;S11152;2022_Jan_14_1733;VideoMask;2021.1.2;120.016034152481;
0.0;f;040_y_f_h_a.jpg;happy;9.0;sad_128.2.wmv;sad;7.0;incongruent;120.0;160.0;206.10005857915363;h_s;;;;;0;56;56;56;;;;;;;730.3325537999917;None;732.257267500012;732.5740894000046;733.7241829000122;733.740527099988;735.7073496000085;None;7;0;0.6351386999886017;735.7073496000085;None;;;;;;;;4;;;;;;;737.2572830000136;None;None;None;[];737.2572830000136;None;['7'];[0.2769895999808796];737.2572830000136;None;;;S11152;2022_Jan_14_1733;VideoMask;2021.1.2;120.016034152481;
1.0;f;021_o_f_s_a.jpg;sad;7.0;sad_9.5ns.avi;sad;7.0;congruent;130.0;160.0;206.16642757875042;s_s;;;;;0;57;57;57;;;;;;;740.2656895999971;None;742.1986662000127;742.5154057999898;743.7155178000103;743.732176599995;749.3736906000122;None;7;0;0.4888288000074681;749.3736906000122;None;;;;;;;;2;;;;;;;750.9235618000093;None;None;None;[];750.9235618000093;None;"['7', '7', '7', '7']";"[0.2905857999867294, 0.6108030999894254, 0.9468857999891043, 1.346854000003077]";750.9235618000093;None;;;S11152;2022_Jan_14_1733;VideoMask;2021.1.2;120.016034152481;
1.0;f;021_o_f_h_a.jpg;happy;9.0;happy_12.1ns.avi;happy;9.0;congruent;120.0;150.0;132.59080005900228;h_h;;;;;0;58;58;58;;;;;;;753.9318529999873;None;755.2901082999888;755.6067712999939;756.7650383000146;756.7816277999955;764.3565631000092;None;9;0;0.889828600018518;764.3565631000092;None;;;;;;;;9;;;;;;;765.9063463000057;None;None;None;[];765.9063463000057;None;"['9', '9', '9', '9']";"[0.5400356999889482, 0.80393140000524, 1.0999469000089448, 1.420118799986085]";765.9063463000057;None;;;S11152;2022_Jan_14_1733;VideoMask;2021.1.2;120.016034152481;
3.0;m;013_y_m_s_a.jpg;sad;7.0;happy_56.2ns.avi;happy;9.0;incongruent;130.0;150.0;163.39234110935848;s_h;;;;;0;59;59;59;;;;;;;768.9064928999869;None;770.4981282000081;770.8146320999949;771.9811362999899;771.997987300012;776.9729234999977;None;9;0;0.5214748999860603;776.9729234999977;None;;;;;;;;9;;;;;;;778.5227596999903;None;None;None;[];778.5227596999903;None;"['9', '9', '9', '9', '9', '9', '9']";"[0.22779229999287054, 0.4835337999975309, 0.73957320000045, 1.0276099999900907, 1.315854099986609, 1.6517356999975163, 2.003549299988663]";778.5227596999903;None;;;S11152;2022_Jan_14_1733;VideoMask;2021.1.2;120.016034152481;
;;;;;;;;;;;;;;;;;;;;;;;;;;;;;;;;;;;;;;;;;;;;;;;;;;;;;;;;;;;;;;;;;781.5311291000107;None;;;;;;
