primePerson;primeGender;prime;primeEmotion;corrAnsPrime;target;targetEmotion;corrAnsTar;Cond;ID_Primer;ID_Target;JitterTime;Condition;example.thisRepN;example.thisTrialN;example.thisN;example.thisIndex;study.thisRepN;study.thisTrialN;study.thisN;study.thisIndex;MR_trigger_time;MR_trigger_number;text_intro.started;text_intro.stopped;text_probe.started;text_probe.stopped;polygon_ISI.started;polygon_ISI.stopped;polygon.started;polygon.stopped;primerImage.started;primerImage.stopped;response.started;response.stopped;key_resp.keys;key_resp.corr;key_resp.rt;key_resp.started;key_resp.stopped;slider_Text.started;slider_Text.stopped;slider_ex.response;slider_ex.rt;slider_ex.history;slider_ex.started;slider_ex.stopped;Rating;slider_resp_response.keys;slider_resp_response.rt;slider_resp_response.started;slider_resp_response.stopped;text_start.started;text_start.stopped;text_slider.started;text_slider.stopped;slider_stud.response;slider_stud.rt;slider_stud.history;slider_stud.started;slider_stud.stopped;slider_resp_study.keys;slider_resp_study.rt;slider_resp_study.started;slider_resp_study.stopped;text_ende.started;text_ende.stopped;participant;date;expName;psychopyVersion;frameRate;
1111;m;1111_m_m_h_a.jpg;happy;9;example_30.4ns.avi;neutral;7;incongruent;120.0;170.0;189.5874364012288;;0;0;0;0;;;;;142.16918279998936;1;142.24658619996626;144.24686610000208;144.24686610000208;None;146.2633174000075;None;148.96520519990008;149.2882722999202;150.45489289995749;150.47158289991785;154.76323959999718;None;9;0;0.718842800008133;154.76323959999718;None;156.3212208999321;None;None;None;[];156.3212208999321;None;9;"['9', '9', '9', '9', '9']";"[0.48885349999181926, 1.216730699990876, 1.5686201000353321, 1.8968020000029355, 2.296640800079331]";156.3212208999321;None;;;;;;;;;;;;;;;;S11171;2022_Jan_27_1436;VideoMask;2021.1.2;120.05998197646944;
1113;f;1113_y_f_s_a.jpg;sad;7;example_30.3ns.avi;neutral;7;incongruent;130.0;170.0;229.02432995836998;;0;1;1;1;;;;;;;;;;;159.31307259993628;None;161.42109630000778;161.7377973999828;162.90454099990893;162.92119149991777;164.8711542999372;None;9;0;0.7547817000886425;164.8711542999372;None;166.42105889995582;None;None;None;[];166.42105889995582;None;9;"['9', '9', '9', '9']";"[0.47701669996604323, 1.516846499987878, 2.0208998000016436, 2.6932881000684574]";166.42105889995582;None;;;;;;;;;;;;;;;;S11171;2022_Jan_27_1436;VideoMask;2021.1.2;120.05998197646944;
9.0;f;019_m_f_h_a.jpg;happy;9.0;sad_115.1.wmv;sad;7.0;incongruent;120.0;160.0;128.09063432376465;h_s;;;;;0;0;0;0;;;;;;;170.4542780999327;None;171.72915289993398;172.04573779995553;173.17890649999026;173.1958451999817;175.17917739995755;None;7;0;0.7667060000821948;175.17917739995755;None;;;;;;;;2;;;;;169.42112279997673;None;176.73741800000425;None;None;None;[];176.73741800000425;None;"['7', '7', '7']";"[0.4167575999163091, 0.7206903999904171, 2.0726337999803945]";176.73741800000425;None;;;S11171;2022_Jan_27_1436;VideoMask;2021.1.2;120.05998197646944;
3.0;m;033_o_m_s_a.jpg;sad;7.0;sad_94.2ns.avi;sad;7.0;congruent;130.0;160.0;182.29120173647655;s_s;;;;;0;1;1;1;;;;;;;179.73731549992226;None;181.45384749991354;181.77057349996176;182.9039387999801;182.92089680000208;185.59556639997754;None;7;0;0.5903392999898642;185.59556639997754;None;;;;;;;;1;;;;;;;187.14545489999;None;None;None;[];187.14545489999;None;"['7', '7', '7', '7', '7', '7']";"[0.4486425999784842, 0.7683218000456691, 1.1684023999841884, 1.5607113000005484, 1.9205534999491647, 2.9287120000226423]";187.14545489999;None;;;S11171;2022_Jan_27_1436;VideoMask;2021.1.2;120.05998197646944;
8.0;m;008_y_m_h_a.jpg;happy;9.0;happy_26.1ns.avi;happy;9.0;congruent;120.0;150.0;155.9437854594882;h_h;;;;;0;2;2;2;;;;;;;190.14542529999744;None;191.62855699995998;191.9451124999905;193.09538159996737;193.11195749999024;195.07026319997385;None;9;0;0.7718540000496432;195.07026319997385;None;;;;;;;;9;;;;;;;196.62014509993605;None;None;None;[];196.62014509993605;None;"['9', '9', '9', '9']";"[0.42987400002311915, 1.1897888000821695, 1.589803000097163, 2.1982370000332594]";196.62014509993605;None;;;S11171;2022_Jan_27_1436;VideoMask;2021.1.2;120.05998197646944;
0.0;f;040_y_f_h_a.jpg;happy;9.0;sad_138.1.wmv;sad;7.0;incongruent;120.0;160.0;133.99071306426532;h_s;;;;;0;3;3;3;;;;;;;199.62006669992115;None;200.95331249991432;201.26996760000475;202.39508469996508;202.41162119992077;204.40329199994449;None;7;0;0.5427319000009447;204.40329199994449;None;;;;;;;;1;;;;;;;206.1615641999524;None;None;None;[];206.1615641999524;None;"['7', '7', '7', '7', '7', '7', '7']";"[0.33652590005658567, 0.6002017999999225, 1.0167330000549555, 1.3924009000184014, 1.7442969999974594, 2.136426700046286, 2.4966730000451207]";206.1615641999524;None;;;S11171;2022_Jan_27_1436;VideoMask;2021.1.2;120.05998197646944;
8.0;f;028_y_f_s_a.jpg;sad;7.0;sad_64.2ns.avi;sad;7.0;congruent;130.0;160.0;229.88540597086478;s_s;;;;;0;4;4;4;;;;;;;209.1614829999162;None;211.30297299998347;211.61967349995393;212.76142459991388;212.77804219990503;223.752738299896;None;7;0;0.6411620000144467;223.752738299896;None;;;;;;;;1;;;;;;;225.30268439999782;None;None;None;[];225.30268439999782;None;"['7', '7', '7', '7']";"[0.39556330000050366, 0.699124600039795, 1.0512686999281868, 1.5152649999363348]";225.30268439999782;None;;;S11171;2022_Jan_27_1436;VideoMask;2021.1.2;120.05998197646944;
7.0;m;027_o_m_s_a.jpg;sad;7.0;sad_10.4ns.avi;sad;7.0;congruent;130.0;160.0;185.20129417468752;s_s;;;;;0;5;5;5;;;;;;;228.3026649999665;None;230.044112799922;230.36080439994112;231.5031840999145;231.5273188999854;234.6609315999085;None;7;0;0.8052287999307737;234.6609315999085;None;;;;;;;;2;;;;;;;236.20235599996522;None;None;None;[];236.20235599996522;None;"['7', '7', '7']";"[0.3758791000582278, 0.7197781000286341, 1.2557886999566108]";236.20235599996522;None;;;S11171;2022_Jan_27_1436;VideoMask;2021.1.2;120.05998197646944;
2.0;f;012_o_f_s_a.jpg;sad;7.0;sad_7.5ns.avi;sad;7.0;congruent;130.0;160.0;220.27842655424388;s_s;;;;;0;6;6;6;;;;;;;239.21067479997873;None;241.23550829989836;241.55216590000782;242.76049069990404;242.7771871999139;245.4777252000058;None;7;0;0.7883218999486417;245.4777252000058;None;;;;;;;;2;;;;;;;247.3436847999692;None;None;None;[];247.3436847999692;None;"['7', '7', '7', '7']";"[0.40244620002340525, 0.7464791999664158, 1.090361600043252, 1.7465801000362262]";247.3436847999692;None;;;S11171;2022_Jan_27_1436;VideoMask;2021.1.2;120.05998197646944;
2.0;f;012_o_f_h_a.jpg;happy;9.0;happy_27.1ns.avi;happy;9.0;congruent;120.0;150.0;146.44967055810616;h_h;;;;;0;7;7;7;;;;;;;250.3521334999241;None;251.7684282999253;252.08514229999855;253.24350899993442;253.2601901999442;255.7101118999999;None;9;0;0.5478189999703318;255.7101118999999;None;;;;;;;;9;;;;;;;257.260026199976;None;None;None;[];257.260026199976;None;"['9', '9', '9', '9', '9']";"[0.28620450000744313, 1.0620469000423327, 1.1738895999733359, 1.7897854000329971, 2.9579510999610648]";257.260026199976;None;;;S11171;2022_Jan_27_1436;VideoMask;2021.1.2;120.05998197646944;
8.0;f;028_y_f_h_a.jpg;happy;9.0;sad_119.1.wmv;sad;7.0;incongruent;120.0;160.0;148.71526953572538;h_s;;;;;0;8;8;8;;;;;;;260.25997169991024;None;261.7099095999729;262.0265809999546;263.1682098999154;263.1847732999595;265.2265111999586;None;7;0;0.9039785000495613;265.2265111999586;None;;;;;;;;2;;;;;;;266.7762956999941;None;None;None;[];266.7762956999941;None;"['7', '7', '7']";"[0.38591459998860955, 0.7378070999402553, 1.3381141999270767]";266.7762956999941;None;;;S11171;2022_Jan_27_1436;VideoMask;2021.1.2;120.05998197646944;
6.0;m;016_y_m_s_a.jpg;sad;7.0;happy_60.4ns.avi;happy;9.0;incongruent;130.0;150.0;126.02367393611817;s_h;;;;;0;9;9;9;;;;;;;269.7848200999433;None;271.04298799997196;271.35946309997234;272.50129559997004;272.51793969993014;278.284459699993;None;9;0;0.7338118000188842;278.284459699993;None;;;;;;;;8;;;;;;;279.8343912999844;None;None;None;[];279.8343912999844;None;"['9', '9', '9']";"[0.20781089994125068, 0.6237762999953702, 1.0079337999923155]";279.8343912999844;None;;;S11171;2022_Jan_27_1436;VideoMask;2021.1.2;120.05998197646944;
9.0;f;019_m_f_s_a.jpg;sad;7.0;sad_8.4ns.avi;sad;7.0;congruent;130.0;160.0;171.6633093155257;s_s;;;;;0;10;10;10;;;;;;;282.84271259990055;None;284.4925884999102;284.80910539999604;285.9598753999453;285.9925423999084;294.0756795000052;None;7;0;0.48649649997241795;294.0756795000052;None;;;;;;;;3;;;;;;;295.6339148998959;None;None;None;[];295.6339148998959;None;"['7', '7', '7']";"[0.2884150999598205, 0.7119524999288842, 1.2322531999088824]";295.6339148998959;None;;;S11171;2022_Jan_27_1436;VideoMask;2021.1.2;120.05998197646944;
4.0;m;004_o_m_h_a.jpg;happy;9.0;happy_1.1ns.avi;happy;9.0;congruent;120.0;150.0;203.50057144619865;h_h;;;;;0;11;11;11;;;;;;;298.6339190999279;None;300.59191499999724;300.908763299929;302.04207959992345;302.05870749999303;316.52479329996277;None;9;0;1.405528899980709;316.52479329996277;None;;;;;;;;6;;;;;;;318.06661669991445;None;None;None;[];318.06661669991445;None;"['9', '9']";"[0.5356623999541625, 1.3037567998981103]";318.06661669991445;None;;;S11171;2022_Jan_27_1436;VideoMask;2021.1.2;120.05998197646944;
7.0;m;027_o_m_h_a.jpg;happy;9.0;happy_20.1ns.avi;happy;9.0;congruent;120.0;150.0;152.91127178874285;h_h;;;;;0;12;12;12;;;;;;;321.0664833999472;None;322.5413014999358;322.8579790999647;323.9751550999936;323.9920309999725;327.0080264999997;None;9;0;0.7221346000442281;327.0080264999997;None;;;;;;;;7;;;;;;;328.5829398999922;None;None;None;[];328.5829398999922;None;"['9', '9']";"[0.30740479996893555, 0.9473163000075147]";328.5829398999922;None;;;S11171;2022_Jan_27_1436;VideoMask;2021.1.2;120.05998197646944;
0.0;f;040_y_f_s_a.jpg;sad;7.0;sad_94.3ns.avi;sad;7.0;congruent;130.0;160.0;155.27414203894395;s_s;;;;;0;13;13;13;;;;;;;331.5828806000063;None;333.0660095999483;333.3828209999483;334.52428129990585;334.54111589991953;337.1410864999052;None;7;0;0.6692487000254914;337.1410864999052;None;;;;;;;;3;;;;;;;338.6909619999351;None;None;None;[];338.6909619999351;None;"['7', '7']";"[0.35927240003366023, 1.0074590999865904]";338.6909619999351;None;;;S11171;2022_Jan_27_1436;VideoMask;2021.1.2;120.05998197646944;
0.0;f;030_o_f_s_a.jpg;sad;7.0;sad_68.1ns.avi;sad;7.0;congruent;130.0;160.0;158.9411396037211;s_s;;;;;0;14;14;14;;;;;;;341.6993650000077;None;343.24075499991886;343.55742589989677;344.75751009990927;344.7739618999185;352.1155615999596;None;7;0;0.5508616000879556;352.1155615999596;None;;;;;;;;1;;;;;;;353.6821701999288;None;None;None;[];353.6821701999288;None;"['7', '7', '7', '7']";"[0.24817650008480996, 0.5362227000296116, 0.8239670000039041, 1.2000265000388026]";353.6821701999288;None;;;S11171;2022_Jan_27_1436;VideoMask;2021.1.2;120.05998197646944;
0.0;f;030_o_f_h_a.jpg;happy;9.0;sad_127.1.wmv;sad;7.0;incongruent;120.0;160.0;180.59976631384873;h_s;;;;;0;15;15;15;;;;;;;356.6905774999177;None;358.3902926999144;358.7069879999617;359.8404226999264;359.8570091999136;361.8404309999896;None;7;0;0.8497757000150159;361.8404309999896;None;;;;;;;;3;;;;;;;363.39022800000384;None;None;None;[];363.39022800000384;None;"['7', '7']";"[0.3881173999980092, 1.0441986999940127]";363.39022800000384;None;;;S11171;2022_Jan_27_1436;VideoMask;2021.1.2;120.05998197646944;
8.0;m;008_y_m_s_a.jpg;sad;7.0;happy_133.3.wmv;happy;9.0;incongruent;130.0;150.0;152.577966552593;s_h;;;;;0;16;16;16;;;;;;;366.3901374998968;None;367.8818148999708;368.1982712999452;369.32344059995376;369.34003869991284;371.33162359998096;None;9;0;0.4066437999717891;371.33162359998096;None;;;;;;;;9;;;;;;;372.8732883000048;None;None;None;[];372.8732883000048;None;"['9', '9', '9', '9', '9']";"[0.25722309993579984, 0.544975999975577, 0.8488509999588132, 1.3367892999667674, 2.2250497000059113]";372.8732883000048;None;;;S11171;2022_Jan_27_1436;VideoMask;2021.1.2;120.05998197646944;
3.0;m;033_o_m_h_a.jpg;happy;9.0;sad_128.1.wmv;sad;7.0;incongruent;120.0;160.0;171.0492454518585;h_s;;;;;0;17;17;17;;;;;;;375.8815221999539;None;377.5230731999036;377.83974429999944;378.97300299990457;378.98982439993415;380.97308899997734;None;7;0;0.6292152999667451;380.97308899997734;None;;;;;;;;2;;;;;;;382.5230340999551;None;None;None;[];382.5230340999551;None;"['7', '7', '7']";"[0.303429999970831, 0.6394083000486717, 1.471277500037104]";382.5230340999551;None;;;S11171;2022_Jan_27_1436;VideoMask;2021.1.2;120.05998197646944;
1.0;f;021_o_f_h_a.jpg;happy;9.0;sad_116.1.wmv;sad;7.0;incongruent;120.0;160.0;184.06847610053055;h_s;;;;;0;18;18;18;;;;;;;385.5313879000023;None;387.28108529991005;387.59771169989835;388.73109419993125;388.74787209997885;390.73110759991687;None;7;0;0.6792837999528274;390.73110759991687;None;;;;;;;;2;;;;;;;392.28103670000564;None;None;None;[];392.28103670000564;None;"['7', '7', '7']";"[0.3452869999455288, 1.0253446999704465, 2.8972450000001118]";392.28103670000564;None;;;S11171;2022_Jan_27_1436;VideoMask;2021.1.2;120.05998197646944;
4.0;m;004_o_m_s_a.jpg;sad;7.0;happy_28.1ns.avi;happy;9.0;incongruent;130.0;150.0;157.40741103039684;s_h;;;;;0;19;19;19;;;;;;;395.28101619996596;None;396.78913900000043;397.105875399895;398.24746719992254;398.26420400000643;402.630837899982;None;9;0;0.47536229994148016;402.630837899982;None;;;;;;;;9;;;;;;;404.1807179999305;None;None;None;[];404.1807179999305;None;"['9', '9', '9', '9']";"[0.2456200000597164, 0.9416674000676721, 1.3097666000248864, 1.9735069000162184]";404.1807179999305;None;;;S11171;2022_Jan_27_1436;VideoMask;2021.1.2;120.05998197646944;
8.0;f;028_y_f_s_a.jpg;sad;7.0;happy_122.3.wmv;happy;9.0;incongruent;130.0;150.0;171.8670540936116;s_h;;;;;0;20;20;20;;;;;;;407.1808033999987;None;408.8304492000025;409.1471036999719;410.28055359993596;410.2971391999163;412.2804683999857;None;9;0;0.44175550004001707;412.2804683999857;None;;;;;;;;8;;;;;;;413.8304342000047;None;None;None;[];413.8304342000047;None;"['9', '9', '9']";"[0.31596699997317046, 0.916016299976036, 2.1638873999472708]";413.8304342000047;None;;;S11171;2022_Jan_27_1436;VideoMask;2021.1.2;120.05998197646944;
8.0;m;008_y_m_s_a.jpg;sad;7.0;sad_6.5ns.avi;sad;7.0;congruent;130.0;160.0;170.39333839271438;s_s;;;;;0;21;21;21;;;;;;;416.83039829996414;None;418.45514159998856;418.771871099947;419.9301658999175;419.94690529990476;424.92178839992266;None;7;0;0.4644374999916181;424.92178839992266;None;;;;;;;;3;;;;;;;426.47169229993597;None;None;None;[];426.47169229993597;None;"['7', '7']";"[0.30651220004074275, 1.0425542000448331]";426.47169229993597;None;;;S11171;2022_Jan_27_1436;VideoMask;2021.1.2;120.05998197646944;
8.0;f;028_y_f_h_a.jpg;happy;9.0;happy_23.1ns.avi;happy;9.0;congruent;120.0;150.0;225.70986890587952;h_h;;;;;0;22;22;22;;;;;;;429.4801840999862;None;431.56313629995566;431.8797271999065;433.02139239991084;433.03816609992646;437.5880837999284;None;9;0;0.4302416999125853;437.5880837999284;None;;;;;;;;9;;;;;;;439.1379435999552;None;None;None;[];439.1379435999552;None;"['9', '9', '9', '9']";"[0.2725866000400856, 0.6080227000638843, 0.9684129999950528, 1.5284428000450134]";439.1379435999552;None;;;S11171;2022_Jan_27_1436;VideoMask;2021.1.2;120.05998197646944;
8.0;m;008_y_m_h_a.jpg;happy;9.0;sad_111.1.wmv;sad;7.0;incongruent;120.0;160.0;152.63076835312847;h_s;;;;;0;23;23;23;;;;;;;442.14628909993917;None;443.6211433999706;443.9378668999998;445.0712029999122;445.08784389996435;447.0711155999452;None;7;0;0.9395591000793502;447.0711155999452;None;;;;;;;;3;;;;;;;448.6210563000059;None;None;None;[];448.6210563000059;None;"['7', '7']";"[0.573224899941124, 1.7573739999206737]";448.6210563000059;None;;;S11171;2022_Jan_27_1436;VideoMask;2021.1.2;120.05998197646944;
0.0;f;040_y_f_s_a.jpg;sad;7.0;sad_67.2ns.avi;sad;7.0;congruent;130.0;160.0;220.9892697323079;s_s;;;;;0;24;24;24;;;;;;;451.62095079990104;None;453.6874918999383;454.0042298999615;455.1542215999216;455.17085749993566;464.3624196999008;None;7;0;0.47214580001309514;464.3624196999008;None;;;;;;;;2;;;;;;;465.9121929999674;None;None;None;[];465.9121929999674;None;"['7', '7', '7', '7', '7']";"[0.28196379996370524, 0.5701116999844089, 0.9462930000154302, 1.4903127000434324, 2.3861778000136837]";465.9121929999674;None;;;S11171;2022_Jan_27_1436;VideoMask;2021.1.2;120.05998197646944;
8.0;m;008_y_m_s_a.jpg;sad;7.0;happy_29.1ns.avi;happy;9.0;incongruent;130.0;150.0;120.0316142834122;s_h;;;;;0;25;25;25;;;;;;;468.92055409995373;None;470.1287959999172;470.4453101999825;471.611799199949;471.6287623998942;474.2704167999327;None;9;0;0.3961741999955848;474.2704167999327;None;;;;;;;;8;;;;;;;475.8286046999274;None;None;None;[];475.8286046999274;None;"['9', '9', '9']";"[0.30950420000590384, 0.6615425000200048, 1.4297526000300422]";475.8286046999274;None;;;S11171;2022_Jan_27_1436;VideoMask;2021.1.2;120.05998197646944;
6.0;m;016_y_m_s_a.jpg;sad;7.0;sad_8.3ns.avi;sad;7.0;congruent;130.0;160.0;152.85371098242734;s_s;;;;;0;26;26;26;;;;;;;478.82860689994413;None;480.31171489995904;480.6283750999719;481.7698885999853;481.78673509997316;489.5199914999539;None;7;0;0.5703470000298694;489.5199914999539;None;;;;;;;;3;;;;;;;491.0697838999331;None;None;None;[];491.0697838999331;None;"['7', '7', '7']";"[0.3327110999962315, 1.0447553000412881, 2.0765219000168145]";491.0697838999331;None;;;S11171;2022_Jan_27_1436;VideoMask;2021.1.2;120.05998197646944;
6.0;m;016_y_m_h_a.jpg;happy;9.0;sad_114.1.wmv;sad;7.0;incongruent;120.0;160.0;136.20550699298644;h_s;;;;;0;27;27;27;;;;;;;494.0698751999298;None;495.4112378999125;495.72783789993264;496.85309200000484;496.8696613999782;498.86124719993677;None;7;0;0.5091856000944972;498.86124719993677;None;;;;;;;;1;;;;;;;500.4112030999968;None;None;None;[];500.4112030999968;None;"['7', '7', '7', '7']";"[0.2870957999257371, 0.5511322999373078, 0.967313600005582, 1.599175399984233]";500.4112030999968;None;;;S11171;2022_Jan_27_1436;VideoMask;2021.1.2;120.05998197646944;
7.0;m;027_o_m_s_a.jpg;sad;7.0;happy_117.3.wmv;happy;9.0;incongruent;130.0;150.0;215.61964028550614;s_h;;;;;0;28;28;28;;;;;;;503.4196563999867;None;505.41929399990477;505.7359383999137;506.8610951999435;506.8776751999976;508.86929699999746;None;None;0;;508.86929699999746;None;;;;;;;;5;;;;;;;510.4191096998984;None;None;None;[];510.4191096998984;None;None;;510.4191096998984;None;;;S11171;2022_Jan_27_1436;VideoMask;2021.1.2;120.05998197646944;
6.0;m;016_y_m_h_a.jpg;happy;9.0;happy_9.2ns.avi;happy;9.0;congruent;120.0;150.0;130.52042428082717;h_h;;;;;0;29;29;29;;;;;;;513.4441843999084;None;514.7356672999449;515.0523293999722;516.1774442999158;516.1941243999172;522.1105728999246;None;9;0;0.3398492999840528;522.1105728999246;None;;;;;;;;8;;;;;;;523.6603400999447;None;None;None;[];523.6603400999447;None;"['9', '9', '9']";"[0.3183338000671938, 1.3661628999980167, 1.9181800000369549]";523.6603400999447;None;;;S11171;2022_Jan_27_1436;VideoMask;2021.1.2;120.05998197646944;
0.0;f;040_y_f_s_a.jpg;sad;7.0;happy_127.3.wmv;happy;9.0;incongruent;130.0;150.0;131.7195455720239;s_h;;;;;0;30;30;30;;;;;;;526.6604483999545;None;527.9602808000054;528.276867599925;529.4104327999521;529.4269587999443;531.4769743999932;None;9;0;0.5336388000287116;531.4769743999932;None;;;;;;;;9;;;;;;;533.0267911999254;None;None;None;[];533.0267911999254;None;"['9', '9', '9', '9', '9']";"[0.22369820007588714, 0.9675190000561997, 1.471650000079535, 2.351711100083776, 2.871927800006233]";533.0267911999254;None;;;S11171;2022_Jan_27_1436;VideoMask;2021.1.2;120.05998197646944;
0.0;f;030_o_f_s_a.jpg;sad;7.0;happy_125.3.wmv;happy;9.0;incongruent;130.0;150.0;220.51454909128134;s_h;;;;;0;31;31;31;;;;;;;536.0268367999233;None;538.0682418999495;538.3850533999503;539.5183721999638;539.5350249999901;541.518333899905;None;9;0;0.6040386999957263;541.518333899905;None;;;;;;;;7;;;;;;;543.0682650998933;None;None;None;[];543.0682650998933;None;"['9', '9']";"[0.3578497999114916, 1.5742305999156088]";543.0682650998933;None;;;S11171;2022_Jan_27_1436;VideoMask;2021.1.2;120.05998197646944;
0.0;f;030_o_f_s_a.jpg;sad;7.0;sad_64.3ns.avi;sad;7.0;congruent;130.0;160.0;165.78667874766072;s_s;;;;;0;32;32;32;;;;;;;546.0764621999115;None;547.6847097999416;548.001376900007;549.1346522999229;549.151286499924;554.1347763999365;None;7;0;0.5957214999943972;554.1347763999365;None;;;;;;;;1;;;;;;;555.6845000999747;None;None;None;[];555.6845000999747;None;"['7', '7', '7', '7']";"[0.46960509999189526, 0.7340063999872655, 0.9737403000472113, 1.2138192999409512]";555.6845000999747;None;;;S11171;2022_Jan_27_1436;VideoMask;2021.1.2;120.05998197646944;
3.0;m;013_y_m_s_a.jpg;sad;7.0;sad_7.7ns.avi;sad;7.0;congruent;130.0;160.0;196.24182255763262;s_s;;;;;0;33;33;33;;;;;;;558.6846587999025;None;560.5260156999575;560.8426722999429;561.9925397000043;562.0093944999389;567.9759049999993;None;7;0;0.7786944999825209;567.9759049999993;None;;;;;;;;3;;;;;;;569.5174693999579;None;None;None;[];569.5174693999579;None;"['7', '7']";"[0.38115569995716214, 0.7888224000344053]";569.5174693999579;None;;;S11171;2022_Jan_27_1436;VideoMask;2021.1.2;120.05998197646944;
3.0;m;013_y_m_h_a.jpg;happy;9.0;happy_9.1ns.avi;happy;9.0;congruent;120.0;150.0;165.1890303600433;h_h;;;;;0;34;34;34;;;;;;;572.5173043999821;None;574.1005748999305;574.417279599933;575.6256432000082;575.6421441999264;578.7757005000021;None;9;0;0.45062789996154606;578.7757005000021;None;;;;;;;;7;;;;;;;580.3255008999258;None;None;None;[];580.3255008999258;None;"['9', '9', '9']";"[0.2771310000680387, 0.6930762000847608, 1.6688880000729114]";580.3255008999258;None;;;S11171;2022_Jan_27_1436;VideoMask;2021.1.2;120.05998197646944;
4.0;m;004_o_m_h_a.jpg;happy;9.0;sad_95.1ns.avi;sad;7.0;incongruent;120.0;160.0;152.68270002069931;h_s;;;;;0;35;35;35;;;;;;;583.3337296999525;None;584.8253467999166;585.141967899981;586.3003911999986;586.3170498999534;595.0668126998935;None;7;0;0.5916509000817314;595.0668126998935;None;;;;;;;;1;;;;;;;596.6250364999287;None;None;None;[];596.6250364999287;None;"['7', '7', '7', '7', '7']";"[0.3214954000432044, 0.6092024000827223, 0.9535476000746712, 1.2812878000549972, 1.6652353000827134]";596.6250364999287;None;;;S11171;2022_Jan_27_1436;VideoMask;2021.1.2;120.05998197646944;
3.0;m;013_y_m_h_a.jpg;happy;9.0;sad_113.2.wmv;sad;7.0;incongruent;120.0;160.0;217.4973891947951;h_s;;;;;0;36;36;36;;;;;;;599.6248869999545;None;601.6413235999644;601.9581148999278;603.0832295999862;603.0998957999982;605.0914288999047;None;8;0;1.3590748999267817;605.0914288999047;None;;;;;;;;5;;;;;;;606.6413668999448;None;None;None;[];606.6413668999448;None;None;;606.6413668999448;None;;;S11171;2022_Jan_27_1436;VideoMask;2021.1.2;120.05998197646944;
4.0;m;004_o_m_h_a.jpg;happy;9.0;happy_25.1ns.avi;happy;9.0;congruent;120.0;150.0;216.63044503818386;h_h;;;;;0;37;37;37;;;;;;;609.6661168999271;None;611.674542899942;611.9911378999241;613.1248921999941;613.1415708999848;616.8163645999739;None;9;0;0.5621395000489429;616.8163645999739;None;;;;;;;;7;;;;;;;618.4242930999026;None;None;None;[];618.4242930999026;None;"['9', '9']";"[0.30637299991212785, 0.7218792999628931]";618.4242930999026;None;;;S11171;2022_Jan_27_1436;VideoMask;2021.1.2;120.05998197646944;
4.0;m;004_o_m_s_a.jpg;sad;7.0;happy_131.2.wmv;happy;9.0;incongruent;130.0;150.0;181.38407540847405;s_h;;;;;0;38;38;38;;;;;;;621.424428600003;None;623.1408065999858;623.4575635999208;624.5906857999507;624.6073657999514;626.5909160999581;None;9;0;0.5955326000694185;626.5909160999581;None;;;;;;;;7;;;;;;;628.1324279999826;None;None;None;[];628.1324279999826;None;"['9', '9']";"[0.230091999983415, 0.6540744999656454]";628.1324279999826;None;;;S11171;2022_Jan_27_1436;VideoMask;2021.1.2;120.05998197646944;
0.0;f;040_y_f_h_a.jpg;happy;9.0;happy_24.3ns.avi;happy;9.0;congruent;120.0;150.0;213.25460698950434;h_h;;;;;0;39;39;39;;;;;;;631.140666399966;None;633.1071416999912;633.4238244999433;634.5904771999922;634.6072621999774;636.4821911999024;None;9;0;0.4323272999608889;636.4821911999024;None;;;;;;;;7;;;;;;;638.0321153999539;None;None;None;[];638.0321153999539;None;"['9', '9']";"[0.29056560003664345, 0.7304625000106171]";638.0321153999539;None;;;S11171;2022_Jan_27_1436;VideoMask;2021.1.2;120.05998197646944;
2.0;f;012_o_f_s_a.jpg;sad;7.0;happy_139.1.wmv;happy;9.0;incongruent;130.0;150.0;162.31500468041804;s_h;;;;;0;40;40;40;;;;;;;641.0322115999879;None;642.5902256999398;642.9069296999369;644.0402270999039;644.0569375999039;646.0402405000059;None;9;0;0.48230959998909384;646.0402405000059;None;;;;;;;;8;;;;;;;647.5901927999221;None;None;None;[];647.5901927999221;None;"['9', '9', '9']";"[0.23620680009480566, 0.9400932000717148, 1.3001544000580907]";647.5901927999221;None;;;S11171;2022_Jan_27_1436;VideoMask;2021.1.2;120.05998197646944;
0.0;f;030_o_f_h_a.jpg;happy;9.0;happy_24.1ns.avi;happy;9.0;congruent;120.0;150.0;168.36256624020774;h_h;;;;;0;41;41;41;;;;;;;650.5900988999056;None;652.1898434999166;652.5066773999715;653.6815501999808;653.7070736999158;656.9649419999914;None;9;0;0.4295788999879733;656.9649419999914;None;;;;;;;;8;;;;;;;658.5148699999554;None;None;None;[];658.5148699999554;None;"['9', '9', '9']";"[0.3039200999774039, 1.0955326000694185, 2.10383510007523]";658.5148699999554;None;;;S11171;2022_Jan_27_1436;VideoMask;2021.1.2;120.05998197646944;
2.0;f;012_o_f_h_a.jpg;happy;9.0;sad_113.1.wmv;sad;7.0;incongruent;120.0;160.0;177.44551734737394;h_s;;;;;0;42;42;42;;;;;;;661.5147790999617;None;663.2063270999352;663.5229191998951;664.6563027999364;664.6729348999215;666.664607899962;None;7;0;0.481988099985756;666.664607899962;None;;;;;;;;3;;;;;;;668.2145618000068;None;None;None;[];668.2145618000068;None;"['7', '7']";"[0.30007709993515164, 0.5798235998954624]";668.2145618000068;None;;;S11171;2022_Jan_27_1436;VideoMask;2021.1.2;120.05998197646944;
3.0;m;033_o_m_s_a.jpg;sad;7.0;sad_64.5ns.avi;sad;7.0;congruent;130.0;160.0;130.55717223801247;s_s;;;;;0;43;43;43;;;;;;;671.214602699969;None;672.50602109998;672.8226951999823;673.9477275999961;673.9644130999222;680.5392345999135;None;7;0;0.4074619999155402;680.5392345999135;None;;;;;;;;1;;;;;;;682.0974398999242;None;None;None;[];682.0974398999242;None;"['7', '7', '7', '7']";"[0.3211108000250533, 0.5770690001081675, 0.8168395000975579, 1.0729895000113174]";682.0974398999242;None;;;S11171;2022_Jan_27_1436;VideoMask;2021.1.2;120.05998197646944;
7.0;m;027_o_m_h_a.jpg;happy;9.0;sad_117.1.wmv;sad;7.0;incongruent;120.0;160.0;181.28665202824095;h_s;;;;;0;44;44;44;;;;;;;685.0975499999477;None;686.8306194999022;687.1473450999474;688.2806309999432;688.2973162999842;690.2805781000061;None;7;0;0.5701751000015065;690.2805781000061;None;;;;;;;;1;;;;;;;691.8305360999657;None;None;None;[];691.8305360999657;None;"['7', '7', '7', '7']";"[0.3002031999640167, 0.5559052999597043, 0.8280163999879733, 1.3961145000066608]";691.8305360999657;None;;;S11171;2022_Jan_27_1436;VideoMask;2021.1.2;120.05998197646944;
3.0;m;033_o_m_s_a.jpg;sad;7.0;happy_126.3.wmv;happy;9.0;incongruent;130.0;150.0;198.85252030535366;s_h;;;;;0;45;45;45;;;;;;;694.8304585999576;None;696.6970244999975;697.0136254999088;698.1553585999645;698.1719831000082;700.1469739999156;None;9;0;0.455607800045982;700.1469739999156;None;;;;;;;;7;;;;;;;701.6968913999153;None;None;None;[];701.6968913999153;None;"['9', '9']";"[0.22589010000228882, 0.7056867000646889]";701.6968913999153;None;;;S11171;2022_Jan_27_1436;VideoMask;2021.1.2;120.05998197646944;
3.0;m;033_o_m_h_a.jpg;happy;9.0;sad_136.1.wmv;sad;7.0;incongruent;120.0;160.0;176.97002883463455;h_s;;;;;0;46;46;46;;;;;;;704.6968617999228;None;706.3633280999493;706.6800074999919;707.8051347999135;707.8216330999276;709.8217510998948;None;7;0;0.5966493999585509;709.8217510998948;None;;;;;;;;2;;;;;;;711.3715970999328;None;None;None;[];711.3715970999328;None;"['7', '7', '7']";"[0.2711610000114888, 0.5747497000265867, 0.9747032000450417]";711.3715970999328;None;;;S11171;2022_Jan_27_1436;VideoMask;2021.1.2;120.05998197646944;
9.0;f;019_m_f_h_a.jpg;happy;9.0;happy_10.1ns.avi;happy;9.0;congruent;120.0;150.0;157.2463435658512;h_h;;;;;0;47;47;47;;;;;;;714.3799999000039;None;715.9047097999137;716.2305781999603;717.4297054999042;717.4463843998965;724.8045925999759;None;9;0;0.48608910001348704;724.8045925999759;None;;;;;;;;7;;;;;;;726.3545183999231;None;None;None;[];726.3545183999231;None;"['9', '9']";"[0.2242415000218898, 0.5920381000032648]";726.3545183999231;None;;;S11171;2022_Jan_27_1436;VideoMask;2021.1.2;120.05998197646944;
2.0;f;012_o_f_h_a.jpg;happy;9.0;happy_2.2ns.avi;happy;9.0;congruent;120.0;150.0;206.34800317295262;h_h;;;;;0;48;48;48;;;;;;;729.3629736999283;None;731.3125454999972;731.629276099964;732.7626972999424;732.7793492999626;744.96250959998;None;9;0;0.49603360006585717;744.96250959998;None;;;;;;;;7;;;;;;;746.5205562999472;None;None;None;[];746.5205562999472;None;"['9', '9']";"[0.2578575999941677, 0.8902898000087589]";746.5205562999472;None;;;S11171;2022_Jan_27_1436;VideoMask;2021.1.2;120.05998197646944;
3.0;m;033_o_m_h_a.jpg;happy;9.0;happy_24.2ns.avi;happy;9.0;congruent;120.0;150.0;167.9423847659953;h_h;;;;;0;49;49;49;;;;;;;749.5289252999937;None;751.1203454999486;751.4370344999479;752.5953648999566;752.6120962999994;756.2954806999769;None;9;0;0.9314376000547782;756.2954806999769;None;;;;;;;;8;;;;;;;757.8452694999287;None;None;None;[];757.8452694999287;None;"['9', '9', '9']";"[0.3012682000407949, 0.6132463000249118, 2.3652159000048414]";757.8452694999287;None;;;S11171;2022_Jan_27_1436;VideoMask;2021.1.2;120.05998197646944;
1.0;f;021_o_f_s_a.jpg;sad;7.0;happy_61.2ns.avi;happy;9.0;incongruent;130.0;150.0;210.94664004826666;s_h;;;;;0;50;50;50;;;;;;;760.8536217999645;None;762.8117701999145;763.1283421999542;764.3376973998966;764.3784220999805;768.7866719999583;None;9;0;0.5040291000623256;768.7866719999583;None;;;;;;;;7;;;;;;;770.3364529999672;None;None;None;[];770.3364529999672;None;"['9', '9']";"[0.33821770001668483, 0.6979584000073373]";770.3364529999672;None;;;S11171;2022_Jan_27_1436;VideoMask;2021.1.2;120.05998197646944;
4.0;m;004_o_m_s_a.jpg;sad;7.0;sad_2.4ns.avi;sad;7.0;congruent;130.0;160.0;153.02079367163634;s_s;;;;;0;51;51;51;;;;;;;773.336553299916;None;774.8279069999699;775.1446116999723;776.2947562999325;776.3120071999729;784.236342899967;None;7;0;0.6545548998983577;784.236342899967;None;;;;;;;;3;;;;;;;785.7943984000012;None;None;None;[];785.7943984000012;None;"['7', '7']";"[0.26441870001144707, 0.5842109000077471]";785.7943984000012;None;;;S11171;2022_Jan_27_1436;VideoMask;2021.1.2;120.05998197646944;
8.0;m;008_y_m_h_a.jpg;happy;9.0;happy_1.2ns.avi;happy;9.0;congruent;120.0;150.0;210.98946429383824;h_h;;;;;0;52;52;52;;;;;;;788.794350799988;None;790.7857646999182;791.1024850999238;792.2942872999702;792.3109047999606;805.0273042999906;None;9;0;0.4954880999866873;805.0273042999906;None;;;;;;;;7;;;;;;;806.5771038999083;None;None;None;[];806.5771038999083;None;"['9', '9']";"[0.24928819993510842, 1.137597699998878]";806.5771038999083;None;;;S11171;2022_Jan_27_1436;VideoMask;2021.1.2;120.05998197646944;
2.0;f;012_o_f_s_a.jpg;sad;7.0;happy_52.2ns.avi;happy;9.0;incongruent;130.0;150.0;172.57202848318138;s_h;;;;;0;53;53;53;;;;;;;809.5771697999444;None;811.2019437999697;811.5185732999817;812.6686282999581;812.6859141999157;816.2018769999268;None;9;0;0.376837799907662;816.2018769999268;None;;;;;;;;9;;;;;;;817.7517955999356;None;None;None;[];817.7517955999356;None;"['9', '9', '9', '9']";"[0.25089480006136, 0.8667326000286266, 1.1947157999966294, 1.922696000081487]";817.7517955999356;None;;;S11171;2022_Jan_27_1436;VideoMask;2021.1.2;120.05998197646944;
9.0;f;019_m_f_s_a.jpg;sad;7.0;happy_61.1ns.avi;happy;9.0;incongruent;130.0;150.0;181.3003220572762;s_h;;;;;0;54;54;54;;;;;;;820.7601917999564;None;822.4932255999884;822.8099670999218;823.9682802999159;823.9849070999771;831.3347393999575;None;9;0;0.3716906000627205;831.3347393999575;None;;;;;;;;7;;;;;;;832.8846249999478;None;None;None;[];832.8846249999478;None;"['9', '9']";"[0.2300796000054106, 0.6459180000238121]";832.8846249999478;None;;;S11171;2022_Jan_27_1436;VideoMask;2021.1.2;120.05998197646944;
0.0;f;030_o_f_h_a.jpg;happy;9.0;sad_133.1.wmv;sad;7.0;incongruent;120.0;160.0;198.86251500867985;h_s;;;;;0;55;55;55;;;;;;;835.8847226999933;None;837.7593899999047;838.0761620999547;839.2012478999095;839.2178075999254;841.2094370999839;None;7;0;0.4492910000262782;841.2094370999839;None;;;;;;;;2;;;;;;;842.7593919999199;None;None;None;[];842.7593919999199;None;"['7', '7', '7']";"[0.25929449999239296, 0.5471441000699997, 1.8433253000257537]";842.7593919999199;None;;;S11171;2022_Jan_27_1436;VideoMask;2021.1.2;120.05998197646944;
0.0;f;040_y_f_h_a.jpg;happy;9.0;sad_128.2.wmv;sad;7.0;incongruent;120.0;160.0;206.10005857915363;h_s;;;;;0;56;56;56;;;;;;;845.7760666999966;None;847.7173341999296;848.0340984999202;849.1673641999951;849.1842037999304;851.167557299952;None;7;0;0.5071722000138834;851.167557299952;None;;;;;;;;3;;;;;;;853.2923299999675;None;None;None;[];853.2923299999675;None;"['7', '7', '7']";"[0.31037319998722523, 0.6143254999769852, 1.3424903999548405]";853.2923299999675;None;;;S11171;2022_Jan_27_1436;VideoMask;2021.1.2;120.05998197646944;
1.0;f;021_o_f_s_a.jpg;sad;7.0;sad_9.5ns.avi;sad;7.0;congruent;130.0;160.0;206.16642757875042;s_s;;;;;0;57;57;57;;;;;;;856.2924166999292;None;858.2173496999312;858.533883899916;859.7086356999353;859.7254764999961;865.3921771999449;None;7;0;0.48255030007567257;865.3921771999449;None;;;;;;;;1;;;;;;;866.9419951000018;None;None;None;[];866.9419951000018;None;"['7', '7', '7', '7', '7']";"[0.22873869992326945, 0.5005823000101373, 0.7645013999426737, 1.0445158999646083, 1.7809049999341369]";866.9419951000018;None;;;S11171;2022_Jan_27_1436;VideoMask;2021.1.2;120.05998197646944;
1.0;f;021_o_f_h_a.jpg;happy;9.0;happy_12.1ns.avi;happy;9.0;congruent;120.0;150.0;132.59080005900228;h_h;;;;;0;58;58;58;;;;;;;869.9504503000062;None;871.2751460999716;871.591823499999;872.7584802999627;872.7751285999548;880.3417120999657;None;9;0;0.4289892000379041;880.3417120999657;None;;;;;;;;9;;;;;;;881.8915450999048;None;None;None;[];881.8915450999048;None;"['9', '9', '9', '9', '9']";"[0.21512269997037947, 0.815105399931781, 1.1351420999271795, 1.4310991999227554, 1.7830639999592677]";881.8915450999048;None;;;S11171;2022_Jan_27_1436;VideoMask;2021.1.2;120.05998197646944;
3.0;m;013_y_m_s_a.jpg;sad;7.0;happy_56.2ns.avi;happy;9.0;incongruent;130.0;150.0;163.39234110935848;s_h;;;;;0;59;59;59;;;;;;;884.9000268999953;None;886.491462099948;886.8080015999731;887.9913985999301;888.0080607999116;892.966233999934;None;None;0;;892.966233999934;None;;;;;;;;4;;;;;;;894.5161841999507;None;None;None;[];894.5161841999507;None;['7'];[1.3347125999862328];894.5161841999507;None;;;S11171;2022_Jan_27_1436;VideoMask;2021.1.2;120.05998197646944;
;;;;;;;;;;;;;;;;;;;;;;;;;;;;;;;;;;;;;;;;;;;;;;;;;;;;;;;;;;;;;;;;;897.524496799917;None;;;;;;
