primePerson;primeGender;prime;primeEmotion;corrAnsPrime;target;targetEmotion;corrAnsTar;Cond;ID_Primer;ID_Target;JitterTime;Condition;example.thisRepN;example.thisTrialN;example.thisN;example.thisIndex;study.thisRepN;study.thisTrialN;study.thisN;study.thisIndex;MR_trigger_time;MR_trigger_number;text_intro.started;text_intro.stopped;text_probe.started;text_probe.stopped;polygon_ISI.started;polygon_ISI.stopped;polygon.started;polygon.stopped;primerImage.started;primerImage.stopped;response.started;response.stopped;key_resp.keys;key_resp.corr;key_resp.rt;key_resp.started;key_resp.stopped;slider_Text.started;slider_Text.stopped;slider_ex.response;slider_ex.rt;slider_ex.history;slider_ex.started;slider_ex.stopped;Rating;slider_resp_response.keys;slider_resp_response.started;slider_resp_response.stopped;text_start.started;text_start.stopped;text_slider.started;text_slider.stopped;slider_stud.response;slider_stud.rt;slider_stud.history;slider_stud.started;slider_stud.stopped;slider_resp_study.keys;slider_resp_study.started;slider_resp_study.stopped;slider_resp_study.rt;text_ende.started;text_ende.stopped;participant;date;expName;psychopyVersion;frameRate;
1111;m;1111_m_m_h_a.jpg;happy;9;example_30.4ns.avi;neutral;7;incongruent;120.0;170.0;189.5874364012288;;0;0;0;0;;;;;92.05418579978868;1;92.14057729998603;94.14072000002488;94.14072000002488;None;96.15797419985756;None;98.38243939960375;98.6987283998169;99.89871319988742;99.91544649982825;104.19048459967598;None;8;0;1.2939996998757124;104.19048459967598;None;105.74875469971448;None;None;None;[];105.74875469971448;None;5;None;105.74875469971448;None;;;;;;;;;;;;;;;;S11361;2022_Apr_06_1901;VideoMask;2021.1.2;119.97874033163023;
1113;f;1113_y_f_s_a.jpg;sad;7;example_30.3ns.avi;neutral;7;incongruent;130.0;170.0;229.02432995836998;;0;1;1;1;;;;;;;;;;;108.76504159998149;None;110.88172339973971;111.19840459991246;112.38176819961518;112.39825979992747;114.33161269966513;None;8;0;1.1126101003028452;114.33161269966513;None;115.88166489964351;None;None;None;[];115.88166489964351;None;5;None;115.88166489964351;None;;;;;;;;;;;;;;;;S11361;2022_Apr_06_1901;VideoMask;2021.1.2;119.97874033163023;
9.0;f;019_m_f_h_a.jpg;happy;9.0;sad_115.1.wmv;sad;7.0;incongruent;120.0;160.0;128.09063432376465;h_s;;;;;0;0;0;0;;;;;;;119.91484700003639;None;121.18134619994089;121.49803379969671;122.63193279970437;122.65627589961514;124.63990579964593;None;7;0;0.9804694997146726;124.63990579964593;None;;;;;;;;5;;;;118.9149092999287;None;126.19799869973212;None;None;None;[];126.19799869973212;None;None;126.19799869973212;None;;;;S11361;2022_Apr_06_1901;VideoMask;2021.1.2;119.97874033163023;
3.0;m;033_o_m_s_a.jpg;sad;7.0;sad_94.2ns.avi;sad;7.0;congruent;130.0;160.0;182.29120173647655;s_s;;;;;0;1;1;1;;;;;;;129.2228346997872;None;130.93942879978567;131.25610330002382;132.4061329998076;132.4228448998183;135.08117799973115;None;7;0;1.0270241000689566;135.08117799973115;None;;;;;;;;5;;;;;;136.64770559966564;None;None;None;[];136.64770559966564;None;"['9', '7']";136.64770559966564;None;"[0.9803686002269387, 2.212666600011289]";;;S11361;2022_Apr_06_1901;VideoMask;2021.1.2;119.97874033163023;
8.0;m;008_y_m_h_a.jpg;happy;9.0;happy_26.1ns.avi;happy;9.0;congruent;120.0;150.0;155.9437854594882;h_h;;;;;0;2;2;2;;;;;;;139.64756139973179;None;141.13072799984366;141.44736889982596;142.61408049985766;142.6308120000176;144.57241989998147;None;9;0;0.7999354000203311;144.57241989998147;None;;;;;;;;5;;;;;;146.15571689978242;None;None;None;[];146.15571689978242;None;None;146.15571689978242;None;;;;S11361;2022_Apr_06_1901;VideoMask;2021.1.2;119.97874033163023;
0.0;f;040_y_f_h_a.jpg;happy;9.0;sad_138.1.wmv;sad;7.0;incongruent;120.0;160.0;133.99071306426532;h_s;;;;;0;3;3;3;;;;;;;149.1803845996037;None;150.5054393997416;150.82217419985682;151.95559439994395;151.97223369963467;153.95549089973792;None;7;0;1.3127045999281108;153.95549089973792;None;;;;;;;;4;;;;;;155.50542930001393;None;None;None;[];155.50542930001393;None;"['7', '7']";155.50542930001393;None;"[0.5787860001437366, 1.27496699988842]";;;S11361;2022_Apr_06_1901;VideoMask;2021.1.2;119.97874033163023;
8.0;f;028_y_f_s_a.jpg;sad;7.0;sad_64.2ns.avi;sad;7.0;congruent;130.0;160.0;229.88540597086478;s_s;;;;;0;4;4;4;;;;;;;158.5136818997562;None;160.65519089996815;160.9719412997365;162.10512319998816;162.12251070002094;173.10492770001292;None;7;0;0.7235585004091263;173.10492770001292;None;;;;;;;;3;;;;;;175.04635469987988;None;None;None;[];175.04635469987988;None;"['7', '7']";175.04635469987988;None;"[0.5184841998852789, 0.8378765000961721]";;;S11361;2022_Apr_06_1901;VideoMask;2021.1.2;119.97874033163023;
7.0;m;027_o_m_s_a.jpg;sad;7.0;sad_10.4ns.avi;sad;7.0;congruent;130.0;160.0;185.20129417468752;s_s;;;;;0;5;5;5;;;;;;;178.05475119967014;None;179.79627919988707;180.11292220000178;181.29626909969375;181.31298359995708;184.41302610002458;None;7;0;0.9914183998480439;184.41302610002458;None;;;;;;;;4;;;;;;185.9627784998156;None;None;None;[];185.9627784998156;None;['7'];185.9627784998156;None;[2.6976966001093388];;;S11361;2022_Apr_06_1901;VideoMask;2021.1.2;119.97874033163023;
2.0;f;012_o_f_s_a.jpg;sad;7.0;sad_7.5ns.avi;sad;7.0;congruent;130.0;160.0;220.27842655424388;s_s;;;;;0;6;6;6;;;;;;;188.96276200003922;None;190.99585509998724;191.31253769993782;192.47094599995762;192.48759719962254;195.2378205000423;None;7;0;1.518443699926138;195.2378205000423;None;;;;;;;;5;;;;;;196.88747880002484;None;None;None;[];196.88747880002484;None;None;196.88747880002484;None;;;;S11361;2022_Apr_06_1901;VideoMask;2021.1.2;119.97874033163023;
2.0;f;012_o_f_h_a.jpg;happy;9.0;happy_27.1ns.avi;happy;9.0;congruent;120.0;150.0;146.44967055810616;h_h;;;;;0;7;7;7;;;;;;;199.9039123998955;None;201.32052809977904;201.63723219977692;202.8039579000324;202.82062379969284;205.26208969997242;None;9;0;0.9020608998835087;205.26208969997242;None;;;;;;;;5;;;;;;206.8121428997256;None;None;None;[];206.8121428997256;None;None;206.8121428997256;None;;;;S11361;2022_Apr_06_1901;VideoMask;2021.1.2;119.97874033163023;
8.0;f;028_y_f_h_a.jpg;happy;9.0;sad_119.1.wmv;sad;7.0;incongruent;120.0;160.0;148.71526953572538;h_s;;;;;0;8;8;8;;;;;;;209.837074900046;None;211.28684319974855;211.60358039988205;212.74505139980465;212.7702685999684;214.80421069962904;None;7;0;1.4802594003267586;214.80421069962904;None;;;;;;;;5;;;;;;216.45349079975858;None;None;None;[];216.45349079975858;None;None;216.45349079975858;None;;;;S11361;2022_Apr_06_1901;VideoMask;2021.1.2;119.97874033163023;
6.0;m;016_y_m_s_a.jpg;sad;7.0;happy_60.4ns.avi;happy;9.0;incongruent;130.0;150.0;126.02367393611817;s_h;;;;;0;9;9;9;;;;;;;219.47840989986435;None;220.75331919966266;221.0699535999447;222.2616472998634;222.27833729982376;227.99479619972408;None;None;0;;227.99479619972408;None;;;;;;;;5;;;;;;229.54465569974855;None;None;None;[];229.54465569974855;None;None;229.54465569974855;None;;;;S11361;2022_Apr_06_1901;VideoMask;2021.1.2;119.97874033163023;
9.0;f;019_m_f_s_a.jpg;sad;7.0;sad_8.4ns.avi;sad;7.0;congruent;130.0;160.0;171.6633093155257;s_s;;;;;0;10;10;10;;;;;;;232.56954059982672;None;234.23615279980004;234.55290859984234;235.70337079977617;235.72792969970033;243.81927549978718;None;7;0;1.0247848997823894;243.81927549978718;None;;;;;;;;5;;;;;;245.3693451997824;None;None;None;[];245.3693451997824;None;None;245.3693451997824;None;;;;S11361;2022_Apr_06_1901;VideoMask;2021.1.2;119.97874033163023;
4.0;m;004_o_m_h_a.jpg;happy;9.0;happy_1.1ns.avi;happy;9.0;congruent;120.0;150.0;203.50057144619865;h_h;;;;;0;11;11;11;;;;;;;248.3940172996372;None;250.3774534999393;250.69400529982522;251.9607596998103;251.97742439992726;266.31021079979837;None;8;0;1.0459084999747574;266.31021079979837;None;;;;;;;;5;;;;;;267.8602208998054;None;None;None;[];267.8602208998054;None;None;267.8602208998054;None;;;;S11361;2022_Apr_06_1901;VideoMask;2021.1.2;119.97874033163023;
7.0;m;027_o_m_h_a.jpg;happy;9.0;happy_20.1ns.avi;happy;9.0;congruent;120.0;150.0;152.91127178874285;h_h;;;;;0;12;12;12;;;;;;;270.8768336996436;None;272.3766823997721;272.693325500004;273.8684570998885;273.8849589996971;276.84324930002913;None;9;0;0.7689804998226464;276.84324930002913;None;;;;;;;;6;;;;;;278.39322119997814;None;None;None;[];278.39322119997814;None;"['9', '9', '9']";278.39322119997814;None;"[0.8270453996956348, 1.427055099979043, 1.9711321000941098]";;;S11361;2022_Apr_06_1901;VideoMask;2021.1.2;119.97874033163023;
0.0;f;040_y_f_s_a.jpg;sad;7.0;sad_94.3ns.avi;sad;7.0;congruent;130.0;160.0;155.27414203894395;s_s;;;;;0;13;13;13;;;;;;;281.39327599992976;None;282.87621449958533;283.19303900003433;284.3845246997662;284.40134899970144;286.95133939990774;None;None;0;;286.95133939990774;None;;;;;;;;4;;;;;;288.50936409970745;None;None;None;[];288.50936409970745;None;['7'];288.50936409970745;None;[0.18319049989804626];;;S11361;2022_Apr_06_1901;VideoMask;2021.1.2;119.97874033163023;
0.0;f;030_o_f_s_a.jpg;sad;7.0;sad_68.1ns.avi;sad;7.0;congruent;130.0;160.0;158.9411396037211;s_s;;;;;0;14;14;14;;;;;;;291.5095618995838;None;293.0509432996623;293.36763209989294;294.55927139986306;294.5760021000169;301.9257787996903;None;7;0;0.4865670995786786;301.9257787996903;None;;;;;;;;4;;;;;;303.50075579993427;None;None;None;[];303.50075579993427;None;['7'];303.50075579993427;None;[1.175436600111425];;;S11361;2022_Apr_06_1901;VideoMask;2021.1.2;119.97874033163023;
0.0;f;030_o_f_h_a.jpg;happy;9.0;sad_127.1.wmv;sad;7.0;incongruent;120.0;160.0;180.59976631384873;h_s;;;;;0;15;15;15;;;;;;;306.50913049979135;None;308.2254780996591;308.54218889959157;309.66730619966984;309.68397110002115;311.6754582999274;None;None;0;;311.6754582999274;None;;;;;;;;5;;;;;;313.2255608998239;None;None;None;[];313.2255608998239;None;None;313.2255608998239;None;;;;S11361;2022_Apr_06_1901;VideoMask;2021.1.2;119.97874033163023;
8.0;m;008_y_m_s_a.jpg;sad;7.0;happy_133.3.wmv;happy;9.0;incongruent;130.0;150.0;152.577966552593;s_h;;;;;0;16;16;16;;;;;;;316.25876439968124;None;317.7585080997087;318.07523119961843;319.20034379977733;319.216911399737;321.20854089967906;None;9;0;0.5716782999224961;321.20854089967906;None;;;;;;;;5;;;;;;322.75844929972664;None;None;None;[];322.75844929972664;None;None;322.75844929972664;None;;;;S11361;2022_Apr_06_1901;VideoMask;2021.1.2;119.97874033163023;
3.0;m;033_o_m_h_a.jpg;happy;9.0;sad_128.1.wmv;sad;7.0;incongruent;120.0;160.0;171.0492454518585;h_s;;;;;0;17;17;17;;;;;;;325.7920158999041;None;327.43327939976007;327.7499673999846;328.8998973998241;328.9165596999228;330.89171689981595;None;7;0;0.8644452001899481;330.89171689981595;None;;;;;;;;5;;;;;;332.4415184999816;None;None;None;[];332.4415184999816;None;None;332.4415184999816;None;;;;S11361;2022_Apr_06_1901;VideoMask;2021.1.2;119.97874033163023;
1.0;f;021_o_f_h_a.jpg;happy;9.0;sad_116.1.wmv;sad;7.0;incongruent;120.0;160.0;184.06847610053055;h_s;;;;;0;18;18;18;;;;;;;335.4662286997773;None;337.21623469982296;337.5329636996612;338.6913104997948;338.70789149962366;340.66630959976465;None;7;0;0.6339305001311004;340.66630959976465;None;;;;;;;;5;;;;;;342.21618299977854;None;None;None;[];342.21618299977854;None;None;342.21618299977854;None;;;;S11361;2022_Apr_06_1901;VideoMask;2021.1.2;119.97874033163023;
4.0;m;004_o_m_s_a.jpg;sad;7.0;happy_28.1ns.avi;happy;9.0;incongruent;130.0;150.0;157.40741103039684;s_h;;;;;0;19;19;19;;;;;;;345.2326817000285;None;346.7492680000141;347.06598889967427;348.2075224998407;348.2242041998543;352.5909621999599;None;9;0;0.5256635001860559;352.5909621999599;None;;;;;;;;6;;;;;;354.14895119983703;None;None;None;[];354.14895119983703;None;['9'];354.14895119983703;None;[1.3913113996386528];;;S11361;2022_Apr_06_1901;VideoMask;2021.1.2;119.97874033163023;
8.0;f;028_y_f_s_a.jpg;sad;7.0;happy_122.3.wmv;happy;9.0;incongruent;130.0;150.0;171.8670540936116;s_h;;;;;0;20;20;20;;;;;;;357.14908539969474;None;358.7906168997288;359.10726989991963;360.241062999703;360.26556820003316;362.2405691999011;None;9;0;0.5955711002461612;362.2405691999011;None;;;;;;;;6;;;;;;363.79031589999795;None;None;None;[];363.79031589999795;None;['9'];363.79031589999795;None;[0.9183906000107527];;;S11361;2022_Apr_06_1901;VideoMask;2021.1.2;119.97874033163023;
8.0;m;008_y_m_s_a.jpg;sad;7.0;sad_6.5ns.avi;sad;7.0;congruent;130.0;160.0;170.39333839271438;s_s;;;;;0;21;21;21;;;;;;;366.79049559962004;None;368.42350379982963;368.7403525998816;369.90698539977893;369.9235990997404;374.87371729966253;None;7;0;0.9464607001282275;374.87371729966253;None;;;;;;;;4;;;;;;376.4234595997259;None;None;None;[];376.4234595997259;None;['7'];376.4234595997259;None;[1.0207428000867367];;;S11361;2022_Apr_06_1901;VideoMask;2021.1.2;119.97874033163023;
8.0;f;028_y_f_h_a.jpg;happy;9.0;happy_23.1ns.avi;happy;9.0;congruent;120.0;150.0;225.70986890587952;h_h;;;;;0;22;22;22;;;;;;;379.43171829963103;None;381.5064812996425;381.8232554998249;382.9565451997332;382.97324339998886;387.5404584999196;None;9;0;0.7676868000999093;387.5404584999196;None;;;;;;;;7;;;;;;389.35625329986215;None;None;None;[];389.35625329986215;None;"['9', '9']";389.35625329986215;None;"[0.5759227001108229, 0.8718138001859188]";;;S11361;2022_Apr_06_1901;VideoMask;2021.1.2;119.97874033163023;
8.0;m;008_y_m_h_a.jpg;happy;9.0;sad_111.1.wmv;sad;7.0;incongruent;120.0;160.0;152.63076835312847;h_s;;;;;0;23;23;23;;;;;;;392.35643279971555;None;393.8394165998325;394.1561023998074;395.28952510003;395.3062876998447;397.29845989961177;None;7;0;0.8496038001030684;397.29845989961177;None;;;;;;;;5;;;;;;398.96436189999804;None;None;None;[];398.96436189999804;None;None;398.96436189999804;None;;;;S11361;2022_Apr_06_1901;VideoMask;2021.1.2;119.97874033163023;
0.0;f;040_y_f_s_a.jpg;sad;7.0;sad_67.2ns.avi;sad;7.0;congruent;130.0;160.0;220.9892697323079;s_s;;;;;0;24;24;24;;;;;;;401.98089899960905;None;404.0392389995977;404.3559808996506;405.50594459986314;405.52247019996867;414.7139462996274;None;7;0;0.6262468998320401;414.7139462996274;None;;;;;;;;5;;;;;;416.28888039989397;None;None;None;[];416.28888039989397;None;None;416.28888039989397;None;;;;S11361;2022_Apr_06_1901;VideoMask;2021.1.2;119.97874033163023;
8.0;m;008_y_m_s_a.jpg;sad;7.0;happy_29.1ns.avi;happy;9.0;incongruent;130.0;150.0;120.0316142834122;s_h;;;;;0;25;25;25;;;;;;;419.305285200011;None;420.51361339958385;420.8303554998711;421.9803819996305;421.997009600047;424.65534950001165;None;9;0;0.8127005002461374;424.65534950001165;None;;;;;;;;5;;;;;;426.2052143998444;None;None;None;[];426.2052143998444;None;None;426.2052143998444;None;;;;S11361;2022_Apr_06_1901;VideoMask;2021.1.2;119.97874033163023;
6.0;m;016_y_m_s_a.jpg;sad;7.0;sad_8.3ns.avi;sad;7.0;congruent;130.0;160.0;152.85371098242734;s_s;;;;;0;26;26;26;;;;;;;429.2385346996598;None;430.72997749969363;431.04670509975404;432.204885199666;432.2218025997281;439.95478089991957;None;None;0;;439.95478089991957;None;;;;;;;;5;;;;;;441.5129737998359;None;None;None;[];441.5129737998359;None;None;441.5129737998359;None;;;;S11361;2022_Apr_06_1901;VideoMask;2021.1.2;119.97874033163023;
6.0;m;016_y_m_h_a.jpg;happy;9.0;sad_114.1.wmv;sad;7.0;incongruent;120.0;160.0;136.20550699298644;h_s;;;;;0;27;27;27;;;;;;;444.5463061998598;None;445.88780419994146;446.20450919959694;447.32968760002404;447.34617649996653;449.33782939985394;None;7;0;0.8263071998953819;449.33782939985394;None;;;;;;;;5;;;;;;450.88780190004036;None;None;None;[];450.88780190004036;None;None;450.88780190004036;None;;;;S11361;2022_Apr_06_1901;VideoMask;2021.1.2;119.97874033163023;
7.0;m;027_o_m_s_a.jpg;sad;7.0;happy_117.3.wmv;happy;9.0;incongruent;130.0;150.0;215.61964028550614;s_h;;;;;0;28;28;28;;;;;;;453.90422250004485;None;455.90418189996853;456.22940859990194;457.35426129959524;457.37094989977777;459.3542932998389;None;None;0;;459.3542932998389;None;;;;;;;;5;;;;;;460.90418339986354;None;None;None;[];460.90418339986354;None;None;460.90418339986354;None;;;;S11361;2022_Apr_06_1901;VideoMask;2021.1.2;119.97874033163023;
6.0;m;016_y_m_h_a.jpg;happy;9.0;happy_9.2ns.avi;happy;9.0;congruent;120.0;150.0;130.52042428082717;h_h;;;;;0;29;29;29;;;;;;;463.9290752997622;None;465.22884889971465;465.545640300028;466.67067799996585;466.6872825999744;472.60391929978505;None;9;0;0.9363592001609504;472.60391929978505;None;;;;;;;;6;;;;;;474.1537734000012;None;None;None;[];474.1537734000012;None;['9'];474.1537734000012;None;[1.1384859001263976];;;S11361;2022_Apr_06_1901;VideoMask;2021.1.2;119.97874033163023;
0.0;f;040_y_f_s_a.jpg;sad;7.0;happy_127.3.wmv;happy;9.0;incongruent;130.0;150.0;131.7195455720239;s_h;;;;;0;30;30;30;;;;;;;477.15360949980095;None;478.4533963999711;478.77015489991754;479.89520219992846;479.9119030996226;481.97020969958976;None;None;0;;481.97020969958976;None;;;;;;;;5;;;;;;483.5201796996407;None;None;None;[];483.5201796996407;None;"['9', '7']";483.5201796996407;None;"[0.25989009998738766, 1.0359946000389755]";;;S11361;2022_Apr_06_1901;VideoMask;2021.1.2;119.97874033163023;
0.0;f;030_o_f_s_a.jpg;sad;7.0;happy_125.3.wmv;happy;9.0;incongruent;130.0;150.0;220.51454909128134;s_h;;;;;0;31;31;31;;;;;;;486.5284533998929;None;488.5781636997126;488.8949018996209;490.02824599994346;490.04493129998446;492.03668079990894;None;9;0;0.6155117000453174;492.03668079990894;None;;;;;;;;5;;;;;;493.58631319971755;None;None;None;[];493.58631319971755;None;None;493.58631319971755;None;;;;S11361;2022_Apr_06_1901;VideoMask;2021.1.2;119.97874033163023;
0.0;f;030_o_f_s_a.jpg;sad;7.0;sad_64.3ns.avi;sad;7.0;congruent;130.0;160.0;165.78667874766072;s_s;;;;;0;32;32;32;;;;;;;496.6029152995907;None;498.1861016997136;498.50292259966955;499.73623869987205;499.75350839970633;504.6361302998848;None;8;0;1.431913800071925;504.6361302998848;None;;;;;;;;5;;;;;;506.18598079960793;None;None;None;[];506.18598079960793;None;None;506.18598079960793;None;;;;S11361;2022_Apr_06_1901;VideoMask;2021.1.2;119.97874033163023;
3.0;m;013_y_m_s_a.jpg;sad;7.0;sad_7.7ns.avi;sad;7.0;congruent;130.0;160.0;196.24182255763262;s_s;;;;;0;33;33;33;;;;;;;509.21911529963836;None;511.069167799782;511.38580029970035;512.5439003999345;512.5608594999649;518.5191615996882;None;None;0;;518.5191615996882;None;;;;;;;;5;;;;;;520.0603191000409;None;None;None;[];520.0603191000409;None;None;520.0603191000409;None;;;;S11361;2022_Apr_06_1901;VideoMask;2021.1.2;119.97874033163023;
3.0;m;013_y_m_h_a.jpg;happy;9.0;happy_9.1ns.avi;happy;9.0;congruent;120.0;150.0;165.1890303600433;h_h;;;;;0;34;34;34;;;;;;;523.085312999785;None;524.6685587996617;524.9853048999794;526.1443300996907;526.1688934997655;529.3437885995954;None;9;0;0.5244271997362375;529.3437885995954;None;;;;;;;;5;;;;;;530.8936262000352;None;None;None;[];530.8936262000352;None;None;530.8936262000352;None;;;;S11361;2022_Apr_06_1901;VideoMask;2021.1.2;119.97874033163023;
4.0;m;004_o_m_h_a.jpg;happy;9.0;sad_95.1ns.avi;sad;7.0;incongruent;120.0;160.0;152.68270002069931;h_s;;;;;0;35;35;35;;;;;;;533.9101486997679;None;535.4101319997571;535.7266993997619;536.8767112996429;536.8933671996929;545.651649300009;None;7;0;0.4723451999016106;545.651649300009;None;;;;;;;;5;;;;;;547.2097632996738;None;None;None;[];547.2097632996738;None;None;547.2097632996738;None;;;;S11361;2022_Apr_06_1901;VideoMask;2021.1.2;119.97874033163023;
3.0;m;013_y_m_h_a.jpg;happy;9.0;sad_113.2.wmv;sad;7.0;incongruent;120.0;160.0;217.4973891947951;h_s;;;;;0;36;36;36;;;;;;;550.2261787997559;None;552.2510961997323;552.5678951996379;553.6929219998419;553.7095556999557;555.7012792997994;None;8;0;1.358821100089699;555.7012792997994;None;;;;;;;;5;;;;;;557.2511020000093;None;None;None;[];557.2511020000093;None;None;557.2511020000093;None;;;;S11361;2022_Apr_06_1901;VideoMask;2021.1.2;119.97874033163023;
4.0;m;004_o_m_h_a.jpg;happy;9.0;happy_25.1ns.avi;happy;9.0;congruent;120.0;150.0;216.63044503818386;h_h;;;;;0;37;37;37;;;;;;;560.2675510998815;None;562.2841201997362;562.6008536997251;563.7925840998068;563.8092032996938;567.4260867997073;None;9;0;0.5225342996418476;567.4260867997073;None;;;;;;;;5;;;;;;569.000726299826;None;None;None;[];569.000726299826;None;None;569.000726299826;None;;;;S11361;2022_Apr_06_1901;VideoMask;2021.1.2;119.97874033163023;
4.0;m;004_o_m_s_a.jpg;sad;7.0;happy_131.2.wmv;happy;9.0;incongruent;130.0;150.0;181.38407540847405;s_h;;;;;0;38;38;38;;;;;;;572.0257051996887;None;573.7421007999219;574.0589117999189;575.1922533996403;575.2095142998733;577.1920906999148;None;9;0;1.2200059001334012;577.1920906999148;None;;;;;;;;5;;;;;;578.7421172000468;None;None;None;[];578.7421172000468;None;None;578.7421172000468;None;;;;S11361;2022_Apr_06_1901;VideoMask;2021.1.2;119.97874033163023;
0.0;f;040_y_f_h_a.jpg;happy;9.0;happy_24.3ns.avi;happy;9.0;congruent;120.0;150.0;213.25460698950434;h_h;;;;;0;39;39;39;;;;;;;581.7668037000112;None;583.7334715998732;584.0502241998911;585.2752202996053;585.2919063996524;587.1086017997004;None;9;0;1.2954681999981403;587.1086017997004;None;;;;;;;;5;;;;;;588.6667709997855;None;None;None;[];588.6667709997855;None;None;588.6667709997855;None;;;;S11361;2022_Apr_06_1901;VideoMask;2021.1.2;119.97874033163023;
2.0;f;012_o_f_s_a.jpg;sad;7.0;happy_139.1.wmv;happy;9.0;incongruent;130.0;150.0;162.31500468041804;s_h;;;;;0;40;40;40;;;;;;;591.691767399665;None;593.258094499819;593.574943699874;594.708285599947;594.7249393998645;596.7081621997058;None;9;0;0.4720589998178184;596.7081621997058;None;;;;;;;;5;;;;;;598.2498172996566;None;None;None;[];598.2498172996566;None;None;598.2498172996566;None;;;;S11361;2022_Apr_06_1901;VideoMask;2021.1.2;119.97874033163023;
0.0;f;030_o_f_h_a.jpg;happy;9.0;happy_24.1ns.avi;happy;9.0;congruent;120.0;150.0;168.36256624020774;h_h;;;;;0;41;41;41;;;;;;;601.2662545996718;None;602.8828755998984;603.1995904999785;604.3669397998601;604.3916234998032;607.6578376996331;None;9;0;1.082293499726802;607.6578376996331;None;;;;;;;;5;;;;;;609.2078269999474;None;None;None;[];609.2078269999474;None;None;609.2078269999474;None;;;;S11361;2022_Apr_06_1901;VideoMask;2021.1.2;119.97874033163023;
2.0;f;012_o_f_h_a.jpg;happy;9.0;sad_113.1.wmv;sad;7.0;incongruent;120.0;160.0;177.44551734737394;h_s;;;;;0;42;42;42;;;;;;;612.2243206999265;None;613.9159770999104;614.2326882998459;615.3658002996817;615.3826029999182;617.3658742997795;None;None;0;;617.3658742997795;None;;;;;;;;5;;;;;;618.9656447996385;None;None;None;[];618.9656447996385;None;"['7', '9']";618.9656447996385;None;"[0.9823507997207344, 1.542432699818164]";;;S11361;2022_Apr_06_1901;VideoMask;2021.1.2;119.97874033163023;
3.0;m;033_o_m_s_a.jpg;sad;7.0;sad_64.5ns.avi;sad;7.0;congruent;130.0;160.0;130.55717223801247;s_s;;;;;0;43;43;43;;;;;;;621.9657462998293;None;623.2655648998916;623.5823190999217;624.7823870996945;624.7989939996041;631.2987087997608;None;7;0;0.8652842999435961;631.2987087997608;None;;;;;;;;4;;;;;;632.840398399625;None;None;None;[];632.840398399625;None;['7'];632.840398399625;None;[0.7559394002892077];;;S11361;2022_Apr_06_1901;VideoMask;2021.1.2;119.97874033163023;
7.0;m;027_o_m_h_a.jpg;happy;9.0;sad_117.1.wmv;sad;7.0;incongruent;120.0;160.0;181.28665202824095;h_s;;;;;0;44;44;44;;;;;;;635.848790299613;None;637.5651149000041;637.881782299839;639.0156079996377;639.040599799715;641.0151372998953;None;8;0;0.8448200998827815;641.0151372998953;None;;;;;;;;5;;;;;;642.5566828995943;None;None;None;[];642.5566828995943;None;None;642.5566828995943;None;;;;S11361;2022_Apr_06_1901;VideoMask;2021.1.2;119.97874033163023;
3.0;m;033_o_m_s_a.jpg;sad;7.0;happy_126.3.wmv;happy;9.0;incongruent;130.0;150.0;198.85252030535366;s_h;;;;;0;45;45;45;;;;;;;645.5899527999572;None;647.4648440997116;647.7814753996208;648.9148260997608;648.931524799671;650.9315200997517;None;9;0;1.4325900003314018;650.9315200997517;None;;;;;;;;6;;;;;;652.4814310995862;None;None;None;[];652.4814310995862;None;['9'];652.4814310995862;None;[1.66660390002653];;;S11361;2022_Apr_06_1901;VideoMask;2021.1.2;119.97874033163023;
3.0;m;033_o_m_h_a.jpg;happy;9.0;sad_136.1.wmv;sad;7.0;incongruent;120.0;160.0;176.97002883463455;h_s;;;;;0;46;46;46;;;;;;;655.4898031000048;None;657.1644835998304;657.4811880998313;658.6062346999533;658.6228734999895;660.6235257997178;None;None;0;;660.6235257997178;None;;;;;;;;5;;;;;;662.6145039997064;None;None;None;[];662.6145039997064;None;None;662.6145039997064;None;;;;S11361;2022_Apr_06_1901;VideoMask;2021.1.2;119.97874033163023;
9.0;f;019_m_f_h_a.jpg;happy;9.0;happy_10.1ns.avi;happy;9.0;congruent;120.0;150.0;157.2463435658512;h_h;;;;;0;47;47;47;;;;;;;665.6310051996261;None;667.1725066998042;667.489249299746;668.6392887998372;668.6559969997033;676.072466199752;None;9;0;0.739663400221616;676.072466199752;None;;;;;;;;5;;;;;;677.6223158999346;None;None;None;[];677.6223158999346;None;None;677.6223158999346;None;;;;S11361;2022_Apr_06_1901;VideoMask;2021.1.2;119.97874033163023;
2.0;f;012_o_f_h_a.jpg;happy;9.0;happy_2.2ns.avi;happy;9.0;congruent;120.0;150.0;206.34800317295262;h_h;;;;;0;48;48;48;;;;;;;680.6556091997772;None;682.6136190998368;682.930449699983;684.0888078999706;684.1053809998557;696.2636373997666;None;9;0;1.3884700001217425;696.2636373997666;None;;;;;;;;5;;;;;;697.8217229000293;None;None;None;[];697.8217229000293;None;None;697.8217229000293;None;;;;S11361;2022_Apr_06_1901;VideoMask;2021.1.2;119.97874033163023;
3.0;m;033_o_m_h_a.jpg;happy;9.0;happy_24.2ns.avi;happy;9.0;congruent;120.0;150.0;167.9423847659953;h_h;;;;;0;49;49;49;;;;;;;700.8466153996997;None;702.4380313996226;702.7633058996871;703.921416899655;703.9384519997984;707.6297462997027;None;9;0;0.5104299997910857;707.6297462997027;None;;;;;;;;5;;;;;;709.2546699997038;None;None;None;[];709.2546699997038;None;None;709.2546699997038;None;;;;S11361;2022_Apr_06_1901;VideoMask;2021.1.2;119.97874033163023;
1.0;f;021_o_f_s_a.jpg;sad;7.0;happy_61.2ns.avi;happy;9.0;incongruent;130.0;150.0;210.94664004826666;s_h;;;;;0;50;50;50;;;;;;;712.2711359998211;None;714.2293671998195;714.5460155997425;715.7209133999422;715.7378002000041;720.20423749974;None;9;0;0.8319830000400543;720.20423749974;None;;;;;;;;5;;;;;;721.7542013996281;None;None;None;[];721.7542013996281;None;None;721.7542013996281;None;;;;S11361;2022_Apr_06_1901;VideoMask;2021.1.2;119.97874033163023;
4.0;m;004_o_m_s_a.jpg;sad;7.0;sad_2.4ns.avi;sad;7.0;congruent;130.0;160.0;153.02079367163634;s_s;;;;;0;51;51;51;;;;;;;724.7792348996736;None;726.2789717996493;726.5956277996302;727.7707670000382;727.78740559984;735.6874886997975;None;7;0;1.1085369996726513;735.6874886997975;None;;;;;;;;5;;;;;;737.2454229998402;None;None;None;[];737.2454229998402;None;None;737.2454229998402;None;;;;S11361;2022_Apr_06_1901;VideoMask;2021.1.2;119.97874033163023;
8.0;m;008_y_m_h_a.jpg;happy;9.0;happy_1.2ns.avi;happy;9.0;congruent;120.0;150.0;210.98946429383824;h_h;;;;;0;52;52;52;;;;;;;740.278532399796;None;742.2700524996035;742.5868628998287;743.7535911998712;743.7702212999575;756.5204818998463;None;9;0;0.803651100024581;756.5204818998463;None;;;;;;;;6;;;;;;758.1947896997444;None;None;None;[];758.1947896997444;None;['9'];758.1947896997444;None;[0.5133305001072586];;;S11361;2022_Apr_06_1901;VideoMask;2021.1.2;119.97874033163023;
2.0;f;012_o_f_s_a.jpg;sad;7.0;happy_52.2ns.avi;happy;9.0;incongruent;130.0;150.0;172.57202848318138;s_h;;;;;0;53;53;53;;;;;;;761.194784599822;None;762.8280323999934;763.1445636996068;764.3029184998013;764.3194240997545;767.8278314997442;None;9;0;1.0162406000308692;767.8278314997442;None;;;;;;;;5;;;;;;769.3777306997217;None;None;None;[];769.3777306997217;None;None;769.3777306997217;None;;;;S11361;2022_Apr_06_1901;VideoMask;2021.1.2;119.97874033163023;
9.0;f;019_m_f_s_a.jpg;sad;7.0;happy_61.1ns.avi;happy;9.0;incongruent;130.0;150.0;181.3003220572762;s_h;;;;;0;54;54;54;;;;;;;772.3941919999197;None;774.1274051000364;774.4441840997897;775.5856951996684;775.6025354997255;782.9692003997043;None;9;0;0.9868307001888752;782.9692003997043;None;;;;;;;;5;;;;;;784.5272694998421;None;None;None;[];784.5272694998421;None;None;784.5272694998421;None;;;;S11361;2022_Apr_06_1901;VideoMask;2021.1.2;119.97874033163023;
0.0;f;030_o_f_h_a.jpg;happy;9.0;sad_133.1.wmv;sad;7.0;incongruent;120.0;160.0;198.86251500867985;h_s;;;;;0;55;55;55;;;;;;;787.5437186998315;None;789.4186347997747;789.7354285996407;790.8605133998208;790.8770568999462;792.8770499997772;None;7;0;0.5669819000177085;792.8770499997772;None;;;;;;;;5;;;;;;794.4353210995905;None;None;None;[];794.4353210995905;None;None;794.4353210995905;None;;;;S11361;2022_Apr_06_1901;VideoMask;2021.1.2;119.97874033163023;
0.0;f;040_y_f_h_a.jpg;happy;9.0;sad_128.2.wmv;sad;7.0;incongruent;120.0;160.0;206.10005857915363;h_s;;;;;0;56;56;56;;;;;;;797.4600786999799;None;799.3850378999487;799.7017156998627;800.8348628999665;800.8517376999371;802.8349802996963;None;7;0;1.0409568003378808;802.8349802996963;None;;;;;;;;5;;;;;;804.3849137998186;None;None;None;[];804.3849137998186;None;None;804.3849137998186;None;;;;S11361;2022_Apr_06_1901;VideoMask;2021.1.2;119.97874033163023;
1.0;f;021_o_f_s_a.jpg;sad;7.0;sad_9.5ns.avi;sad;7.0;congruent;130.0;160.0;206.16642757875042;s_s;;;;;0;57;57;57;;;;;;;807.4182352996431;None;809.3430078998208;809.6597679997794;810.801181699615;810.8180936998688;816.518068399746;None;7;0;0.5340499999001622;816.518068399746;None;;;;;;;;4;;;;;;818.0928976996802;None;None;None;[];818.0928976996802;None;"['7', '7']";818.0928976996802;None;"[0.543068700004369, 1.0470934002660215]";;;S11361;2022_Apr_06_1901;VideoMask;2021.1.2;119.97874033163023;
1.0;f;021_o_f_h_a.jpg;happy;9.0;happy_12.1ns.avi;happy;9.0;congruent;120.0;150.0;132.59080005900228;h_h;;;;;0;58;58;58;;;;;;;821.0928535000421;None;822.4259184999391;822.7426117998548;823.8843837999739;823.9010113999248;831.4926963998005;None;None;0;;831.4926963998005;None;;;;;;;;5;;;;;;833.0505561996251;None;None;None;[];833.0505561996251;None;None;833.0505561996251;None;;;;S11361;2022_Apr_06_1901;VideoMask;2021.1.2;119.97874033163023;
3.0;m;013_y_m_s_a.jpg;sad;7.0;happy_56.2ns.avi;happy;9.0;incongruent;130.0;150.0;163.39234110935848;s_h;;;;;0;59;59;59;;;;;;;836.0756872999482;None;837.6421441999264;837.9587738998234;839.1253836997785;839.1420536995865;844.1172364000231;None;9;0;0.8868577000685036;844.1172364000231;None;;;;;;;;5;;;;;;845.6670313999057;None;None;None;[];845.6670313999057;None;None;845.6670313999057;None;;;;S11361;2022_Apr_06_1901;VideoMask;2021.1.2;119.97874033163023;
;;;;;;;;;;;;;;;;;;;;;;;;;;;;;;;;;;;;;;;;;;;;;;;;;;;;;;;;;;;;;;;;848.6920221997425;None;;;;;;
