primePerson;primeGender;prime;primeEmotion;corrAnsPrime;target;targetEmotion;corrAnsTar;Cond;ID_Primer;ID_Target;JitterTime;Condition;example.thisRepN;example.thisTrialN;example.thisN;example.thisIndex;study.thisRepN;study.thisTrialN;study.thisN;study.thisIndex;MR_trigger_time;MR_trigger_number;text_intro.started;text_intro.stopped;text_probe.started;text_probe.stopped;polygon_ISI.started;polygon_ISI.stopped;polygon.started;polygon.stopped;primerImage.started;primerImage.stopped;response.started;response.stopped;key_resp.keys;key_resp.corr;key_resp.started;key_resp.stopped;slider_Text.started;slider_Text.stopped;slider_ex.response;slider_ex.rt;slider_ex.history;slider_ex.started;slider_ex.stopped;Rating;slider_resp_response.keys;slider_resp_response.rt;slider_resp_response.started;slider_resp_response.stopped;text_start.started;text_start.stopped;key_resp.rt;text_slider.started;text_slider.stopped;slider_stud.response;slider_stud.rt;slider_stud.history;slider_stud.started;slider_stud.stopped;slider_resp_study.keys;slider_resp_study.rt;slider_resp_study.started;slider_resp_study.stopped;text_ende.started;text_ende.stopped;participant;date;expName;psychopyVersion;frameRate;
1111;m;1111_m_m_h_a.jpg;happy;9;example_30.4ns.avi;neutral;7;incongruent;120.0;170.0;189.5874364012288;;0;0;0;0;;;;;56.96459909999976;1;57.05083520000335;59.217711800010875;59.217711800010875;None;61.07585140000447;None;63.325989800010575;63.64256790000945;64.79239159999997;64.80908460001228;69.11716340002022;None;None;0;69.11716340002022;None;71.2762721000181;None;None;None;[];71.2762721000181;None;8;"['9', '9', '9']";"[1.7276455000101123, 2.1599431000067852, 2.55181210002047]";71.2762721000181;None;;;;;;;;;;;;;;;;;S12007;2023_Feb_08_1734;VideoMask;2021.1.2;120.07771431532557;
1113;f;1113_y_f_s_a.jpg;sad;7;example_30.3ns.avi;neutral;7;incongruent;130.0;170.0;229.02432995836998;;0;1;1;1;;;;;;;;;;;74.28380200001993;None;76.42533900000853;76.74207460001344;77.90038200002164;77.91686960001243;79.87533629999962;None;None;0;79.87533629999962;None;81.42529620000278;None;None;None;[];81.42529620000278;None;3;"['7', '7']";"[0.7311584000126459, 0.9869169000012334]";81.42529620000278;None;;;;;;;;;;;;;;;;;S12007;2023_Feb_08_1734;VideoMask;2021.1.2;120.07771431532557;
9.0;f;019_m_f_h_a.jpg;happy;9.0;sad_115.1.wmv;sad;7.0;incongruent;120.0;160.0;128.09063432376465;h_s;;;;;0;0;0;0;;;;;;;85.45841980000841;None;86.75823470001342;87.07497790001798;88.23329020000529;88.25000430000364;90.20834330000798;None;7;0;90.20834330000798;None;;;;;;;;1;;;;;84.43350130002364;None;1.0115390999999363;91.80804960001842;None;None;None;[];91.80804960001842;None;"['7', '7', '7', '7', '7']";"[0.9801138999755494, 1.2123195999884047, 1.4201691999915056, 1.5962318999809213, 1.7879058999824338]";91.80804960001842;None;;;S12007;2023_Feb_08_1734;VideoMask;2021.1.2;120.07771431532557;
3.0;m;033_o_m_s_a.jpg;sad;7.0;sad_94.2ns.avi;sad;7.0;congruent;130.0;160.0;182.29120173647655;s_s;;;;;0;1;1;1;;;;;;;94.81645730001037;None;96.53291370000807;96.84962210000958;98.01644560002023;98.03309140002239;100.67462480001268;None;7;0;100.67462480001268;None;;;;;;;;3;;;;;;;1.0254694999894127;102.37441870002658;None;None;None;[];102.37441870002658;None;"['7', '7']";"[0.045522999978857115, 0.5179434999881778]";102.37441870002658;None;;;S12007;2023_Feb_08_1734;VideoMask;2021.1.2;120.07771431532557;
8.0;m;008_y_m_h_a.jpg;happy;9.0;happy_26.1ns.avi;happy;9.0;congruent;120.0;150.0;155.9437854594882;h_h;;;;;0;2;2;2;;;;;;;105.37431190002826;None;106.88268810001318;107.19944890000625;108.35780340002384;108.37436480002361;110.324325100024;None;9;0;110.324325100024;None;;;;;;;;9;;;;;;;0.9523990999732632;112.1907170000195;None;None;None;[];112.1907170000195;None;"['9', '9', '9', '9']";"[0.5176207000040449, 1.6935281000041869, 2.1178910000016913, 2.397579599986784]";112.1907170000195;None;;;S12007;2023_Feb_08_1734;VideoMask;2021.1.2;120.07771431532557;
0.0;f;040_y_f_h_a.jpg;happy;9.0;sad_138.1.wmv;sad;7.0;incongruent;120.0;160.0;133.99071306426532;h_s;;;;;0;3;3;3;;;;;;;115.19920490001095;None;116.54899390001083;116.86576120002428;117.99899450002704;118.01580880000256;120.00735200001509;None;7;0;120.00735200001509;None;;;;;;;;2;;;;;;;0.8287903999735136;121.5572828000004;None;None;None;[];121.5572828000004;None;"['7', '7', '7']";"[0.4549756999767851, 0.7111254999763332, 1.6546809999854304]";121.5572828000004;None;;;S12007;2023_Feb_08_1734;VideoMask;2021.1.2;120.07771431532557;
8.0;f;028_y_f_s_a.jpg;sad;7.0;sad_64.2ns.avi;sad;7.0;congruent;130.0;160.0;229.88540597086478;s_s;;;;;0;4;4;4;;;;;;;124.55712240000139;None;126.7152898000204;127.03212730001542;128.19909550002194;128.22385200002464;139.16517469999962;None;7;0;139.16517469999962;None;;;;;;;;1;;;;;;;0.7031152000126895;140.71498490002705;None;None;None;[];140.71498490002705;None;"['7', '7', '7', '7', '7']";"[0.32109219999983907, 0.5290357999911066, 0.9529128999856766, 1.2732986999908462, 1.761195700004464]";140.71498490002705;None;;;S12007;2023_Feb_08_1734;VideoMask;2021.1.2;120.07771431532557;
7.0;m;027_o_m_s_a.jpg;sad;7.0;sad_10.4ns.avi;sad;7.0;congruent;130.0;160.0;185.20129417468752;s_s;;;;;0;5;5;5;;;;;;;143.71502390000387;None;145.4563345000206;145.77316320000682;146.9395820000209;146.95624380002846;150.07306730002165;None;7;0;150.07306730002165;None;;;;;;;;7;;;;;;;0.6832181999925524;151.6230381000205;None;None;None;[];151.6230381000205;None;"['9', '9']";"[0.3652665999834426, 0.6287246999854688]";151.6230381000205;None;;;S12007;2023_Feb_08_1734;VideoMask;2021.1.2;120.07771431532557;
2.0;f;012_o_f_s_a.jpg;sad;7.0;sad_7.5ns.avi;sad;7.0;congruent;130.0;160.0;220.27842655424388;s_s;;;;;0;6;6;6;;;;;;;154.62298700000974;None;156.64754090001225;156.96431990002748;158.1393549000204;158.15611230002833;160.8895259000128;None;7;0;160.8895259000128;None;;;;;;;;3;;;;;;;0.4907344999955967;162.4476095000282;None;None;None;[];162.4476095000282;None;"['7', '7']";"[0.46057789999758825, 0.9247910999984015]";162.4476095000282;None;;;S12007;2023_Feb_08_1734;VideoMask;2021.1.2;120.07771431532557;
2.0;f;012_o_f_h_a.jpg;happy;9.0;happy_27.1ns.avi;happy;9.0;congruent;120.0;150.0;146.44967055810616;h_h;;;;;0;7;7;7;;;;;;;165.4475730000122;None;166.86400730002788;167.1806652000232;168.33982520000427;168.3645343000244;170.8056870000146;None;9;0;170.8056870000146;None;;;;;;;;9;;;;;;;0.5264239000098314;172.3556457000086;None;None;None;[];172.3556457000086;None;"['9', '9', '9', '9', '9']";"[0.27266980000422336, 0.5125346000131685, 0.712808500014944, 0.9289311000029556, 1.264459199999692]";172.3556457000086;None;;;S12007;2023_Feb_08_1734;VideoMask;2021.1.2;120.07771431532557;
8.0;f;028_y_f_h_a.jpg;happy;9.0;sad_119.1.wmv;sad;7.0;incongruent;120.0;160.0;148.71526953572538;h_s;;;;;0;8;8;8;;;;;;;175.36384740000358;None;176.81368580000708;177.13044420001097;178.2721516000165;178.288729300024;180.3303208000143;None;7;0;180.3303208000143;None;;;;;;;;1;;;;;;;0.6417146000021603;181.8803492000152;None;None;None;[];181.8803492000152;None;"['7', '7', '7', '7']";"[0.28389759999117814, 0.5077965999953449, 0.8994827000133228, 1.123618699988583]";181.8803492000152;None;;;S12007;2023_Feb_08_1734;VideoMask;2021.1.2;120.07771431532557;
6.0;m;016_y_m_s_a.jpg;sad;7.0;happy_60.4ns.avi;happy;9.0;incongruent;130.0;150.0;126.02367393611817;s_h;;;;;0;9;9;9;;;;;;;184.8888646000123;None;186.15506670001196;186.471752500016;187.60551860000123;187.6299954999995;193.39671900001122;None;9;0;193.39671900001122;None;;;;;;;;6;;;;;;;0.48770439997315407;194.9465329000086;None;None;None;[];194.9465329000086;None;['9'];[0.33768950001103804];194.9465329000086;None;;;S12007;2023_Feb_08_1734;VideoMask;2021.1.2;120.07771431532557;
9.0;f;019_m_f_s_a.jpg;sad;7.0;sad_8.4ns.avi;sad;7.0;congruent;130.0;160.0;171.6633093155257;s_s;;;;;0;10;10;10;;;;;;;197.95499390002806;None;199.61295460001566;199.92971870000474;201.09711750000133;201.12141520000296;209.19611080002505;None;7;0;209.19611080002505;None;;;;;;;;1;;;;;;;0.6641637000138871;210.7877425000188;None;None;None;[];210.7877425000188;None;"['7', '7', '7', '7']";"[0.30428670000401326, 0.5122843999997713, 0.7122998000122607, 0.9123441999836359]";210.7877425000188;None;;;S12007;2023_Feb_08_1734;VideoMask;2021.1.2;120.07771431532557;
4.0;m;004_o_m_h_a.jpg;happy;9.0;happy_1.1ns.avi;happy;9.0;congruent;120.0;150.0;203.50057144619865;h_h;;;;;0;11;11;11;;;;;;;213.79612970000017;None;215.77081450002152;216.08743930002674;217.22913380002137;217.2458309000067;231.71276240001316;None;9;0;231.71276240001316;None;;;;;;;;6;;;;;;;0.43582390001392923;233.48700490000192;None;None;None;[];233.48700490000192;None;['9'];[0.3572801999980584];233.48700490000192;None;;;S12007;2023_Feb_08_1734;VideoMask;2021.1.2;120.07771431532557;
7.0;m;027_o_m_h_a.jpg;happy;9.0;happy_20.1ns.avi;happy;9.0;congruent;120.0;150.0;152.91127178874285;h_h;;;;;0;12;12;12;;;;;;;236.4953740000201;None;237.97001140000066;238.28683650001767;239.42027060000692;239.4367952000175;242.43670300001395;None;9;0;242.43670300001395;None;;;;;;;;6;;;;;;;0.5194046999968123;243.97831700000097;None;None;None;[];243.97831700000097;None;['9'];[0.2899804999760818];243.97831700000097;None;;;S12007;2023_Feb_08_1734;VideoMask;2021.1.2;120.07771431532557;
0.0;f;040_y_f_s_a.jpg;sad;7.0;sad_94.3ns.avi;sad;7.0;congruent;130.0;160.0;155.27414203894395;s_s;;;;;0;13;13;13;;;;;;;246.98656940000365;None;248.47804350001388;248.7948321000149;249.96959530000458;249.98624710002332;252.5532125000027;None;8;0;252.5532125000027;None;;;;;;;;5;;;;;;;1.1949645999993663;254.10293280001497;None;None;None;[];254.10293280001497;None;None;;254.10293280001497;None;;;S12007;2023_Feb_08_1734;VideoMask;2021.1.2;120.07771431532557;
0.0;f;030_o_f_s_a.jpg;sad;7.0;sad_68.1ns.avi;sad;7.0;congruent;130.0;160.0;158.9411396037211;s_s;;;;;0;14;14;14;;;;;;;257.1194730999996;None;258.66121770002064;258.97786480002105;260.1194641000184;260.136173100007;267.53598590000183;None;7;0;267.53598590000183;None;;;;;;;;2;;;;;;;0.40404900000430644;269.0858666000131;None;None;None;[];269.0858666000131;None;"['7', '7', '7', '7']";"[0.302534199989168, 0.5182098000077531, 0.7421268000034615, 0.9503098000132013]";269.0858666000131;None;;;S12007;2023_Feb_08_1734;VideoMask;2021.1.2;120.07771431532557;
0.0;f;030_o_f_h_a.jpg;happy;9.0;sad_127.1.wmv;sad;7.0;incongruent;120.0;160.0;180.59976631384873;h_s;;;;;0;15;15;15;;;;;;;272.08573530000285;None;273.8022500000079;274.11901470000157;275.24413580002147;275.2606856000202;277.26061850000406;None;7;0;277.26061850000406;None;;;;;;;;3;;;;;;;0.679302300006384;278.81903270000475;None;None;None;[];278.81903270000475;None;"['7', '7', '7', '9']";"[0.3612239999929443, 0.585117899987381, 0.8653308999782894, 1.3370212999871]";278.81903270000475;None;;;S12007;2023_Feb_08_1734;VideoMask;2021.1.2;120.07771431532557;
8.0;m;008_y_m_s_a.jpg;sad;7.0;happy_133.3.wmv;happy;9.0;incongruent;130.0;150.0;152.577966552593;s_h;;;;;0;16;16;16;;;;;;;281.8188561999996;None;283.30184270002064;283.6186211000022;284.7437673000095;284.7603273000277;286.75196000002325;None;9;0;286.75196000002325;None;;;;;;;;7;;;;;;;0.40436730001238175;288.3019432000001;None;None;None;[];288.3019432000001;None;"['9', '9', '9']";"[0.3182321999920532, 0.5579729999881238, 0.8619845999928657]";288.3019432000001;None;;;S12007;2023_Feb_08_1734;VideoMask;2021.1.2;120.07771431532557;
3.0;m;033_o_m_h_a.jpg;happy;9.0;sad_128.1.wmv;sad;7.0;incongruent;120.0;160.0;171.0492454518585;h_s;;;;;0;17;17;17;;;;;;;291.30184470000677;None;292.95168840000406;293.26834880001843;294.40163810001104;294.41840510000475;296.40154420002364;None;7;0;296.40154420002364;None;;;;;;;;2;;;;;;;0.4665315999882296;297.95151950002764;None;None;None;[];297.95151950002764;None;"['7', '7', '7', '7', '7']";"[0.2527922999870498, 0.4764570999832358, 0.7007748000032734, 0.9485256999905687, 1.3168323999852873]";297.95151950002764;None;;;S12007;2023_Feb_08_1734;VideoMask;2021.1.2;120.07771431532557;
1.0;f;021_o_f_h_a.jpg;happy;9.0;sad_116.1.wmv;sad;7.0;incongruent;120.0;160.0;184.06847610053055;h_s;;;;;0;18;18;18;;;;;;;300.95152960001724;None;302.70964939999976;303.0263562000182;304.1680053000164;304.1847722000093;306.15964050000184;None;7;0;306.15964050000184;None;;;;;;;;2;;;;;;;0.5805537999840453;307.7096385000041;None;None;None;[];307.7096385000041;None;"['7', '7', '7', '7']";"[0.29465650001657195, 0.5424906000262126, 0.8064886000065599, 1.2065246000129264]";307.7096385000041;None;;;S12007;2023_Feb_08_1734;VideoMask;2021.1.2;120.07771431532557;
4.0;m;004_o_m_s_a.jpg;sad;7.0;happy_28.1ns.avi;happy;9.0;incongruent;130.0;150.0;157.40741103039684;s_h;;;;;0;19;19;19;;;;;;;310.71800190000795;None;312.24281840000185;312.5594004000013;313.74270770000294;313.7593540000089;318.0843688000168;None;9;0;318.0843688000168;None;;;;;;;;9;;;;;;;0.3197433000023011;319.63424520002445;None;None;None;[];319.63424520002445;None;"['9', '9', '9', '9', '9']";"[0.19416590000037104, 0.4256722999853082, 0.6898447999847122, 0.905946299986681, 1.2978607999975793]";319.63424520002445;None;;;S12007;2023_Feb_08_1734;VideoMask;2021.1.2;120.07771431532557;
8.0;f;028_y_f_s_a.jpg;sad;7.0;happy_122.3.wmv;happy;9.0;incongruent;130.0;150.0;171.8670540936116;s_h;;;;;0;20;20;20;;;;;;;322.6342564000224;None;324.28397070002393;324.6006305000046;325.73407860001316;325.7505509000039;327.73403050002526;None;9;0;327.73403050002526;None;;;;;;;;4;;;;;;;0.36614019999979064;329.3089254000224;None;None;None;[];329.3089254000224;None;['7'];[0.8392276999948081];329.3089254000224;None;;;S12007;2023_Feb_08_1734;VideoMask;2021.1.2;120.07771431532557;
8.0;m;008_y_m_s_a.jpg;sad;7.0;sad_6.5ns.avi;sad;7.0;congruent;130.0;160.0;170.39333839271438;s_s;;;;;0;21;21;21;;;;;;;332.31734190002317;None;333.9503672000137;334.2670447000128;335.45865510002477;335.4754114000243;340.4003259000019;None;7;0;340.4003259000019;None;;;;;;;;5;;;;;;;0.44400299998233095;341.9501802000159;None;None;None;[];341.9501802000159;None;None;;341.9501802000159;None;;;S12007;2023_Feb_08_1734;VideoMask;2021.1.2;120.07771431532557;
8.0;f;028_y_f_h_a.jpg;happy;9.0;happy_23.1ns.avi;happy;9.0;congruent;120.0;150.0;225.70986890587952;h_h;;;;;0;22;22;22;;;;;;;344.97510890002013;None;347.06655620000674;347.38330140002654;348.5165539000009;348.53335310000693;353.09149090002757;None;9;0;353.09149090002757;None;;;;;;;;6;;;;;;;0.4407223000016529;354.64147660002345;None;None;None;[];354.64147660002345;None;"['9', '9', '7']";"[0.338684899994405, 0.7467293000081554, 2.3868929999880493]";354.64147660002345;None;;;S12007;2023_Feb_08_1734;VideoMask;2021.1.2;120.07771431532557;
8.0;m;008_y_m_h_a.jpg;happy;9.0;sad_111.1.wmv;sad;7.0;incongruent;120.0;160.0;152.63076835312847;h_s;;;;;0;23;23;23;;;;;;;357.6415637000173;None;359.1328448000131;359.44957360002445;360.582916400017;360.5996011000243;362.58290230002603;None;7;0;362.58290230002603;None;;;;;;;;4;;;;;;;0.6932918000093196;364.1411590000207;None;None;None;[];364.1411590000207;None;['7'];[0.5832622000016272];364.1411590000207;None;;;S12007;2023_Feb_08_1734;VideoMask;2021.1.2;120.07771431532557;
0.0;f;040_y_f_s_a.jpg;sad;7.0;sad_67.2ns.avi;sad;7.0;congruent;130.0;160.0;220.9892697323079;s_s;;;;;0;24;24;24;;;;;;;367.1496651000052;None;369.207501100027;369.52423090001685;370.64926920001744;370.66660880000563;379.8822974000068;None;7;0;379.8822974000068;None;;;;;;;;4;;;;;;;0.5138600999780465;381.43226020000293;None;None;None;[];381.43226020000293;None;['7'];[0.3476068000018131];381.43226020000293;None;;;S12007;2023_Feb_08_1734;VideoMask;2021.1.2;120.07771431532557;
8.0;m;008_y_m_s_a.jpg;sad;7.0;happy_29.1ns.avi;happy;9.0;incongruent;130.0;150.0;120.0316142834122;s_h;;;;;0;25;25;25;;;;;;;384.440519900003;None;385.6402581000002;385.95710250001866;387.14876310000545;387.1654597000161;389.7819724000001;None;9;0;389.7819724000001;None;;;;;;;;9;;;;;;;0.3103795000060927;391.33184330002405;None;None;None;[];391.33184330002405;None;"['9', '9', '9', '9', '9']";"[0.11245509999571368, 0.41620709997368976, 0.6721604999911506, 0.9682262999995146, 1.4245966000016779]";391.33184330002405;None;;;S12007;2023_Feb_08_1734;VideoMask;2021.1.2;120.07771431532557;
6.0;m;016_y_m_s_a.jpg;sad;7.0;sad_8.3ns.avi;sad;7.0;congruent;130.0;160.0;152.85371098242734;s_s;;;;;0;26;26;26;;;;;;;394.3318982000055;None;395.8149231999996;396.1316770000267;397.2899124000105;397.3067467000219;405.0231927000277;None;7;0;405.0231927000277;None;;;;;;;;5;;;;;;;0.613012300018454;406.5731124000158;None;None;None;[];406.5731124000158;None;None;;406.5731124000158;None;;;S12007;2023_Feb_08_1734;VideoMask;2021.1.2;120.07771431532557;
6.0;m;016_y_m_h_a.jpg;happy;9.0;sad_114.1.wmv;sad;7.0;incongruent;120.0;160.0;136.20550699298644;h_s;;;;;0;27;27;27;;;;;;;409.58957530002226;None;410.93962270001066;411.2562797999999;412.3896328000119;412.4062969000079;414.38951390000875;None;8;0;414.38951390000875;None;;;;;;;;7;;;;;;;0.8866761999961454;415.9393545000057;None;None;None;[];415.9393545000057;None;"['9', '9', '9']";"[0.5849118000187445, 1.0246524000249337, 1.4488792000047397]";415.9393545000057;None;;;S12007;2023_Feb_08_1734;VideoMask;2021.1.2;120.07771431532557;
7.0;m;027_o_m_s_a.jpg;sad;7.0;happy_117.3.wmv;happy;9.0;incongruent;130.0;150.0;215.61964028550614;s_h;;;;;0;28;28;28;;;;;;;418.9393561000179;None;420.94762410002295;421.2642000000051;422.3893239000172;422.40593190002255;424.39751710000564;None;7;0;424.39751710000564;None;;;;;;;;7;;;;;;;0.6464210999838542;425.93918260000646;None;None;None;[];425.93918260000646;None;"['9', '9', '9']";"[0.3768014000088442, 0.7211041999980807, 1.024866200023098]";425.93918260000646;None;;;S12007;2023_Feb_08_1734;VideoMask;2021.1.2;120.07771431532557;
6.0;m;016_y_m_h_a.jpg;happy;9.0;happy_9.2ns.avi;happy;9.0;congruent;120.0;150.0;130.52042428082717;h_h;;;;;0;29;29;29;;;;;;;428.939114000008;None;430.2388665000035;430.5555938000034;431.6888899000187;431.7056510000257;437.6138697999995;None;9;0;437.6138697999995;None;;;;;;;;6;;;;;;;0.5342528999899514;439.1637515000184;None;None;None;[];439.1637515000184;None;['9'];[0.2963306999881752];439.1637515000184;None;;;S12007;2023_Feb_08_1734;VideoMask;2021.1.2;120.07771431532557;
0.0;f;040_y_f_s_a.jpg;sad;7.0;happy_127.3.wmv;happy;9.0;incongruent;130.0;150.0;131.7195455720239;s_h;;;;;0;30;30;30;;;;;;;442.1637143000262;None;443.4634208000207;443.78014300001087;444.9136312000046;444.93016890002764;446.98017010002513;None;9;0;446.98017010002513;None;;;;;;;;4;;;;;;;1.0320563999994192;448.5300228000269;None;None;None;[];448.5300228000269;None;['7'];[0.4738833000010345];448.5300228000269;None;;;S12007;2023_Feb_08_1734;VideoMask;2021.1.2;120.07771431532557;
0.0;f;030_o_f_s_a.jpg;sad;7.0;happy_125.3.wmv;happy;9.0;incongruent;130.0;150.0;220.51454909128134;s_h;;;;;0;31;31;31;;;;;;;451.53837260001455;None;453.59647270001005;453.9131839000038;455.04721330001485;455.0715875000169;457.0464685000188;None;9;0;457.0464685000188;None;;;;;;;;7;;;;;;;0.533631600002991;458.59646340002655;None;None;None;[];458.59646340002655;None;"['9', '9']";"[0.2397876000031829, 0.5515437999856658]";458.59646340002655;None;;;S12007;2023_Feb_08_1734;VideoMask;2021.1.2;120.07771431532557;
0.0;f;030_o_f_s_a.jpg;sad;7.0;sad_64.3ns.avi;sad;7.0;congruent;130.0;160.0;165.78667874766072;s_s;;;;;0;32;32;32;;;;;;;461.5964382000093;None;463.179483600019;463.49626780001563;464.6546280000184;464.67124260001583;469.6294847000099;None;7;0;469.6294847000099;None;;;;;;;;5;;;;;;;0.502705099992454;471.1793186000141;None;None;None;[];471.1793186000141;None;None;;471.1793186000141;None;;;S12007;2023_Feb_08_1734;VideoMask;2021.1.2;120.07771431532557;
3.0;m;013_y_m_s_a.jpg;sad;7.0;sad_7.7ns.avi;sad;7.0;congruent;130.0;160.0;196.24182255763262;s_s;;;;;0;33;33;33;;;;;;;474.2126661000075;None;476.06244870001683;476.3791640000127;477.55398390002665;477.57076230001985;483.51239680001163;None;7;0;483.51239680001163;None;;;;;;;;4;;;;;;;0.6118047000200022;485.05393500000355;None;None;None;[];485.05393500000355;None;['7'];[0.342267100000754];485.05393500000355;None;;;S12007;2023_Feb_08_1734;VideoMask;2021.1.2;120.07771431532557;
3.0;m;013_y_m_h_a.jpg;happy;9.0;happy_9.1ns.avi;happy;9.0;congruent;120.0;150.0;165.1890303600433;h_h;;;;;0;34;34;34;;;;;;;488.05394690000685;None;489.6369571000105;489.95367410001927;491.1120875000197;491.1288392000133;494.3119551000127;None;9;0;494.3119551000127;None;;;;;;;;6;;;;;;;0.46031890000449494;495.86194580001757;None;None;None;[];495.86194580001757;None;"['9', '9', '7']";"[0.24626280000666156, 0.7503301000106148, 2.2304388000047766]";495.86194580001757;None;;;S12007;2023_Feb_08_1734;VideoMask;2021.1.2;120.07771431532557;
4.0;m;004_o_m_h_a.jpg;happy;9.0;sad_95.1ns.avi;sad;7.0;incongruent;120.0;160.0;152.68270002069931;h_s;;;;;0;35;35;35;;;;;;;498.86186050000833;None;500.3616743000166;500.6783473000105;501.81176540002343;501.8283803000231;510.60339830000885;None;7;0;510.60339830000885;None;;;;;;;;1;;;;;;;0.6168195999925956;512.1611928000057;None;None;None;[];512.1611928000057;None;"['7', '7', '7', '7', '7', '7']";"[0.2590535000199452, 0.5312750000157394, 0.8188398000202142, 1.203090000024531, 1.4910034000058658, 2.7151591000147164]";512.1611928000057;None;;;S12007;2023_Feb_08_1734;VideoMask;2021.1.2;120.07771431532557;
3.0;m;013_y_m_h_a.jpg;happy;9.0;sad_113.2.wmv;sad;7.0;incongruent;120.0;160.0;217.4973891947951;h_s;;;;;0;36;36;36;;;;;;;515.1613845000102;None;517.1859860000259;517.5028245000285;518.6361459000036;518.6532046000066;520.6361961000075;None;7;0;520.6361961000075;None;;;;;;;;4;;;;;;;0.5359788999776356;522.1860724000144;None;None;None;[];522.1860724000144;None;"['7', '7', '9']";"[0.22604010000941344, 0.5540075000026263, 2.226181700010784]";522.1860724000144;None;;;S12007;2023_Feb_08_1734;VideoMask;2021.1.2;120.07771431532557;
4.0;m;004_o_m_h_a.jpg;happy;9.0;happy_25.1ns.avi;happy;9.0;congruent;120.0;150.0;216.63044503818386;h_h;;;;;0;37;37;37;;;;;;;525.1860946000088;None;527.1941206000047;527.5107651000144;528.7111865000043;528.7277931999997;532.3359820000187;None;9;0;532.3359820000187;None;;;;;;;;4;;;;;;;0.5241391999879852;533.894030400028;None;None;None;[];533.894030400028;None;['7'];[2.438189799984684];533.894030400028;None;;;S12007;2023_Feb_08_1734;VideoMask;2021.1.2;120.07771431532557;
4.0;m;004_o_m_s_a.jpg;sad;7.0;happy_131.2.wmv;happy;9.0;incongruent;130.0;150.0;181.38407540847405;s_h;;;;;0;38;38;38;;;;;;;536.8940778000106;None;538.6103258000221;538.9270186000213;540.0604203000257;540.0771913000208;542.0603969000222;None;9;0;542.0603969000222;None;;;;;;;;6;;;;;;;0.4878844000049867;543.6103997000027;None;None;None;[];543.6103997000027;None;['9'];[0.257809200003976];543.6103997000027;None;;;S12007;2023_Feb_08_1734;VideoMask;2021.1.2;120.07771431532557;
0.0;f;040_y_f_h_a.jpg;happy;9.0;happy_24.3ns.avi;happy;9.0;congruent;120.0;150.0;213.25460698950434;h_h;;;;;0;39;39;39;;;;;;;546.6105641000031;None;548.5767103000253;548.8933951000217;550.0519745000056;550.0684074000164;551.9517677000258;None;9;0;551.9517677000258;None;;;;;;;;7;;;;;;;0.4843569000076968;553.5016859000025;None;None;None;[];553.5016859000025;None;"['9', '9']";"[0.17467050001141615, 0.48675470001762733]";553.5016859000025;None;;;S12007;2023_Feb_08_1734;VideoMask;2021.1.2;120.07771431532557;
2.0;f;012_o_f_s_a.jpg;sad;7.0;happy_139.1.wmv;happy;9.0;incongruent;130.0;150.0;162.31500468041804;s_h;;;;;0;40;40;40;;;;;;;556.5018298000214;None;558.059781900025;558.3765056000266;559.5098921000026;559.5265344000072;561.5181299000105;None;9;0;561.5181299000105;None;;;;;;;;7;;;;;;;0.39820689999032766;563.0680985000217;None;None;None;[];563.0680985000217;None;"['9', '9']";"[0.24012519998359494, 0.5040003999893088]";563.0680985000217;None;;;S12007;2023_Feb_08_1734;VideoMask;2021.1.2;120.07771431532557;
0.0;f;030_o_f_h_a.jpg;happy;9.0;happy_24.1ns.avi;happy;9.0;congruent;120.0;150.0;168.36256624020774;h_h;;;;;0;41;41;41;;;;;;;566.0764975000056;None;567.7011465000105;568.0178559000196;569.1846034000046;569.2012935000239;572.4762549000152;None;9;0;572.4762549000152;None;;;;;;;;8;;;;;;;0.49573210001108237;574.0260861000279;None;None;None;[];574.0260861000279;None;"['9', '9', '9', '9']";"[0.2664459000225179, 0.5219301000179257, 0.8017999000148848, 1.25036760000512]";574.0260861000279;None;;;S12007;2023_Feb_08_1734;VideoMask;2021.1.2;120.07771431532557;
2.0;f;012_o_f_h_a.jpg;happy;9.0;sad_113.1.wmv;sad;7.0;incongruent;120.0;160.0;177.44551734737394;h_s;;;;;0;42;42;42;;;;;;;577.0343215000175;None;578.7174062000122;579.0341553000035;580.1673658000072;580.1842441000044;582.167460800003;None;7;0;582.167460800003;None;;;;;;;;3;;;;;;;0.3648061999992933;583.7173653000209;None;None;None;[];583.7173653000209;None;"['7', '7']";"[0.24678600000333972, 0.49464580000494607]";583.7173653000209;None;;;S12007;2023_Feb_08_1734;VideoMask;2021.1.2;120.07771431532557;
3.0;m;033_o_m_s_a.jpg;sad;7.0;sad_64.5ns.avi;sad;7.0;congruent;130.0;160.0;130.55717223801247;s_s;;;;;0;43;43;43;;;;;;;586.7174123000004;None;588.0171660000051;588.3338007000275;589.4922934000206;589.5088792000024;596.0587051000039;None;7;0;596.0587051000039;None;;;;;;;;2;;;;;;;0.409462599986;597.6086415000027;None;None;None;[];597.6086415000027;None;"['7', '7', '7']";"[0.17177540002739988, 0.5714914000127465, 0.9476976000005379]";597.6086415000027;None;;;S12007;2023_Feb_08_1734;VideoMask;2021.1.2;120.07771431532557;
7.0;m;027_o_m_h_a.jpg;happy;9.0;sad_117.1.wmv;sad;7.0;incongruent;120.0;160.0;181.28665202824095;h_s;;;;;0;44;44;44;;;;;;;600.6086580000119;None;602.3417831000115;602.6584341000125;603.8167560000147;603.8333080000011;605.7915860000066;None;7;0;605.7915860000066;None;;;;;;;;6;;;;;;;0.5485467999824323;607.3417262000148;None;None;None;[];607.3417262000148;None;"['9', '9']";"[0.3026213999837637, 0.7504082999948878]";607.3417262000148;None;;;S12007;2023_Feb_08_1734;VideoMask;2021.1.2;120.07771431532557;
3.0;m;033_o_m_s_a.jpg;sad;7.0;happy_126.3.wmv;happy;9.0;incongruent;130.0;150.0;198.85252030535366;s_h;;;;;0;45;45;45;;;;;;;610.3417728000204;None;612.2080371000047;612.5247715000005;613.6662925000128;613.6831905000145;615.6580784000107;None;9;0;615.6580784000107;None;;;;;;;;5;;;;;;;0.42604109999956563;617.2080393000215;None;None;None;[];617.2080393000215;None;None;;617.2080393000215;None;;;S12007;2023_Feb_08_1734;VideoMask;2021.1.2;120.07771431532557;
3.0;m;033_o_m_h_a.jpg;happy;9.0;sad_136.1.wmv;sad;7.0;incongruent;120.0;160.0;176.97002883463455;h_s;;;;;0;46;46;46;;;;;;;620.2329615000053;None;621.9160974000115;622.2328821000119;623.3578845000011;623.3744191000005;625.3745052000158;None;7;0;625.3745052000158;None;;;;;;;;6;;;;;;;0.5736975999898277;626.9243906000047;None;None;None;[];626.9243906000047;None;['9'];[0.8719241000071634];626.9243906000047;None;;;S12007;2023_Feb_08_1734;VideoMask;2021.1.2;120.07771431532557;
9.0;f;019_m_f_h_a.jpg;happy;9.0;happy_10.1ns.avi;happy;9.0;congruent;120.0;150.0;157.2463435658512;h_h;;;;;0;47;47;47;;;;;;;629.9327031000284;None;631.4574118000164;631.7740523000248;632.9158764000167;632.9325570000219;640.3489319000219;None;9;0;640.3489319000219;None;;;;;;;;5;;;;;;;0.6709570999955758;641.8988573000242;None;None;None;[];641.8988573000242;None;['7'];[0.985429699998349];641.8988573000242;None;;;S12007;2023_Feb_08_1734;VideoMask;2021.1.2;120.07771431532557;
2.0;f;012_o_f_h_a.jpg;happy;9.0;happy_2.2ns.avi;happy;9.0;congruent;120.0;150.0;206.34800317295262;h_h;;;;;0;48;48;48;;;;;;;644.9073166000016;None;646.8651409000158;647.1819440000108;648.3070485000208;648.323681400012;660.5151742000016;None;9;0;660.5151742000016;None;;;;;;;;4;;;;;;;0.7052545000042301;662.0649221000203;None;None;None;[];662.0649221000203;None;['7'];[0.8991034999780823];662.0649221000203;None;;;S12007;2023_Feb_08_1734;VideoMask;2021.1.2;120.07771431532557;
3.0;m;033_o_m_h_a.jpg;happy;9.0;happy_24.2ns.avi;happy;9.0;congruent;120.0;150.0;167.9423847659953;h_h;;;;;0;49;49;49;;;;;;;665.0648379000195;None;666.664721100009;666.9812988000049;668.1397162000067;668.1563695000077;671.8562677000009;None;9;0;671.8562677000009;None;;;;;;;;3;;;;;;;0.47599649999756366;673.4062328000145;None;None;None;[];673.4062328000145;None;"['7', '7']";"[0.2540486000070814, 0.7179611000174191]";673.4062328000145;None;;;S12007;2023_Feb_08_1734;VideoMask;2021.1.2;120.07771431532557;
1.0;f;021_o_f_s_a.jpg;sad;7.0;happy_61.2ns.avi;happy;9.0;incongruent;130.0;150.0;210.94664004826666;s_h;;;;;0;50;50;50;;;;;;;676.406177100027;None;678.3642299000057;678.680969100009;679.8142970000044;679.8309073000273;684.3391898000264;None;9;0;684.3391898000264;None;;;;;;;;6;;;;;;;0.3529500000004191;685.8891113999998;None;None;None;[];685.8891113999998;None;['9'];[0.28304059998481534];685.8891113999998;None;;;S12007;2023_Feb_08_1734;VideoMask;2021.1.2;120.07771431532557;
4.0;m;004_o_m_s_a.jpg;sad;7.0;sad_2.4ns.avi;sad;7.0;congruent;130.0;160.0;153.02079367163634;s_s;;;;;0;51;51;51;;;;;;;688.8975951000175;None;690.3973805000132;690.7139763000014;691.9056289000146;691.9223144999996;699.8055758000119;None;7;0;699.8055758000119;None;;;;;;;;8;;;;;;;0.6466249999939464;701.363688900019;None;None;None;[];701.363688900019;None;"['9', '9', '9']";"[0.24844739999389276, 0.5043112999992445, 1.3362089000002015]";701.363688900019;None;;;S12007;2023_Feb_08_1734;VideoMask;2021.1.2;120.07771431532557;
8.0;m;008_y_m_h_a.jpg;happy;9.0;happy_1.2ns.avi;happy;9.0;congruent;120.0;150.0;210.98946429383824;h_h;;;;;0;52;52;52;;;;;;;704.3720467000094;None;706.3716937000281;706.6883428000147;707.8218443000223;707.8383534000022;720.6130886000174;None;8;0;720.6130886000174;None;;;;;;;;6;;;;;;;0.48695190000580624;722.1629870000179;None;None;None;[];722.1629870000179;None;['9'];[0.3133834000036586];722.1629870000179;None;;;S12007;2023_Feb_08_1734;VideoMask;2021.1.2;120.07771431532557;
2.0;f;012_o_f_s_a.jpg;sad;7.0;happy_52.2ns.avi;happy;9.0;incongruent;130.0;150.0;172.57202848318138;s_h;;;;;0;53;53;53;;;;;;;725.171256200003;None;726.8043732000224;727.1210462000163;728.2794310000027;728.2959052000078;731.8045131000108;None;9;0;731.8045131000108;None;;;;;;;;7;;;;;;;0.48779660000582226;733.3542945000227;None;None;None;[];733.3542945000227;None;"['9', '9']";"[0.32188100001076236, 0.7298767000029329]";733.3542945000227;None;;;S12007;2023_Feb_08_1734;VideoMask;2021.1.2;120.07771431532557;
9.0;f;019_m_f_s_a.jpg;sad;7.0;happy_61.1ns.avi;happy;9.0;incongruent;130.0;150.0;181.3003220572762;s_h;;;;;0;54;54;54;;;;;;;736.362663500011;None;738.0956410000217;738.4125087000139;739.5791262000275;739.5957285000186;746.9372860000003;None;9;0;746.9372860000003;None;;;;;;;;5;;;;;;;0.2588830000022426;748.4871438000118;None;None;None;[];748.4871438000118;None;None;;748.4871438000118;None;;;S12007;2023_Feb_08_1734;VideoMask;2021.1.2;120.07771431532557;
0.0;f;030_o_f_h_a.jpg;happy;9.0;sad_133.1.wmv;sad;7.0;incongruent;120.0;160.0;198.86251500867985;h_s;;;;;0;55;55;55;;;;;;;751.5035298000148;None;753.3702216000238;753.6868532000226;754.8203802000207;754.8370049000077;756.8202045000216;None;7;0;756.8202045000216;None;;;;;;;;3;;;;;;;0.4961586999997962;758.3700965000025;None;None;None;[];758.3700965000025;None;"['7', '7']";"[0.1861059000075329, 0.4819120999891311]";758.3700965000025;None;;;S12007;2023_Feb_08_1734;VideoMask;2021.1.2;120.07771431532557;
0.0;f;040_y_f_h_a.jpg;happy;9.0;sad_128.2.wmv;sad;7.0;incongruent;120.0;160.0;206.10005857915363;h_s;;;;;0;56;56;56;;;;;;;761.3783754000033;None;763.3031484000094;763.619887000008;764.7532195000094;764.769875900005;766.7532214000239;None;7;0;766.7532214000239;None;;;;;;;;4;;;;;;;0.5629719000135083;768.2949155000097;None;None;None;[];768.2949155000097;None;['7'];[0.2374337000073865];768.2949155000097;None;;;S12007;2023_Feb_08_1734;VideoMask;2021.1.2;120.07771431532557;
1.0;f;021_o_f_s_a.jpg;sad;7.0;sad_9.5ns.avi;sad;7.0;congruent;130.0;160.0;206.16642757875042;s_s;;;;;0;57;57;57;;;;;;;771.3030994000146;None;773.2278624000028;773.544536100002;774.7200014000118;774.7446161000116;780.4028968000202;None;7;0;780.4028968000202;None;;;;;;;;3;;;;;;;0.5451480000047013;781.9443929000117;None;None;None;[];781.9443929000117;None;"['7', '7']";"[0.26791100000264123, 0.53201049999916]";781.9443929000117;None;;;S12007;2023_Feb_08_1734;VideoMask;2021.1.2;120.07771431532557;
1.0;f;021_o_f_h_a.jpg;happy;9.0;happy_12.1ns.avi;happy;9.0;congruent;120.0;150.0;132.59080005900228;h_h;;;;;0;58;58;58;;;;;;;784.9443943000224;None;786.2691289000213;786.5860389000154;787.7106602000131;787.7273681000224;795.3357013000059;None;9;0;795.3357013000059;None;;;;;;;;9;;;;;;;0.5406925000133924;796.8939300000202;None;None;None;[];796.8939300000202;None;"['9', '9', '9', '9', '9']";"[0.22246289998292923, 0.49398899998050183, 0.7660401999892201, 1.006035400001565, 1.3503736999991816]";796.8939300000202;None;;;S12007;2023_Feb_08_1734;VideoMask;2021.1.2;120.07771431532557;
3.0;m;013_y_m_s_a.jpg;sad;7.0;happy_56.2ns.avi;happy;9.0;incongruent;130.0;150.0;163.39234110935848;s_h;;;;;0;59;59;59;;;;;;;799.8939359000069;None;801.4603122000117;801.7856877000013;802.9851669000054;803.0020934000204;807.93527430002;None;9;0;807.93527430002;None;;;;;;;;6;;;;;;;0.6372639999899548;809.4852028000169;None;None;None;[];809.4852028000169;None;['9'];[0.7431899000075646];809.4852028000169;None;;;S12007;2023_Feb_08_1734;VideoMask;2021.1.2;120.07771431532557;
;;;;;;;;;;;;;;;;;;;;;;;;;;;;;;;;;;;;;;;;;;;;;;;;;;;;;;;;;;;;;;;;;812.4851755000127;None;;;;;;
