primePerson;primeGender;prime;primeEmotion;corrAnsPrime;target;targetEmotion;corrAnsTar;Cond;ID_Primer;ID_Target;JitterTime;Condition;example.thisRepN;example.thisTrialN;example.thisN;example.thisIndex;study.thisRepN;study.thisTrialN;study.thisN;study.thisIndex;MR_trigger_time;MR_trigger_number;text_intro.started;text_intro.stopped;text_probe.started;text_probe.stopped;polygon_ISI.started;polygon_ISI.stopped;polygon.started;polygon.stopped;primerImage.started;primerImage.stopped;response.started;response.stopped;key_resp.keys;key_resp.corr;key_resp.rt;key_resp.started;key_resp.stopped;slider_Text.started;slider_Text.stopped;slider_ex.response;slider_ex.rt;slider_ex.history;slider_ex.started;slider_ex.stopped;Rating;slider_resp_response.keys;slider_resp_response.started;slider_resp_response.stopped;text_start.started;text_start.stopped;text_slider.started;text_slider.stopped;slider_stud.response;slider_stud.rt;slider_stud.history;slider_stud.started;slider_stud.stopped;slider_resp_study.keys;slider_resp_study.started;slider_resp_study.stopped;slider_resp_study.rt;text_ende.started;text_ende.stopped;participant;date;expName;psychopyVersion;frameRate;
1111;m;1111_m_m_h_a.jpg;happy;9;example_30.4ns.avi;neutral;7;incongruent;120.0;170.0;189.5874364012288;;0;0;0;0;;;;;28.589816600084305;1;28.667290500132367;30.667458000127226;30.667458000127226;None;32.683997499989346;None;34.934005100047216;35.250391100067645;36.42563550011255;36.44224280002527;40.74206530000083;None;9;0;1.340913100168109;40.74206530000083;None;42.301088500069454;None;None;None;[];42.301088500069454;None;5;None;42.301088500069454;None;;;;;;;;;;;;;;;;S11181;2022_Feb_01_1802;VideoMask;2021.1.2;120.0746864085902;
1113;f;1113_y_f_s_a.jpg;sad;7;example_30.3ns.avi;neutral;7;incongruent;130.0;170.0;229.02432995836998;;0;1;1;1;;;;;;;;;;;45.31697800010443;None;47.43347129994072;47.749998500104994;48.94192140013911;48.95850390009582;50.89186069997959;None;None;0;;50.89186069997959;None;52.44161830004305;None;None;None;[];52.44161830004305;None;5;None;52.44161830004305;None;;;;;;;;;;;;;;;;S11181;2022_Feb_01_1802;VideoMask;2021.1.2;120.0746864085902;
9.0;f;019_m_f_h_a.jpg;happy;9.0;sad_115.1.wmv;sad;7.0;incongruent;120.0;160.0;128.09063432376465;h_s;;;;;0;0;0;0;;;;;;;56.474993200041354;None;57.74144580005668;58.05819540005177;59.19132190011442;59.2082041001413;61.199872200144455;None;7;0;0.9230561999138445;61.199872200144455;None;;;;;;;;5;;;;55.47505290014669;None;62.74969259998761;None;None;None;[];62.74969259998761;None;None;62.74969259998761;None;;;;S11181;2022_Feb_01_1802;VideoMask;2021.1.2;120.0746864085902;
3.0;m;033_o_m_s_a.jpg;sad;7.0;sad_94.2ns.avi;sad;7.0;congruent;130.0;160.0;182.29120173647655;s_s;;;;;0;1;1;1;;;;;;;65.76628700015135;None;67.47443650010973;67.7913246001117;68.92459910013713;68.94134799996391;71.61627730005421;None;7;0;1.0263554998673499;71.61627730005421;None;;;;;;;;4;;;;;;73.16617460013367;None;None;None;[];73.16617460013367;None;['7'];73.16617460013367;None;[0.6365972999483347];;;S11181;2022_Feb_01_1802;VideoMask;2021.1.2;120.0746864085902;
8.0;m;008_y_m_h_a.jpg;happy;9.0;happy_26.1ns.avi;happy;9.0;congruent;120.0;150.0;155.9437854594882;h_h;;;;;0;2;2;2;;;;;;;76.17449599993415;None;77.65758130000904;77.97433970007114;79.13270780001767;79.14936359995045;81.09917349996977;None;9;0;0.8716667999979109;81.09917349996977;None;;;;;;;;4;;;;;;82.69093469996005;None;None;None;[];82.69093469996005;None;"['7', '7']";82.69093469996005;None;"[0.5759022000711411, 1.335953100118786]";;;S11181;2022_Feb_01_1802;VideoMask;2021.1.2;120.0746864085902;
0.0;f;040_y_f_h_a.jpg;happy;9.0;sad_138.1.wmv;sad;7.0;incongruent;120.0;160.0;133.99071306426532;h_s;;;;;0;3;3;3;;;;;;;85.690794599941;None;87.00718219997361;87.32405910012312;88.449068200076;88.46567520010285;90.45728670014068;None;9;0;1.4735284999478608;90.45728670014068;None;;;;;;;;5;;;;;;92.00726550002582;None;None;None;[];92.00726550002582;None;None;92.00726550002582;None;;;;S11181;2022_Feb_01_1802;VideoMask;2021.1.2;120.0746864085902;
8.0;f;028_y_f_s_a.jpg;sad;7.0;sad_64.2ns.avi;sad;7.0;congruent;130.0;160.0;229.88540597086478;s_s;;;;;0;4;4;4;;;;;;;95.02377300010994;None;97.17360570002347;97.4903468999546;98.67372790002264;98.69038020004518;109.64016030007042;None;7;0;0.8425940999295563;109.64016030007042;None;;;;;;;;5;;;;;;111.18995260004885;None;None;None;[];111.18995260004885;None;None;111.18995260004885;None;;;;S11181;2022_Feb_01_1802;VideoMask;2021.1.2;120.0746864085902;
7.0;m;027_o_m_s_a.jpg;sad;7.0;sad_10.4ns.avi;sad;7.0;congruent;130.0;160.0;185.20129417468752;s_s;;;;;0;5;5;5;;;;;;;114.2233083001338;None;115.97310449997894;116.28981550014578;117.43149080011062;117.4482166999951;120.58978700009175;None;7;0;1.4208686000201851;120.58978700009175;None;;;;;;;;4;;;;;;122.13956040004268;None;None;None;[];122.13956040004268;None;['7'];122.13956040004268;None;[0.7674552001990378];;;S11181;2022_Feb_01_1802;VideoMask;2021.1.2;120.0746864085902;
2.0;f;012_o_f_s_a.jpg;sad;7.0;sad_7.5ns.avi;sad;7.0;congruent;130.0;160.0;220.27842655424388;s_s;;;;;0;6;6;6;;;;;;;125.13963109999895;None;127.16433930001222;127.48109650006518;128.6149260001257;128.63109929999337;131.40652159997262;None;7;0;0.7324165001045913;131.40652159997262;None;;;;;;;;2;;;;;;132.98941539996304;None;None;None;[];132.98941539996304;None;"['7', '7', '7', '7']";132.98941539996304;None;"[0.44548929994925857, 0.8694046000018716, 1.2213733000680804, 1.7412095998879522]";;;S11181;2022_Feb_01_1802;VideoMask;2021.1.2;120.0746864085902;
2.0;f;012_o_f_h_a.jpg;happy;9.0;happy_27.1ns.avi;happy;9.0;congruent;120.0;150.0;146.44967055810616;h_h;;;;;0;7;7;7;;;;;;;135.99765040003695;None;137.4141088000033;137.73084790003486;138.8725129000377;138.88921310007572;141.35592170013115;None;9;0;1.1029497999697924;141.35592170013115;None;;;;;;;;4;;;;;;143.18886739993468;None;None;None;[];143.18886739993468;None;['7'];143.18886739993468;None;[0.6461294998880476];;;S11181;2022_Feb_01_1802;VideoMask;2021.1.2;120.0746864085902;
8.0;f;028_y_f_h_a.jpg;happy;9.0;sad_119.1.wmv;sad;7.0;incongruent;120.0;160.0;148.71526953572538;h_s;;;;;0;8;8;8;;;;;;;146.19728960003704;None;147.63888090010732;147.955603600014;149.08932740008458;149.11382730002515;151.16384169994853;None;None;0;;151.16384169994853;None;;;;;;;;5;;;;;;152.71371720009483;None;None;None;[];152.71371720009483;None;None;152.71371720009483;None;;;;S11181;2022_Feb_01_1802;VideoMask;2021.1.2;120.0746864085902;
6.0;m;016_y_m_s_a.jpg;sad;7.0;happy_60.4ns.avi;happy;9.0;incongruent;130.0;150.0;126.02367393611817;s_h;;;;;0;9;9;9;;;;;;;155.75543670007028;None;157.03043489996344;157.34690569993109;158.51367620006204;158.53022329998203;164.2884853000287;None;9;0;0.7222917000763118;164.2884853000287;None;;;;;;;;6;;;;;;165.8467260999605;None;None;None;[];165.8467260999605;None;['9'];165.8467260999605;None;[0.5883032002020627];;;S11181;2022_Feb_01_1802;VideoMask;2021.1.2;120.0746864085902;
9.0;f;019_m_f_s_a.jpg;sad;7.0;sad_8.4ns.avi;sad;7.0;congruent;130.0;160.0;171.6633093155257;s_s;;;;;0;10;10;10;;;;;;;168.8551436001435;None;170.5216312999837;170.83818650012836;171.9798393000383;171.9965476000216;180.10545990010723;None;7;0;0.80144890001975;180.10545990010723;None;;;;;;;;4;;;;;;181.7379209001083;None;None;None;[];181.7379209001083;None;['7'];181.7379209001083;None;[1.281086100032553];;;S11181;2022_Feb_01_1802;VideoMask;2021.1.2;120.0746864085902;
4.0;m;004_o_m_h_a.jpg;happy;9.0;happy_1.1ns.avi;happy;9.0;congruent;120.0;150.0;203.50057144619865;h_h;;;;;0;11;11;11;;;;;;;184.73792949994095;None;186.70434770011343;187.02100410009734;188.17108760005794;188.18770930008031;202.63731279992498;None;9;0;0.6137057000305504;202.63731279992498;None;;;;;;;;6;;;;;;204.42895149998367;None;None;None;[];204.42895149998367;None;['9'];204.42895149998367;None;[0.4140588999725878];;;S11181;2022_Feb_01_1802;VideoMask;2021.1.2;120.0746864085902;
7.0;m;027_o_m_h_a.jpg;happy;9.0;happy_20.1ns.avi;happy;9.0;congruent;120.0;150.0;152.91127178874285;h_h;;;;;0;12;12;12;;;;;;;207.43723400007002;None;208.93706719996408;209.25365510000847;210.4704452001024;210.48705280013382;213.4036656001117;None;9;0;0.9113219999708235;213.4036656001117;None;;;;;;;;7;;;;;;214.94520510011353;None;None;None;[];214.94520510011353;None;"['9', '9']";214.94520510011353;None;"[0.4177344001363963, 1.1457043001428246]";;;S11181;2022_Feb_01_1802;VideoMask;2021.1.2;120.0746864085902;
0.0;f;040_y_f_s_a.jpg;sad;7.0;sad_94.3ns.avi;sad;7.0;congruent;130.0;160.0;155.27414203894395;s_s;;;;;0;13;13;13;;;;;;;217.94532239995897;None;219.4283670000732;219.7450814000331;220.95329650002532;220.9784204000607;223.50337960012257;None;7;0;0.8916401001624763;223.50337960012257;None;;;;;;;;5;;;;;;225.05330740008503;None;None;None;[];225.05330740008503;None;None;225.05330740008503;None;;;;S11181;2022_Feb_01_1802;VideoMask;2021.1.2;120.0746864085902;
0.0;f;030_o_f_s_a.jpg;sad;7.0;sad_68.1ns.avi;sad;7.0;congruent;130.0;160.0;158.9411396037211;s_s;;;;;0;14;14;14;;;;;;;228.08658879995346;None;229.61979230004363;229.9364791000262;231.0698109001387;231.08647929993458;238.49463329999708;None;7;0;1.1243469000328332;238.49463329999708;None;;;;;;;;5;;;;;;240.0778081000317;None;None;None;[];240.0778081000317;None;None;240.0778081000317;None;;;;S11181;2022_Feb_01_1802;VideoMask;2021.1.2;120.0746864085902;
0.0;f;030_o_f_h_a.jpg;happy;9.0;sad_127.1.wmv;sad;7.0;incongruent;120.0;160.0;180.59976631384873;h_s;;;;;0;15;15;15;;;;;;;243.1110658000689;None;244.81923680007458;245.13596970005892;246.26106450008228;246.2776876001153;248.26934590004385;None;None;0;;248.26934590004385;None;;;;;;;;5;;;;;;249.8359471000731;None;None;None;[];249.8359471000731;None;"['7', '9']";249.8359471000731;None;"[9.717208300018683, 2.2630666999612004]";;;S11181;2022_Feb_01_1802;VideoMask;2021.1.2;120.0746864085902;
8.0;m;008_y_m_s_a.jpg;sad;7.0;happy_133.3.wmv;happy;9.0;incongruent;130.0;150.0;152.577966552593;s_h;;;;;0;16;16;16;;;;;;;252.81928840000182;None;254.30238909996115;254.61906370008364;255.7441271999851;255.76071860012598;257.7523549001198;None;9;0;0.6664136999752373;257.7523549001198;None;;;;;;;;5;;;;;;259.3023336001206;None;None;None;[];259.3023336001206;None;None;259.3023336001206;None;;;;S11181;2022_Feb_01_1802;VideoMask;2021.1.2;120.0746864085902;
3.0;m;033_o_m_h_a.jpg;happy;9.0;sad_128.1.wmv;sad;7.0;incongruent;120.0;160.0;171.0492454518585;h_s;;;;;0;17;17;17;;;;;;;262.3272315999493;None;263.97704260004684;264.29365090001374;265.426952800015;265.44381700013764;267.4270120000001;None;7;0;0.839959800010547;267.4270120000001;None;;;;;;;;5;;;;;;268.97703319997527;None;None;None;[];268.97703319997527;None;None;268.97703319997527;None;;;;S11181;2022_Feb_01_1802;VideoMask;2021.1.2;120.0746864085902;
1.0;f;021_o_f_h_a.jpg;happy;9.0;sad_116.1.wmv;sad;7.0;incongruent;120.0;160.0;184.06847610053055;h_s;;;;;0;18;18;18;;;;;;;271.9934928000439;None;273.75178329995833;274.0683961000759;275.2018317000475;275.2185025000945;277.2018043000717;None;7;0;0.7773477002047002;277.2018043000717;None;;;;;;;;5;;;;;;278.7434086999856;None;None;None;[];278.7434086999856;None;None;278.7434086999856;None;;;;S11181;2022_Feb_01_1802;VideoMask;2021.1.2;120.0746864085902;
4.0;m;004_o_m_s_a.jpg;sad;7.0;happy_28.1ns.avi;happy;9.0;incongruent;130.0;150.0;157.40741103039684;s_h;;;;;0;19;19;19;;;;;;;281.7598409000784;None;283.2681251000613;283.58481970010325;284.74304740014486;284.75995799992234;289.1098808001261;None;9;0;0.6532773000653833;289.1098808001261;None;;;;;;;;7;;;;;;290.6597895999439;None;None;None;[];290.6597895999439;None;"['9', '9']";290.6597895999439;None;"[0.4472739000339061, 0.8871842999942601]";;;S11181;2022_Feb_01_1802;VideoMask;2021.1.2;120.0746864085902;
8.0;f;028_y_f_s_a.jpg;sad;7.0;happy_122.3.wmv;happy;9.0;incongruent;130.0;150.0;171.8670540936116;s_h;;;;;0;20;20;20;;;;;;;293.65969040011987;None;295.3094550999813;295.626122900052;296.7603387001436;296.77632599999197;298.7594982001465;None;9;0;1.179464700166136;298.7594982001465;None;;;;;;;;5;;;;;;300.3093711999245;None;None;None;[];300.3093711999245;None;None;300.3093711999245;None;;;;S11181;2022_Feb_01_1802;VideoMask;2021.1.2;120.0746864085902;
8.0;m;008_y_m_s_a.jpg;sad;7.0;sad_6.5ns.avi;sad;7.0;congruent;130.0;160.0;170.39333839271438;s_s;;;;;0;21;21;21;;;;;;;303.34267510008067;None;304.9673848000821;305.2842787001282;306.45089130010456;306.4675517999567;311.41755310003646;None;7;0;1.0813984000124037;311.41755310003646;None;;;;;;;;4;;;;;;312.9673707000911;None;None;None;[];312.9673707000911;None;['7'];312.9673707000911;None;[0.5556141000706702];;;S11181;2022_Feb_01_1802;VideoMask;2021.1.2;120.0746864085902;
8.0;f;028_y_f_h_a.jpg;happy;9.0;happy_23.1ns.avi;happy;9.0;congruent;120.0;150.0;225.70986890587952;h_h;;;;;0;22;22;22;;;;;;;315.96728159999475;None;318.0586731999647;318.37551010004245;319.56700740009546;319.5838097999804;324.0836823999416;None;9;0;0.5192301000934094;324.0836823999416;None;;;;;;;;7;;;;;;325.65029170014895;None;None;None;[];325.65029170014895;None;"['9', '9']";325.65029170014895;None;"[0.3927033001091331, 0.9286579999607056]";;;S11181;2022_Feb_01_1802;VideoMask;2021.1.2;120.0746864085902;
8.0;m;008_y_m_h_a.jpg;happy;9.0;sad_111.1.wmv;sad;7.0;incongruent;120.0;160.0;152.63076835312847;h_s;;;;;0;23;23;23;;;;;;;328.65033020009287;None;330.13340410008095;330.45012419996783;331.58350750012323;331.6000210000202;333.583486800082;None;7;0;0.8275345999281853;333.583486800082;None;;;;;;;;5;;;;;;335.1334383999929;None;None;None;[];335.1334383999929;None;None;335.1334383999929;None;;;;S11181;2022_Feb_01_1802;VideoMask;2021.1.2;120.0746864085902;
0.0;f;040_y_f_s_a.jpg;sad;7.0;sad_67.2ns.avi;sad;7.0;congruent;130.0;160.0;220.9892697323079;s_s;;;;;0;24;24;24;;;;;;;338.14977629994974;None;340.2080876000691;340.5247619000729;341.6915853000246;341.7081949999556;350.8830464000348;None;7;0;1.0481431998778135;350.8830464000348;None;;;;;;;;5;;;;;;352.64117730013095;None;None;None;[];352.64117730013095;None;None;352.64117730013095;None;;;;S11181;2022_Feb_01_1802;VideoMask;2021.1.2;120.0746864085902;
8.0;m;008_y_m_s_a.jpg;sad;7.0;happy_29.1ns.avi;happy;9.0;incongruent;130.0;150.0;120.0316142834122;s_h;;;;;0;25;25;25;;;;;;;355.6576253999956;None;356.8743420999963;357.1910880000796;358.34956680005416;358.3660258001182;361.0161041999236;None;9;0;1.0269522001035511;361.0161041999236;None;;;;;;;;6;;;;;;362.57423699996434;None;None;None;[];362.57423699996434;None;['9'];362.57423699996434;None;[1.2370333999861032];;;S11181;2022_Feb_01_1802;VideoMask;2021.1.2;120.0746864085902;
6.0;m;016_y_m_s_a.jpg;sad;7.0;sad_8.3ns.avi;sad;7.0;congruent;130.0;160.0;152.85371098242734;s_s;;;;;0;26;26;26;;;;;;;365.57423199992627;None;367.07400440005586;367.39069860009477;368.5654378000181;368.58238189993426;376.2820930001326;None;7;0;1.0649882999714464;376.2820930001326;None;;;;;;;;5;;;;;;377.8320937999524;None;None;None;[];377.8320937999524;None;None;377.8320937999524;None;;;;S11181;2022_Feb_01_1802;VideoMask;2021.1.2;120.0746864085902;
6.0;m;016_y_m_h_a.jpg;happy;9.0;sad_114.1.wmv;sad;7.0;incongruent;120.0;160.0;136.20550699298644;h_s;;;;;0;27;27;27;;;;;;;380.8653842001222;None;382.20682540000416;382.5235411999747;383.6486357001122;383.66526439995505;385.65686150011607;None;7;0;1.026172700105235;385.65686150011607;None;;;;;;;;5;;;;;;387.2068421000149;None;None;None;[];387.2068421000149;None;None;387.2068421000149;None;;;;S11181;2022_Feb_01_1802;VideoMask;2021.1.2;120.0746864085902;
7.0;m;027_o_m_s_a.jpg;sad;7.0;happy_117.3.wmv;happy;9.0;incongruent;130.0;150.0;215.61964028550614;s_h;;;;;0;28;28;28;;;;;;;390.23184920009226;None;392.22311919997446;392.5398623000365;393.66506340005435;393.6816489000339;395.67326029995456;None;9;0;1.2342749000526965;395.67326029995456;None;;;;;;;;5;;;;;;397.22322540008463;None;None;None;[];397.22322540008463;None;None;397.22322540008463;None;;;;S11181;2022_Feb_01_1802;VideoMask;2021.1.2;120.0746864085902;
6.0;m;016_y_m_h_a.jpg;happy;9.0;happy_9.2ns.avi;happy;9.0;congruent;120.0;150.0;130.52042428082717;h_h;;;;;0;29;29;29;;;;;;;400.25648640003055;None;401.5480589000508;401.8647517999634;403.0480248001404;403.0647098000627;408.92279540002346;None;9;0;0.8963804000522941;408.92279540002346;None;;;;;;;;5;;;;;;410.46447589993477;None;None;None;[];410.46447589993477;None;None;410.46447589993477;None;;;;S11181;2022_Feb_01_1802;VideoMask;2021.1.2;120.0746864085902;
0.0;f;040_y_f_s_a.jpg;sad;7.0;happy_127.3.wmv;happy;9.0;incongruent;130.0;150.0;131.7195455720239;s_h;;;;;0;30;30;30;;;;;;;413.48943720012903;None;414.78088430012576;415.0976074000355;416.22273480007425;416.2392907999456;418.2976118000224;None;9;0;0.9135881999973208;418.2976118000224;None;;;;;;;;6;;;;;;419.8475597000215;None;None;None;[];419.8475597000215;None;['9'];419.8475597000215;None;[0.5075803999789059];;;S11181;2022_Feb_01_1802;VideoMask;2021.1.2;120.0746864085902;
0.0;f;030_o_f_s_a.jpg;sad;7.0;happy_125.3.wmv;happy;9.0;incongruent;130.0;150.0;220.51454909128134;s_h;;;;;0;31;31;31;;;;;;;422.8557295000646;None;424.90577640011907;425.222376300022;426.3556741999928;426.37235730001703;428.3724337001331;None;9;0;0.7027071001939476;428.3724337001331;None;;;;;;;;4;;;;;;429.9305835000705;None;None;None;[];429.9305835000705;None;['7'];429.9305835000705;None;[0.5126487000379711];;;S11181;2022_Feb_01_1802;VideoMask;2021.1.2;120.0746864085902;
0.0;f;030_o_f_s_a.jpg;sad;7.0;sad_64.3ns.avi;sad;7.0;congruent;130.0;160.0;165.78667874766072;s_s;;;;;0;32;32;32;;;;;;;432.9389085001312;None;434.5386560000479;434.8553770999424;435.9886781000532;436.00537359993905;440.98874159995466;None;7;0;0.886552199954167;440.98874159995466;None;;;;;;;;4;;;;;;442.53855450008996;None;None;None;[];442.53855450008996;None;['7'];442.53855450008996;None;[0.6803717000875622];;;S11181;2022_Feb_01_1802;VideoMask;2021.1.2;120.0746864085902;
3.0;m;013_y_m_s_a.jpg;sad;7.0;sad_7.7ns.avi;sad;7.0;congruent;130.0;160.0;196.24182255763262;s_s;;;;;0;33;33;33;;;;;;;445.5468715999741;None;447.39652210008353;447.71330699999817;448.8798694999423;448.89665170013905;454.84649810008705;None;7;0;0.6525856000371277;454.84649810008705;None;;;;;;;;4;;;;;;456.396393999923;None;None;None;[];456.396393999923;None;['7'];456.396393999923;None;[0.43075480009429157];;;S11181;2022_Feb_01_1802;VideoMask;2021.1.2;120.0746864085902;
3.0;m;013_y_m_h_a.jpg;happy;9.0;happy_9.1ns.avi;happy;9.0;congruent;120.0;150.0;165.1890303600433;h_h;;;;;0;34;34;34;;;;;;;459.39633599994704;None;460.97117440006696;461.28788359998725;462.4462655999232;462.4628441000823;465.6461644000374;None;9;0;0.7730429000221193;465.6461644000374;None;;;;;;;;5;;;;;;467.1961254000198;None;None;None;[];467.1961254000198;None;None;467.1961254000198;None;;;;S11181;2022_Feb_01_1802;VideoMask;2021.1.2;120.0746864085902;
4.0;m;004_o_m_h_a.jpg;happy;9.0;sad_95.1ns.avi;sad;7.0;incongruent;120.0;160.0;152.68270002069931;h_s;;;;;0;35;35;35;;;;;;;470.2209181000944;None;471.7209849001374;472.03757890011184;473.26242260006256;473.2791129001416;481.9625176000409;None;7;0;0.7927134002093226;481.9625176000409;None;;;;;;;;3;;;;;;483.5206524999812;None;None;None;[];483.5206524999812;None;"['7', '7']";483.5206524999812;None;"[0.3464403999969363, 0.834613700164482]";;;S11181;2022_Feb_01_1802;VideoMask;2021.1.2;120.0746864085902;
3.0;m;013_y_m_h_a.jpg;happy;9.0;sad_113.2.wmv;sad;7.0;incongruent;120.0;160.0;217.4973891947951;h_s;;;;;0;36;36;36;;;;;;;486.5205224000383;None;488.54530899995007;488.862171899993;489.9871519000735;490.00368880014867;491.9953098001424;None;7;0;1.0158712000120431;491.9953098001424;None;;;;;;;;5;;;;;;493.5453638001345;None;None;None;[];493.5453638001345;None;None;493.5453638001345;None;;;;S11181;2022_Feb_01_1802;VideoMask;2021.1.2;120.0746864085902;
4.0;m;004_o_m_h_a.jpg;happy;9.0;happy_25.1ns.avi;happy;9.0;congruent;120.0;150.0;216.63044503818386;h_h;;;;;0;37;37;37;;;;;;;496.56191359995864;None;498.5616230999585;498.87844850006513;500.0618354000617;500.07837689993903;503.7034402999561;None;9;0;0.8197692001704127;503.7034402999561;None;;;;;;;;5;;;;;;505.26167199993506;None;None;None;[];505.26167199993506;None;None;505.26167199993506;None;;;;S11181;2022_Feb_01_1802;VideoMask;2021.1.2;120.0746864085902;
4.0;m;004_o_m_s_a.jpg;sad;7.0;happy_131.2.wmv;happy;9.0;incongruent;130.0;150.0;181.38407540847405;s_h;;;;;0;38;38;38;;;;;;;508.29493570001796;None;510.0114001999609;510.32813080004416;511.46133220009506;511.47810700000264;513.4613928000908;None;9;0;0.8059538002125919;513.4613928000908;None;;;;;;;;4;;;;;;515.0113828000613;None;None;None;[];515.0113828000613;None;['7'];515.0113828000613;None;[1.3038645999040455];;;S11181;2022_Feb_01_1802;VideoMask;2021.1.2;120.0746864085902;
0.0;f;040_y_f_h_a.jpg;happy;9.0;happy_24.3ns.avi;happy;9.0;congruent;120.0;150.0;213.25460698950434;h_h;;;;;0;39;39;39;;;;;;;518.0113808999304;None;519.977762500057;520.294553700136;521.5445606000721;521.5610911000986;523.352840699954;None;9;0;1.210238500032574;523.352840699954;None;;;;;;;;4;;;;;;524.9110835001338;None;None;None;[];524.9110835001338;None;['7'];524.9110835001338;None;[1.0203764999751002];;;S11181;2022_Feb_01_1802;VideoMask;2021.1.2;120.0746864085902;
2.0;f;012_o_f_s_a.jpg;sad;7.0;happy_139.1.wmv;happy;9.0;incongruent;130.0;150.0;162.31500468041804;s_h;;;;;0;40;40;40;;;;;;;527.9110060001258;None;529.4691381999291;529.7858708000276;530.9192641000263;530.9358689000364;532.9358608000912;None;9;0;0.9152756000403315;532.9358608000912;None;;;;;;;;5;;;;;;534.4774321001023;None;None;None;[];534.4774321001023;None;None;534.4774321001023;None;;;;S11181;2022_Feb_01_1802;VideoMask;2021.1.2;120.0746864085902;
0.0;f;030_o_f_h_a.jpg;happy;9.0;happy_24.1ns.avi;happy;9.0;congruent;120.0;150.0;168.36256624020774;h_h;;;;;0;41;41;41;;;;;;;537.5107352000196;None;539.1188563001342;539.4356494999956;540.6438911000732;540.660628600046;543.8939281001221;None;9;0;1.229393099900335;543.8939281001221;None;;;;;;;;5;;;;;;545.435463400092;None;None;None;[];545.435463400092;None;None;545.435463400092;None;;;;S11181;2022_Feb_01_1802;VideoMask;2021.1.2;120.0746864085902;
2.0;f;012_o_f_h_a.jpg;happy;9.0;sad_113.1.wmv;sad;7.0;incongruent;120.0;160.0;177.44551734737394;h_s;;;;;0;42;42;42;;;;;;;548.4602930000983;None;550.151828299975;550.4685788999777;551.6018930999562;551.6186506999657;553.6018993000034;None;7;0;0.7373186000622809;553.6018993000034;None;;;;;;;;5;;;;;;555.1518574000802;None;None;None;[];555.1518574000802;None;None;555.1518574000802;None;;;;S11181;2022_Feb_01_1802;VideoMask;2021.1.2;120.0746864085902;
3.0;m;033_o_m_s_a.jpg;sad;7.0;sad_64.5ns.avi;sad;7.0;congruent;130.0;160.0;130.55717223801247;s_s;;;;;0;43;43;43;;;;;;;558.1765763000585;None;559.4766007999424;559.79336780007;560.9771519999485;560.9935276999604;567.5266728000715;None;7;0;0.812548799905926;567.5266728000715;None;;;;;;;;4;;;;;;569.0847601001151;None;None;None;[];569.0847601001151;None;['7'];569.0847601001151;None;[0.7664671000093222];;;S11181;2022_Feb_01_1802;VideoMask;2021.1.2;120.0746864085902;
7.0;m;027_o_m_h_a.jpg;happy;9.0;sad_117.1.wmv;sad;7.0;incongruent;120.0;160.0;181.28665202824095;h_s;;;;;0;44;44;44;;;;;;;572.0931255000178;None;573.809495100053;574.1261573000811;575.2599244001321;575.2849791999906;577.2594677000307;None;7;0;1.0638361999299377;577.2594677000307;None;;;;;;;;5;;;;;;578.8011650999542;None;None;None;[];578.8011650999542;None;None;578.8011650999542;None;;;;S11181;2022_Feb_01_1802;VideoMask;2021.1.2;120.0746864085902;
3.0;m;033_o_m_s_a.jpg;sad;7.0;happy_126.3.wmv;happy;9.0;incongruent;130.0;150.0;198.85252030535366;s_h;;;;;0;45;45;45;;;;;;;581.8176015999634;None;583.6759015000425;583.9926491000224;585.1426876999903;585.1592876999639;587.1259370001499;None;9;0;0.6694120999891311;587.1259370001499;None;;;;;;;;5;;;;;;588.6758624999784;None;None;None;[];588.6758624999784;None;None;588.6758624999784;None;;;;S11181;2022_Feb_01_1802;VideoMask;2021.1.2;120.0746864085902;
3.0;m;033_o_m_h_a.jpg;happy;9.0;sad_136.1.wmv;sad;7.0;incongruent;120.0;160.0;176.97002883463455;h_s;;;;;0;46;46;46;;;;;;;591.700598699972;None;593.3755749999546;593.6923150999937;594.8173241000623;594.8339504001196;596.8256447999738;None;7;0;0.75372330006212;596.8256447999738;None;;;;;;;;2;;;;;;598.3755586000625;None;None;None;[];598.3755586000625;None;"['7', '7', '7']";598.3755586000625;None;"[0.4917262999806553, 0.9877464000601321, 1.3958620999474078]";;;S11181;2022_Feb_01_1802;VideoMask;2021.1.2;120.0746864085902;
9.0;f;019_m_f_h_a.jpg;happy;9.0;happy_10.1ns.avi;happy;9.0;congruent;120.0;150.0;157.2463435658512;h_h;;;;;0;47;47;47;;;;;;;601.3755823001266;None;602.9002555001061;603.2170669999905;604.392075000098;604.4087040999439;611.7918567999732;None;9;0;0.6353764000814408;611.7918567999732;None;;;;;;;;7;;;;;;613.3417813000269;None;None;None;[];613.3417813000269;None;"['9', '9']";613.3417813000269;None;"[0.3816410999279469, 0.8213467998430133]";;;S11181;2022_Feb_01_1802;VideoMask;2021.1.2;120.0746864085902;
2.0;f;012_o_f_h_a.jpg;happy;9.0;happy_2.2ns.avi;happy;9.0;congruent;120.0;150.0;206.34800317295262;h_h;;;;;0;48;48;48;;;;;;;616.3418177000713;None;618.2998335999437;618.6165491000284;619.7833712000865;619.7999734999612;631.957980300067;None;9;0;0.9173496998846531;631.957980300067;None;;;;;;;;5;;;;;;633.5078511999454;None;None;None;[];633.5078511999454;None;None;633.5078511999454;None;;;;S11181;2022_Feb_01_1802;VideoMask;2021.1.2;120.0746864085902;
3.0;m;033_o_m_h_a.jpg;happy;9.0;happy_24.2ns.avi;happy;9.0;congruent;120.0;150.0;167.9423847659953;h_h;;;;;0;49;49;49;;;;;;;636.532603800064;None;638.1242605000734;638.4410415999591;639.5743571000639;639.5913730999455;643.3158525000326;None;9;0;0.6556931999512017;643.3158525000326;None;;;;;;;;5;;;;;;644.857523499988;None;None;None;[];644.857523499988;None;None;644.857523499988;None;;;;S11181;2022_Feb_01_1802;VideoMask;2021.1.2;120.0746864085902;
1.0;f;021_o_f_s_a.jpg;sad;7.0;happy_61.2ns.avi;happy;9.0;incongruent;130.0;150.0;210.94664004826666;s_h;;;;;0;50;50;50;;;;;;;647.8822347000241;None;649.8572142000776;650.1739636999555;651.3746679001488;651.399001599988;655.8321386999451;None;9;0;0.7153247999958694;655.8321386999451;None;;;;;;;;6;;;;;;657.3821054000873;None;None;None;[];657.3821054000873;None;['9'];657.3821054000873;None;[0.44523700000718236];;;S11181;2022_Feb_01_1802;VideoMask;2021.1.2;120.0746864085902;
4.0;m;004_o_m_s_a.jpg;sad;7.0;sad_2.4ns.avi;sad;7.0;congruent;130.0;160.0;153.02079367163634;s_s;;;;;0;51;51;51;;;;;;;660.3905495000072;None;661.8987090999726;662.2153411000036;663.4236504000146;663.4401732999831;671.3070307001472;None;7;0;0.6722943999338895;671.3070307001472;None;;;;;;;;5;;;;;;672.9233699000906;None;None;None;[];672.9233699000906;None;None;672.9233699000906;None;;;;S11181;2022_Feb_01_1802;VideoMask;2021.1.2;120.0746864085902;
8.0;m;008_y_m_h_a.jpg;happy;9.0;happy_1.2ns.avi;happy;9.0;congruent;120.0;150.0;210.98946429383824;h_h;;;;;0;52;52;52;;;;;;;675.9397110999562;None;677.9229171001352;678.2397094001062;679.3898921001237;679.4064871999435;692.1811303000432;None;9;0;0.814696499845013;692.1811303000432;None;;;;;;;;5;;;;;;693.7310424000025;None;None;None;[];693.7310424000025;None;None;693.7310424000025;None;;;;S11181;2022_Feb_01_1802;VideoMask;2021.1.2;120.0746864085902;
2.0;f;012_o_f_s_a.jpg;sad;7.0;happy_52.2ns.avi;happy;9.0;incongruent;130.0;150.0;172.57202848318138;s_h;;;;;0;53;53;53;;;;;;;696.7557586000767;None;698.38915250008;698.7058107000776;699.880956799956;699.8975233000237;703.4059566999786;None;9;0;0.7096126000396907;703.4059566999786;None;;;;;;;;4;;;;;;705.0139617000241;None;None;None;[];705.0139617000241;None;['7'];705.0139617000241;None;[1.1173931998200715];;;S11181;2022_Feb_01_1802;VideoMask;2021.1.2;120.0746864085902;
9.0;f;019_m_f_s_a.jpg;sad;7.0;happy_61.1ns.avi;happy;9.0;incongruent;130.0;150.0;181.3003220572762;s_h;;;;;0;54;54;54;;;;;;;708.0140776000917;None;709.7471090999898;710.0637974001002;711.2222730999347;711.2395522999577;718.5887552001514;None;9;0;0.8787114000879228;718.5887552001514;None;;;;;;;;6;;;;;;720.1385955000296;None;None;None;[];720.1385955000296;None;['9'];720.1385955000296;None;[0.36083849985152483];;;S11181;2022_Feb_01_1802;VideoMask;2021.1.2;120.0746864085902;
0.0;f;030_o_f_h_a.jpg;happy;9.0;sad_133.1.wmv;sad;7.0;incongruent;120.0;160.0;198.86251500867985;h_s;;;;;0;55;55;55;;;;;;;723.1469672000967;None;725.0049489000812;725.3217021001037;726.4468265001196;726.4632455999963;728.4550024000928;None;7;0;0.9005397001747042;728.4550024000928;None;;;;;;;;4;;;;;;730.0048116000835;None;None;None;[];730.0048116000835;None;['7'];730.0048116000835;None;[0.6464630998671055];;;S11181;2022_Feb_01_1802;VideoMask;2021.1.2;120.0746864085902;
0.0;f;040_y_f_h_a.jpg;happy;9.0;sad_128.2.wmv;sad;7.0;incongruent;120.0;160.0;206.10005857915363;h_s;;;;;0;56;56;56;;;;;;;733.0133106999565;None;734.9380811001174;735.2547917999327;736.4048079999629;736.4214618999977;738.3880535000935;None;7;0;0.7593277001287788;738.3880535000935;None;;;;;;;;3;;;;;;739.9380276000593;None;None;None;[];739.9380276000593;None;"['7', '7', '7', '7']";739.9380276000593;None;"[0.4491423999425024, 1.2014313000254333, 1.5934391000773758, 2.025674300035462]";;;S11181;2022_Feb_01_1802;VideoMask;2021.1.2;120.0746864085902;
1.0;f;021_o_f_s_a.jpg;sad;7.0;sad_9.5ns.avi;sad;7.0;congruent;130.0;160.0;206.16642757875042;s_s;;;;;0;57;57;57;;;;;;;742.9469401999377;None;744.8712394000031;745.1877568999771;746.4294700999744;746.4461428001523;752.0459370000754;None;7;0;0.7974672000855207;752.0459370000754;None;;;;;;;;2;;;;;;753.5876136999577;None;None;None;[];753.5876136999577;None;"['7', '7', '7']";753.5876136999577;None;"[0.3039229998830706, 0.6557565999682993, 1.0157232999335974]";;;S11181;2022_Feb_01_1802;VideoMask;2021.1.2;120.0746864085902;
1.0;f;021_o_f_h_a.jpg;happy;9.0;happy_12.1ns.avi;happy;9.0;congruent;120.0;150.0;132.59080005900228;h_h;;;;;0;58;58;58;;;;;;;756.5875848000869;None;757.9124179000501;758.2290340000764;759.396522300085;759.4292373000644;766.9789571999572;None;9;0;0.6888373999390751;766.9789571999572;None;;;;;;;;9;;;;;;768.5288501000032;None;None;None;[];768.5288501000032;None;"['9', '9', '9', '9', '9']";768.5288501000032;None;"[0.2906941999681294, 0.6105258001480252, 0.914710900047794, 1.283009700011462, 1.6826411001384258]";;;S11181;2022_Feb_01_1802;VideoMask;2021.1.2;120.0746864085902;
3.0;m;013_y_m_s_a.jpg;sad;7.0;happy_56.2ns.avi;happy;9.0;incongruent;130.0;150.0;163.39234110935848;s_h;;;;;0;59;59;59;;;;;;;771.5288329999894;None;773.0868071001023;773.4036336001009;774.620969499927;774.6535370999482;779.5618340999354;None;9;0;1.0495301999617368;779.5618340999354;None;;;;;;;;5;;;;;;781.1034295000136;None;None;None;[];781.1034295000136;None;None;781.1034295000136;None;;;;S11181;2022_Feb_01_1802;VideoMask;2021.1.2;120.0746864085902;
;;;;;;;;;;;;;;;;;;;;;;;;;;;;;;;;;;;;;;;;;;;;;;;;;;;;;;;;;;;;;;;;784.128351500025;None;;;;;;
