primePerson;primeGender;prime;primeEmotion;corrAnsPrime;target;targetEmotion;corrAnsTar;Cond;ID_Primer;ID_Target;JitterTime;example.thisRepN;example.thisTrialN;example.thisN;example.thisIndex;study.thisRepN;study.thisTrialN;study.thisN;study.thisIndex;MR_trigger_time;MR_trigger_number;text_intro.started;text_intro.stopped;text_probe.started;text_probe.stopped;polygon_ISI.started;polygon_ISI.stopped;polygon.started;polygon.stopped;primerImage.started;primerImage.stopped;response.started;response.stopped;key_resp.keys;key_resp.corr;key_resp.rt;key_resp.started;key_resp.stopped;slider_Text.started;slider_Text.stopped;slider_ex.response;slider_ex.rt;slider_ex.history;slider_ex.started;slider_ex.stopped;Rating;slider_resp_response.keys;slider_resp_response.started;slider_resp_response.stopped;text_start.started;text_start.stopped;text_slider.started;text_slider.stopped;slider_stud.response;slider_stud.rt;slider_stud.history;slider_stud.started;slider_stud.stopped;slider_resp_study.keys;slider_resp_study.started;slider_resp_study.stopped;slider_resp_study.rt;text_ende.started;text_ende.stopped;participant;date;expName;psychopyVersion;frameRate;
1111;m;1111_m_m_h_a.jpg;happy;9;example_30.4ns.avi;neutral;7;incongruent;120.0;170.0;189.5874364012288;0;0;0;0;;;;;58.42242809990421;1;58.50857989990618;60.5086680999957;60.5086680999957;None;62.52598059992306;None;64.7002939999802;65.01690039993264;66.1416787999915;66.15829960000701;70.49181939999107;None;8;0;0.6475159999681637;70.49181939999107;None;72.04999259999022;None;None;None;[];72.04999259999022;None;5;None;72.04999259999022;None;;;;;;;;;;;;;;;;S10781;2021_Jul_27_1728;VideoMask;2021.1.2;120.0114250628929;
1113;f;1113_y_f_s_a.jpg;sad;7;example_30.3ns.avi;neutral;7;incongruent;130.0;170.0;229.02432995836998;0;1;1;1;;;;;;;;;;;75.0664598000003;None;77.39140149997547;77.70812429999933;78.89161749999039;78.90814829990268;80.85825319995638;None;8;0;1.2570129999658093;80.85825319995638;None;82.41642649995629;None;None;None;[];82.41642649995629;None;5;None;82.41642649995629;None;;;;;;;;;;;;;;;;S10781;2021_Jul_27_1728;VideoMask;2021.1.2;120.0114250628929;
3.0;m;033_o_m_s_a.jpg;sad;7.0;sad_94.2ns.avi;sad;7.0;congruent;130.0;160.0;228.63582583242618;;;;;0;0;0;0;;;;;;;86.44957979989704;None;88.5494267999893;88.86612259992398;90.0411019999301;90.05784489994403;92.69107749999966;None;7;0;0.8642437999369577;92.69107749999966;None;;;;;;;;5;;;;85.44140269991476;None;94.24954679992516;None;None;None;[];94.24954679992516;None;None;94.24954679992516;None;;;;S10781;2021_Jul_27_1728;VideoMask;2021.1.2;120.0114250628929;
0.0;f;030_o_f_s_a.jpg;sad;7.0;sad_68.1ns.avi;sad;7.0;congruent;130.0;160.0;163.14738846961149;;;;;0;1;1;1;;;;;;;97.27435809990857;None;98.85746289999224;99.17426669993438;100.39101499994285;100.40757099993061;107.73257180000655;None;7;0;0.4789566999534145;107.73257180000655;None;;;;;;;;5;;;;;;109.31576409994159;None;None;None;[];109.31576409994159;None;None;109.31576409994159;None;;;;S10781;2021_Jul_27_1728;VideoMask;2021.1.2;120.0114250628929;
8.0;m;008_y_m_h_a.jpg;happy;9.0;happy_26.1ns.avi;happy;9.0;congruent;140.0;150.0;184.58211837191982;;;;;0;2;2;2;;;;;;;112.34896969993133;None;114.08207010000478;114.39907129993662;115.56534319999628;115.5908643999137;117.52385419991333;None;8;0;0.647588099935092;117.52385419991333;None;;;;;;;;5;;;;;;119.30711449997034;None;None;None;[];119.30711449997034;None;None;119.30711449997034;None;;;;S10781;2021_Jul_27_1728;VideoMask;2021.1.2;120.0114250628929;
0.0;f;030_o_f_s_a.jpg;sad;7.0;happy_125.3.wmv;happy;9.0;incongruent;130.0;150.0;189.50417957278896;;;;;0;3;3;3;;;;;;;122.3320037999656;None;124.14011459995527;124.45676609990187;125.59091209992766;125.6158024999313;127.5902175999945;None;9;0;0.7571099000051618;127.5902175999945;None;;;;;;;;5;;;;;;129.1401147999568;None;None;None;[];129.1401147999568;None;None;129.1401147999568;None;;;;S10781;2021_Jul_27_1728;VideoMask;2021.1.2;120.0114250628929;
1.0;f;021_o_f_s_a.jpg;sad;7.0;sad_9.5ns.avi;sad;7.0;congruent;130.0;160.0;156.55128602613038;;;;;0;4;4;4;;;;;;;132.17328389990143;None;133.681441099965;133.99826459994074;135.20653049997054;135.2315977999242;140.85634329996537;None;7;0;0.7070085000013933;140.85634329996537;None;;;;;;;;3;;;;;;142.40641629998572;None;None;None;[];142.40641629998572;None;"['7', '7']";142.40641629998572;None;"[0.30093040002975613, 1.0051075000083074]";;;S10781;2021_Jul_27_1728;VideoMask;2021.1.2;120.0114250628929;
4.0;m;004_o_m_s_a.jpg;sad;7.0;happy_28.1ns.avi;happy;9.0;incongruent;130.0;150.0;219.83540383939274;;;;;0;5;5;5;;;;;;;145.40626570000313;None;147.4394463999197;147.75630419992376;148.92290000000503;148.93952389992774;153.28114729991648;None;9;0;0.2983087000902742;153.28114729991648;None;;;;;;;;9;;;;;;154.88939459994435;None;None;None;[];154.88939459994435;None;"['9', '9', '9', '9']";154.88939459994435;None;"[0.10613040009047836, 0.490121400100179, 0.8422723000403494, 1.1619648000923917]";;;S10781;2021_Jul_27_1728;VideoMask;2021.1.2;120.0114250628929;
2.0;f;012_o_f_s_a.jpg;sad;7.0;sad_7.5ns.avi;sad;7.0;congruent;130.0;160.0;147.95125229894379;;;;;0;6;6;6;;;;;;;157.88928070000838;None;159.30570469994564;159.62251289992128;160.80630249995738;160.82283949991688;163.5478526999941;None;8;0;0.543747500050813;163.5478526999941;None;;;;;;;;5;;;;;;165.24742959998548;None;None;None;[];165.24742959998548;None;None;165.24742959998548;None;;;;S10781;2021_Jul_27_1728;VideoMask;2021.1.2;120.0114250628929;
2.0;f;012_o_f_s_a.jpg;sad;7.0;happy_52.2ns.avi;happy;9.0;incongruent;130.0;150.0;144.3898903070799;;;;;0;7;7;7;;;;;;;168.2727498000022;None;169.67256039998028;169.9889406999573;171.13057099992875;171.1472516999347;174.6721385999117;None;7;0;0.9072603000095114;174.6721385999117;None;;;;;;;;3;;;;;;176.2469143999042;None;None;None;[];176.2469143999042;None;"['7', '7']";176.2469143999042;None;"[0.01246190001256764, 0.7006142999744043]";;;S10781;2021_Jul_27_1728;VideoMask;2021.1.2;120.0114250628929;
0.0;f;040_y_f_s_a.jpg;sad;7.0;sad_67.2ns.avi;sad;7.0;congruent;130.0;160.0;192.80086779892653;;;;;0;8;8;8;;;;;;;179.25538669992238;None;181.08013469993602;181.39694949996192;182.57227479992434;182.59696969995275;191.75512260000687;None;9;0;0.5124977000523359;191.75512260000687;None;;;;;;;;9;;;;;;193.3549657999538;None;None;None;[];193.3549657999538;None;"['9', '9', '9', '9', '9', '9']";193.3549657999538;None;"[0.3524232000345364, 0.7445115000009537, 1.0325072000268847, 1.3606556000886485, 1.8643602000083774, 2.2405403000302613]";;;S10781;2021_Jul_27_1728;VideoMask;2021.1.2;120.0114250628929;
3.0;m;013_y_m_s_a.jpg;sad;7.0;happy_56.2ns.avi;happy;9.0;incongruent;130.0;150.0;134.62621969351147;;;;;0;9;9;9;;;;;;;196.36322649999056;None;197.69637969997711;198.01310689991806;199.163070499897;199.17980349995196;204.171528799925;None;9;0;0.7677293999586254;204.171528799925;None;;;;;;;;6;;;;;;205.74632539995946;None;None;None;[];205.74632539995946;None;"['9', '9']";205.74632539995946;None;"[0.20110900001600385, 0.7610554000129923]";;;S10781;2021_Jul_27_1728;VideoMask;2021.1.2;120.0114250628929;
0.0;f;030_o_f_h_a.jpg;happy;9.0;sad_133.1.wmv;sad;7.0;incongruent;120.0;160.0;238.4103736452693;;;;;0;10;10;10;;;;;;;208.74630399991293;None;210.94599459995516;211.2626563999802;212.39607029990293;212.41280629998073;214.39617779990658;None;7;0;0.4712649999419227;214.39617779990658;None;;;;;;;;4;;;;;;215.9710458999034;None;None;None;[];215.9710458999034;None;['7'];215.9710458999034;None;[0.2643857999937609];;;S10781;2021_Jul_27_1728;VideoMask;2021.1.2;120.0114250628929;
2.0;f;012_o_f_h_a.jpg;happy;9.0;happy_2.2ns.avi;happy;9.0;congruent;140.0;150.0;120.08648649110712;;;;;0;11;11;11;;;;;;;218.9710763999028;None;220.21237619989552;220.5292867999524;221.70387109997682;221.72068169992417;233.87093939993065;None;8;0;0.7004743999568745;233.87093939993065;None;;;;;;;;5;;;;;;235.46212819998618;None;None;None;[];235.46212819998618;None;None;235.46212819998618;None;;;;S10781;2021_Jul_27_1728;VideoMask;2021.1.2;120.0114250628929;
9.0;f;019_m_f_s_a.jpg;sad;7.0;sad_8.4ns.avi;sad;7.0;congruent;130.0;160.0;169.3395974323834;;;;;0;12;12;12;;;;;;;238.47855709993746;None;240.1201151999412;240.43692099989858;241.6119081999641;241.62851489998866;249.7117949000094;None;8;0;0.5077399000292644;249.7117949000094;None;;;;;;;;5;;;;;;251.2616933999816;None;None;None;[];251.2616933999816;None;None;251.2616933999816;None;;;;S10781;2021_Jul_27_1728;VideoMask;2021.1.2;120.0114250628929;
8.0;m;008_y_m_s_a.jpg;sad;7.0;sad_6.5ns.avi;sad;7.0;congruent;130.0;160.0;124.24628091899196;;;;;0;13;13;13;;;;;;;254.28669879992958;None;255.56157599994913;255.87814449996222;257.0198683999479;257.0365178999491;262.0121686999919;None;8;0;0.4554982000263408;262.0121686999919;None;;;;;;;;5;;;;;;263.5613757999381;None;None;None;[];263.5613757999381;None;None;263.5613757999381;None;;;;S10781;2021_Jul_27_1728;VideoMask;2021.1.2;120.0114250628929;
1.0;f;021_o_f_h_a.jpg;happy;9.0;happy_12.1ns.avi;happy;9.0;congruent;140.0;150.0;236.6487020138435;;;;;0;14;14;14;;;;;;;266.5944251999026;None;268.79454189992975;269.11116909992415;270.27783149993047;270.2951523999218;277.8610722000012;None;9;0;0.5824966999934986;277.8610722000012;None;;;;;;;;7;;;;;;279.4192108999705;None;None;None;[];279.4192108999705;None;"['9', '9']";279.4192108999705;None;"[0.23279200005345047, 0.6482443000422791]";;;S10781;2021_Jul_27_1728;VideoMask;2021.1.2;120.0114250628929;
8.0;f;028_y_f_s_a.jpg;sad;7.0;sad_64.2ns.avi;sad;7.0;congruent;130.0;160.0;238.8507440172915;;;;;0;15;15;15;;;;;;;282.42750269989483;None;284.65271799999755;284.9690526999766;286.1522256999742;286.16903089999687;297.1022071999032;None;None;0;;297.1022071999032;None;;;;;;;;3;;;;;;298.66855850000866;None;None;None;[];298.66855850000866;None;"['7', '7']";298.66855850000866;None;"[0.2627867000410333, 0.6069729001028463]";;;S10781;2021_Jul_27_1728;VideoMask;2021.1.2;120.0114250628929;
2.0;f;012_o_f_s_a.jpg;sad;7.0;happy_139.1.wmv;happy;9.0;incongruent;130.0;150.0;185.59030554143408;;;;;0;16;16;16;;;;;;;301.6859302999219;None;303.43508849991485;303.7518764999695;304.89351999992505;304.9101140999701;306.8851895999396;None;7;0;0.5744610000401735;306.8851895999396;None;;;;;;;;3;;;;;;308.45176530000754;None;None;None;[];308.45176530000754;None;"['7', '7']";308.45176530000754;None;"[0.7920144000090659, 1.5277740999590605]";;;S10781;2021_Jul_27_1728;VideoMask;2021.1.2;120.0114250628929;
3.0;m;033_o_m_s_a.jpg;sad;7.0;sad_64.5ns.avi;sad;7.0;congruent;130.0;160.0;159.52646627166388;;;;;0;17;17;17;;;;;;;311.460058299941;None;313.0014891999308;313.318446499994;314.5099120999221;314.5265988999745;321.05141009995714;None;7;0;0.6242311000823975;321.05141009995714;None;;;;;;;;2;;;;;;322.6013940999983;None;None;None;[];322.6013940999983;None;"['7', '7', '7']";322.6013940999983;None;"[0.314463600050658, 0.6661990999709815, 1.8824338000267744]";;;S10781;2021_Jul_27_1728;VideoMask;2021.1.2;120.0114250628929;
0.0;f;040_y_f_s_a.jpg;sad;7.0;happy_127.3.wmv;happy;9.0;incongruent;130.0;150.0;131.0431594605889;;;;;0;18;18;18;;;;;;;325.6095397999743;None;326.9094438999891;327.2261414999375;328.3512067999691;328.36782879999373;330.4269221998984;None;9;0;0.4166941000148654;330.4269221998984;None;;;;;;;;8;;;;;;331.9760969999479;None;None;None;[];331.9760969999479;None;"['9', '9', '9', '9']";331.9760969999479;None;"[0.299471800099127, 0.651432599988766, 0.9316888999892399, 1.2755890000844374]";;;S10781;2021_Jul_27_1728;VideoMask;2021.1.2;120.0114250628929;
3.0;m;033_o_m_h_a.jpg;happy;9.0;sad_128.1.wmv;sad;7.0;incongruent;120.0;160.0;168.97426303437265;;;;;0;19;19;19;;;;;;;334.97601929993834;None;336.59238589997403;336.90926019998733;338.03438039997127;338.05087609996554;340.0426483999472;None;None;0;;340.0426483999472;None;;;;;;;;2;;;;;;341.59259199991357;None;None;None;[];341.59259199991357;None;"['7', '7', '7', '7']";341.59259199991357;None;"[0.3071934999898076, 0.5870327000739053, 0.859271900029853, 1.0031730000628158]";;;S10781;2021_Jul_27_1728;VideoMask;2021.1.2;120.0114250628929;
9.0;f;019_m_f_h_a.jpg;happy;9.0;sad_115.1.wmv;sad;7.0;incongruent;120.0;160.0;202.13700247699333;;;;;0;20;20;20;;;;;;;344.6008022999158;None;346.49221349996515;346.8089147999417;347.9338687999407;347.9506623999914;349.9423821999226;None;None;0;;349.9423821999226;None;;;;;;;;4;;;;;;351.49222999997437;None;None;None;[];351.49222999997437;None;"['7', '7']";351.49222999997437;None;"[0.2954620999516919, 0.719689599936828]";;;S10781;2021_Jul_27_1728;VideoMask;2021.1.2;120.0114250628929;
8.0;m;008_y_m_h_a.jpg;happy;9.0;happy_1.2ns.avi;happy;9.0;congruent;140.0;150.0;155.22310421045015;;;;;0;21;21;21;;;;;;;354.49216099991463;None;356.0336186999921;356.350268799928;357.50869489996694;357.52533949993085;370.29175569990184;None;9;0;0.6641158000566065;370.29175569990184;None;;;;;;;;8;;;;;;371.84985839994624;None;None;None;[];371.84985839994624;None;"['9', '9', '9', '9', '9']";371.84985839994624;None;"[0.26581600005738437, 0.5938838000874966, 0.8978842000942677, 1.1937780000735074, 1.601856300025247]";;;S10781;2021_Jul_27_1728;VideoMask;2021.1.2;120.0114250628929;
0.0;f;040_y_f_s_a.jpg;sad;7.0;sad_94.3ns.avi;sad;7.0;congruent;130.0;160.0;157.18644691248227;;;;;0;22;22;22;;;;;;;374.8583257999271;None;376.3663760999916;376.68312579998747;377.81644179997966;377.83339609997347;380.4413899999345;None;None;0;;380.4413899999345;None;;;;;;;;1;;;;;;381.9910695999861;None;None;None;[];381.9910695999861;None;"['7', '7', '7', '7']";381.9910695999861;None;"[0.30871739995200187, 0.5967208000365645, 0.788596999947913, 0.9966859000269324]";;;S10781;2021_Jul_27_1728;VideoMask;2021.1.2;120.0114250628929;
6.0;m;016_y_m_s_a.jpg;sad;7.0;happy_60.4ns.avi;happy;9.0;incongruent;130.0;150.0;135.96622391936876;;;;;0;23;23;23;;;;;;;384.99133409990463;None;386.3327010999201;386.6494907999877;387.85787059995346;387.87457189999986;393.5745884999633;None;9;0;0.6611951000522822;393.5745884999633;None;;;;;;;;9;;;;;;395.1159797;None;None;None;[];395.1159797;None;"['9', '9', '9', '9']";395.1159797;None;"[0.09565499995369464, 0.41586159996222705, 0.687761600012891, 0.9516916000284255]";;;S10781;2021_Jul_27_1728;VideoMask;2021.1.2;120.0114250628929;
0.0;f;030_o_f_h_a.jpg;happy;9.0;happy_24.1ns.avi;happy;9.0;congruent;140.0;150.0;187.2363405679046;;;;;0;24;24;24;;;;;;;398.12421539996285;None;399.8990404999349;400.2157592999283;401.42455190001056;401.44916640000883;404.67457979999017;None;9;0;0.42519199999514967;404.67457979999017;None;;;;;;;;9;;;;;;406.2323302999139;None;None;None;[];406.2323302999139;None;"['9', '9', '9', '9', '9']";406.2323302999139;None;"[0.22729559999424964, 0.5153258999343961, 0.7875088999280706, 1.099696799996309, 1.3553955999668688]";;;S10781;2021_Jul_27_1728;VideoMask;2021.1.2;120.0114250628929;
8.0;m;008_y_m_s_a.jpg;sad;7.0;happy_133.3.wmv;happy;9.0;incongruent;130.0;150.0;151.65964880545846;;;;;0;25;25;25;;;;;;;409.2406847999664;None;410.7155777999433;411.03221049997956;412.17397209990304;412.19053859997075;414.17438969993964;None;None;0;;414.17438969993964;None;;;;;;;;7;;;;;;415.90709669992793;None;None;None;[];415.90709669992793;None;"['9', '9']";415.90709669992793;None;"[0.07287719997111708, 0.6566065000370145]";;;S10781;2021_Jul_27_1728;VideoMask;2021.1.2;120.0114250628929;
1.0;f;021_o_f_s_a.jpg;sad;7.0;happy_61.2ns.avi;happy;9.0;incongruent;130.0;150.0;146.79956415721207;;;;;0;26;26;26;;;;;;;418.91533739992883;None;420.3400941999862;420.6568519999273;421.8649745999137;421.88170139992144;426.31516009999905;None;None;0;;426.31516009999905;None;;;;;;;;4;;;;;;427.8649102000054;None;None;None;[];427.8649102000054;None;['7'];427.8649102000054;None;[0.42688179994001985];;;S10781;2021_Jul_27_1728;VideoMask;2021.1.2;120.0114250628929;
1.0;f;021_o_f_h_a.jpg;happy;9.0;sad_116.1.wmv;sad;7.0;incongruent;120.0;160.0;205.93899364307754;;;;;0;27;27;27;;;;;;;430.86495610000566;None;432.78978339990135;433.10651279997546;434.23984489997383;434.2563410999719;436.23983909992967;None;9;0;1.059873899910599;436.23983909992967;None;;;;;;;;4;;;;;;437.78970429999754;None;None;None;[];437.78970429999754;None;"['9', '7']";437.78970429999754;None;"[0.5019795000553131, 1.5901086999801919]";;;S10781;2021_Jul_27_1728;VideoMask;2021.1.2;120.0114250628929;
7.0;m;027_o_m_h_a.jpg;happy;9.0;happy_20.1ns.avi;happy;9.0;congruent;140.0;150.0;145.4488529976734;;;;;0;28;28;28;;;;;;;440.7980162999593;None;442.2061166999629;442.52308749989606;443.664815899916;443.68127229996026;446.67300269997213;None;None;0;;446.67300269997213;None;;;;;;;;4;;;;;;448.2229413999012;None;None;None;[];448.2229413999012;None;['7'];448.2229413999012;None;[0.33281249995343387];;;S10781;2021_Jul_27_1728;VideoMask;2021.1.2;120.0114250628929;
3.0;m;033_o_m_s_a.jpg;sad;7.0;happy_126.3.wmv;happy;9.0;incongruent;130.0;150.0;220.47504181707743;;;;;0;29;29;29;;;;;;;451.23124889994506;None;453.28087779995985;453.5979591999203;454.73075779993087;454.7474481998943;456.73093689989764;None;None;0;;456.73093689989764;None;;;;;;;;6;;;;;;458.2807332999073;None;None;None;[];458.2807332999073;None;['9'];458.2807332999073;None;[0.635152000002563];;;S10781;2021_Jul_27_1728;VideoMask;2021.1.2;120.0114250628929;
4.0;m;004_o_m_s_a.jpg;sad;7.0;sad_2.4ns.avi;sad;7.0;congruent;130.0;160.0;153.9424691910033;;;;;0;30;30;30;;;;;;;461.28910689998884;None;462.78891149989795;463.1056604000041;464.2973320999881;464.3141169999726;472.1972464999417;None;None;0;;472.1972464999417;None;;;;;;;;5;;;;;;473.75549229991157;None;None;None;[];473.75549229991157;None;None;473.75549229991157;None;;;;S10781;2021_Jul_27_1728;VideoMask;2021.1.2;120.0114250628929;
8.0;m;008_y_m_h_a.jpg;happy;9.0;sad_111.1.wmv;sad;7.0;incongruent;120.0;160.0;182.0123397825363;;;;;0;31;31;31;;;;;;;476.788681200007;None;478.51349029992707;478.8304518999066;479.9552954999963;479.971955099958;481.9802497999044;None;None;0;;481.9802497999044;None;;;;;;;;4;;;;;;483.53001599991694;None;None;None;[];483.53001599991694;None;['7'];483.53001599991694;None;[0.45798519998788834];;;S10781;2021_Jul_27_1728;VideoMask;2021.1.2;120.0114250628929;
4.0;m;004_o_m_h_a.jpg;happy;9.0;happy_1.1ns.avi;happy;9.0;congruent;140.0;150.0;145.41905773865074;;;;;0;32;32;32;;;;;;;486.5302326999372;None;487.9965185999172;488.31333659996744;489.5221218999941;489.54663549992256;503.9380403999239;None;9;0;0.6258068999741226;503.9380403999239;None;;;;;;;;7;;;;;;505.4878985999385;None;None;None;[];505.4878985999385;None;"['9', '9']";505.4878985999385;None;"[0.21993010002188385, 0.5881933000637218]";;;S10781;2021_Jul_27_1728;VideoMask;2021.1.2;120.0114250628929;
4.0;m;004_o_m_s_a.jpg;sad;7.0;happy_131.2.wmv;happy;9.0;incongruent;130.0;150.0;163.9874412082805;;;;;0;33;33;33;;;;;;;508.496165099903;None;510.09656949993223;510.41256919992156;511.5459002999123;511.5708203999093;513.5466145999962;None;None;0;;513.5466145999962;None;;;;;;;;8;;;;;;515.0957793999696;None;None;None;[];515.0957793999696;None;"['9', '9', '9']";515.0957793999696;None;"[0.340052800020203, 0.7001078999601305, 1.988293300033547]";;;S10781;2021_Jul_27_1728;VideoMask;2021.1.2;120.0114250628929;
2.0;f;012_o_f_h_a.jpg;happy;9.0;happy_27.1ns.avi;happy;9.0;congruent;140.0;150.0;207.9053492649655;;;;;0;34;34;34;;;;;;;518.0960490999278;None;520.0292456999887;520.3543767000083;521.5374443999026;521.5540949999122;523.9713444999652;None;None;0;;523.9713444999652;None;;;;;;;;9;;;;;;525.5213124000002;None;None;None;[];525.5213124000002;None;"['9', '9', '9', '9']";525.5213124000002;None;"[0.30665669997688383, 0.6505392999388278, 0.9386993999360129, 1.7145253999624401]";;;S10781;2021_Jul_27_1728;VideoMask;2021.1.2;120.0114250628929;
7.0;m;027_o_m_s_a.jpg;sad;7.0;happy_117.3.wmv;happy;9.0;incongruent;130.0;150.0;218.0520785974414;;;;;0;35;35;35;;;;;;;528.5289002999198;None;530.5537026999518;530.8703733999282;532.0039280999918;532.0211073999526;534.0038246999029;None;None;0;;534.0038246999029;None;;;;;;;;9;;;;;;535.5539217999903;None;None;None;[];535.5539217999903;None;"['9', '9', '9', '9']";535.5539217999903;None;"[0.545897200005129, 0.8419029000215232, 1.0819134999765083, 1.4100447000237182]";;;S10781;2021_Jul_27_1728;VideoMask;2021.1.2;120.0114250628929;
2.0;f;012_o_f_h_a.jpg;happy;9.0;sad_113.1.wmv;sad;7.0;incongruent;120.0;160.0;192.53137802384992;;;;;0;36;36;36;;;;;;;538.5538034999045;None;540.3617752999999;540.6785171999363;541.8036802998977;541.8202348999912;543.8118910999037;None;None;0;;543.8118910999037;None;;;;;;;;4;;;;;;545.3617776999017;None;None;None;[];545.3617776999017;None;['7'];545.3617776999017;None;[0.722028199932538];;;S10781;2021_Jul_27_1728;VideoMask;2021.1.2;120.0114250628929;
8.0;f;028_y_f_h_a.jpg;happy;9.0;happy_23.1ns.avi;happy;9.0;congruent;140.0;150.0;159.76384515822056;;;;;0;37;37;37;;;;;;;548.370165899978;None;549.9031664999202;550.2199273000006;551.3702746999916;551.394990199944;555.9280604999512;None;9;0;1.451863200054504;555.9280604999512;None;;;;;;;;8;;;;;;557.477974099922;None;None;None;[];557.477974099922;None;"['9', '9', '9']";557.477974099922;None;"[0.2618409999413416, 0.6059278999455273, 0.9660107999807224]";;;S10781;2021_Jul_27_1728;VideoMask;2021.1.2;120.0114250628929;
0.0;f;030_o_f_s_a.jpg;sad;7.0;sad_64.3ns.avi;sad;7.0;congruent;130.0;160.0;172.91738127163183;;;;;0;38;38;38;;;;;;;560.4780344999162;None;562.1279620999703;562.4446395999985;563.6029269999126;563.6195730000036;568.5779204999562;None;None;0;;568.5779204999562;None;;;;;;;;5;;;;;;570.1275902999332;None;None;None;[];570.1275902999332;None;None;570.1275902999332;None;;;;S10781;2021_Jul_27_1728;VideoMask;2021.1.2;120.0114250628929;
6.0;m;016_y_m_h_a.jpg;happy;9.0;sad_114.1.wmv;sad;7.0;incongruent;120.0;160.0;196.03539454983184;;;;;0;39;39;39;;;;;;;573.1527214999078;None;574.9940262999153;575.3108408999396;576.4440290000057;576.4608592999866;578.4525935999118;None;None;0;;578.4525935999118;None;;;;;;;;4;;;;;;580.011323899962;None;None;None;[];580.011323899962;None;['7'];580.011323899962;None;[0.7286910000257194];;;S10781;2021_Jul_27_1728;VideoMask;2021.1.2;120.0114250628929;
6.0;m;016_y_m_s_a.jpg;sad;7.0;sad_8.3ns.avi;sad;7.0;congruent;130.0;160.0;139.87174075953956;;;;;0;40;40;40;;;;;;;583.0108269999037;None;584.3854543999769;584.7022507999791;585.860647299909;585.8772725999588;593.593863899936;None;None;0;;593.593863899936;None;;;;;;;;5;;;;;;595.1438074999023;None;None;None;[];595.1438074999023;None;None;595.1438074999023;None;;;;S10781;2021_Jul_27_1728;VideoMask;2021.1.2;120.0114250628929;
7.0;m;027_o_m_s_a.jpg;sad;7.0;sad_10.4ns.avi;sad;7.0;congruent;130.0;160.0;163.89298117292617;;;;;0;41;41;41;;;;;;;598.1601243999321;None;599.718424599967;600.0351439999649;601.1768770999042;601.1935135999229;604.3353215999668;None;None;0;;604.3353215999668;None;;;;;;;;8;;;;;;605.8851626999676;None;None;None;[];605.8851626999676;None;"['9', '9', '9']";605.8851626999676;None;"[0.2546271999599412, 0.5668384999735281, 0.8548242000397295]";;;S10781;2021_Jul_27_1728;VideoMask;2021.1.2;120.0114250628929;
3.0;m;013_y_m_h_a.jpg;happy;9.0;happy_9.1ns.avi;happy;9.0;congruent;140.0;150.0;128.37211756912527;;;;;0;42;42;42;;;;;;;608.8933973999228;None;610.1681199999293;610.4851001999341;611.6610600999556;611.7016203999519;614.8518929999555;None;None;0;;614.8518929999555;None;;;;;;;;7;;;;;;616.4181368999416;None;None;None;[];616.4181368999416;None;"['9', '9']";616.4181368999416;None;"[0.24992990004830062, 1.1218314999714494]";;;S10781;2021_Jul_27_1728;VideoMask;2021.1.2;120.0114250628929;
7.0;m;027_o_m_h_a.jpg;happy;9.0;sad_117.1.wmv;sad;7.0;incongruent;120.0;160.0;163.19466748508617;;;;;0;43;43;43;;;;;;;619.4265182999661;None;621.0012075999985;621.3179684999632;622.4430013999809;622.4596286999295;624.443017499987;None;7;0;1.0730199000099674;624.443017499987;None;;;;;;;;4;;;;;;625.9928211999359;None;None;None;[];625.9928211999359;None;"['7', '7', '7']";625.9928211999359;None;"[0.22715049993712455, 0.8112784998957068, 1.1313229999504983]";;;S10781;2021_Jul_27_1728;VideoMask;2021.1.2;120.0114250628929;
4.0;m;004_o_m_h_a.jpg;happy;9.0;sad_95.1ns.avi;sad;7.0;incongruent;120.0;160.0;162.95060606286506;;;;;0;44;44;44;;;;;;;628.9928180999123;None;630.5758682999294;630.8927193999989;632.0760104999645;632.0927051999606;640.8176175999688;None;7;0;0.874297000002116;640.8176175999688;None;;;;;;;;1;;;;;;642.3672989999177;None;None;None;[];642.3672989999177;None;"['7', '7', '7', '7', '7']";642.3672989999177;None;"[0.1888760000001639, 0.45279110001865774, 0.660715900012292, 0.8529217999894172, 1.0128917000256479]";;;S10781;2021_Jul_27_1728;VideoMask;2021.1.2;120.0114250628929;
0.0;f;040_y_f_h_a.jpg;happy;9.0;sad_128.2.wmv;sad;7.0;incongruent;120.0;160.0;121.98396994352893;;;;;0;45;45;45;;;;;;;645.3673595999135;None;646.592131299898;646.9088350000093;648.050511199981;648.0672061999794;650.0422865999863;None;None;0;;650.0422865999863;None;;;;;;;;2;;;;;;651.5920893999282;None;None;None;[];651.5920893999282;None;"['7', '7', '7']";651.5920893999282;None;"[0.34778329997789115, 0.6759958999464288, 0.9640703999903053]";;;S10781;2021_Jul_27_1728;VideoMask;2021.1.2;120.0114250628929;
0.0;f;040_y_f_h_a.jpg;happy;9.0;sad_138.1.wmv;sad;7.0;incongruent;120.0;160.0;195.60264978061832;;;;;0;46;46;46;;;;;;;654.6003685999895;None;656.441846499918;656.75850789994;657.8919960999629;657.9086378999054;659.8919595999178;None;None;0;;659.8919595999178;None;;;;;;;;7;;;;;;661.4416663999436;None;None;None;[];661.4416663999436;None;"['9', '9']";661.4416663999436;None;"[0.33052840002346784, 0.66665330005344]";;;S10781;2021_Jul_27_1728;VideoMask;2021.1.2;120.0114250628929;
8.0;m;008_y_m_s_a.jpg;sad;7.0;happy_29.1ns.avi;happy;9.0;incongruent;130.0;150.0;212.92407054126133;;;;;0;47;47;47;;;;;;;664.4502555999206;None;666.4250870998949;666.7415991999442;667.8922925000079;667.9168470998993;670.566611199989;None;9;0;0.45348040002863854;670.566611199989;None;;;;;;;;9;;;;;;672.1666685999371;None;None;None;[];672.1666685999371;None;"['9', '9', '9', '9']";672.1666685999371;None;"[10.690355299971998, 0.22152100002858788, 0.4293769000796601, 0.7894306000089273]";;;S10781;2021_Jul_27_1728;VideoMask;2021.1.2;120.0114250628929;
0.0;f;040_y_f_h_a.jpg;happy;9.0;happy_24.3ns.avi;happy;9.0;congruent;140.0;150.0;190.23859628619445;;;;;0;48;48;48;;;;;;;675.1416146999691;None;676.9162557999371;677.2329253999051;678.4410927999998;678.4577838999685;680.2912661998998;None;None;0;;680.2912661998998;None;;;;;;;;7;;;;;;681.8410851999652;None;None;None;[];681.8410851999652;None;"['9', '9']";681.8410851999652;None;"[0.49084129999391735, 0.819100399967283]";;;S10781;2021_Jul_27_1728;VideoMask;2021.1.2;120.0114250628929;
3.0;m;033_o_m_h_a.jpg;happy;9.0;happy_24.2ns.avi;happy;9.0;congruent;140.0;150.0;127.28107088671867;;;;;0;49;49;49;;;;;;;684.8411863999208;None;686.0993314000079;686.4246385999722;687.641184899956;687.6577526999172;691.2743255000096;None;9;0;0.36177459999453276;691.2743255000096;None;;;;;;;;8;;;;;;692.8492880999111;None;None;None;[];692.8492880999111;None;"['9', '9', '9']";692.8492880999111;None;"[0.2267625000094995, 0.48289340001065284, 1.210882999934256]";;;S10781;2021_Jul_27_1728;VideoMask;2021.1.2;120.0114250628929;
9.0;f;019_m_f_s_a.jpg;sad;7.0;happy_61.1ns.avi;happy;9.0;incongruent;130.0;150.0;190.9434091532566;;;;;0;50;50;50;;;;;;;695.8575264998944;None;697.6655539999483;697.9823835999705;699.1746923999162;699.1991024999879;706.5074458000017;None;None;0;;706.5074458000017;None;;;;;;;;7;;;;;;708.0572167999344;None;None;None;[];708.0572167999344;None;"['9', '9', '9']";708.0572167999344;None;"[0.23497760004829615, 0.6592815000331029, 1.1790014000143856]";;;S10781;2021_Jul_27_1728;VideoMask;2021.1.2;120.0114250628929;
8.0;f;028_y_f_h_a.jpg;happy;9.0;sad_119.1.wmv;sad;7.0;incongruent;120.0;160.0;178.10396226647933;;;;;0;51;51;51;;;;;;;711.0571052999003;None;712.7569339999463;713.0735647999682;714.206829899922;714.2236758999061;716.2737506999401;None;None;0;;716.2737506999401;None;;;;;;;;5;;;;;;717.8238286999986;None;None;None;[];717.8238286999986;None;None;717.8238286999986;None;;;;S10781;2021_Jul_27_1728;VideoMask;2021.1.2;120.0114250628929;
3.0;m;033_o_m_h_a.jpg;happy;9.0;sad_136.1.wmv;sad;7.0;incongruent;120.0;160.0;206.04367658109783;;;;;0;52;52;52;;;;;;;720.8484289000044;None;722.7817112999037;723.09835320001;724.2321790999267;724.2567473999225;726.231824999908;None;None;0;;726.231824999908;None;;;;;;;;1;;;;;;727.7817174999509;None;None;None;[];727.7817174999509;None;"['7', '7', '7', '7', '7']";727.7817174999509;None;"[0.3024110000114888, 0.798575000022538, 1.1982426999602467, 1.3585489999968559, 1.5504222000017762]";;;S10781;2021_Jul_27_1728;VideoMask;2021.1.2;120.0114250628929;
6.0;m;016_y_m_h_a.jpg;happy;9.0;happy_9.2ns.avi;happy;9.0;congruent;140.0;150.0;136.52220806776708;;;;;0;53;53;53;;;;;;;730.7816842999309;None;732.1230203999439;732.4399534999393;733.5649024999002;733.5814434000058;739.4981888999464;None;None;0;;739.4981888999464;None;;;;;;;;1;;;;;;741.0481842999579;None;None;None;[];741.0481842999579;None;"['7', '7', '7', '7', '7', '7', '7', '7', '7', '7', '7']";741.0481842999579;None;"[0.32404900004621595, 0.6359926000004634, 0.8360642000334337, 1.0361378999659792, 1.2200050000101328, 1.4201368000358343, 1.6361151000019163, 1.8520760000683367, 2.044096800033003, 2.2361109000630677, 2.3879556000465527]";;;S10781;2021_Jul_27_1728;VideoMask;2021.1.2;120.0114250628929;
9.0;f;019_m_f_h_a.jpg;happy;9.0;happy_10.1ns.avi;happy;9.0;congruent;140.0;150.0;180.35091595488527;;;;;0;54;54;54;;;;;;;744.0479135999922;None;745.7641722999979;746.0810957999201;747.2310783999274;747.247756299912;754.6558177999686;None;None;0;;754.6558177999686;None;;;;;;;;7;;;;;;756.2061840000097;None;None;None;[];756.2061840000097;None;"['9', '9', '9']";756.2061840000097;None;"[0.3338697999715805, 0.7100869999267161, 1.0540924998931587]";;;S10781;2021_Jul_27_1728;VideoMask;2021.1.2;120.0114250628929;
8.0;f;028_y_f_s_a.jpg;sad;7.0;happy_122.3.wmv;happy;9.0;incongruent;130.0;150.0;204.27932588393085;;;;;0;55;55;55;;;;;;;759.214084199979;None;761.1305534999119;761.4472961999709;762.5806858999422;762.5973135000095;764.5810189999174;None;None;0;;764.5810189999174;None;;;;;;;;6;;;;;;766.1308280999074;None;None;None;[];766.1308280999074;None;['9'];766.1308280999074;None;[0.44925100007094443];;;S10781;2021_Jul_27_1728;VideoMask;2021.1.2;120.0114250628929;
3.0;m;013_y_m_s_a.jpg;sad;7.0;sad_7.7ns.avi;sad;7.0;congruent;130.0;160.0;192.40728800739942;;;;;0;56;56;56;;;;;;;769.1304818999488;None;770.9386163000017;771.2553695999086;772.4383604999166;772.4551766999066;778.3886531000026;None;None;0;;778.3886531000026;None;;;;;;;;2;;;;;;779.9387038999703;None;None;None;[];779.9387038999703;None;"['7', '7', '7']";779.9387038999703;None;"[0.2335499000037089, 0.4813190000131726, 0.8014300999930128]";;;S10781;2021_Jul_27_1728;VideoMask;2021.1.2;120.0114250628929;
3.0;m;013_y_m_h_a.jpg;happy;9.0;sad_113.2.wmv;sad;7.0;incongruent;120.0;160.0;219.6544115751568;;;;;0;57;57;57;;;;;;;782.9384234999306;None;784.9798691999167;785.2968252999708;786.4301011000061;786.446643400006;788.430111899972;None;None;0;;788.430111899972;None;;;;;;;;1;;;;;;789.9797033999348;None;None;None;[];789.9797033999348;None;"['7', '7', '7', '7', '7']";789.9797033999348;None;"[0.2405379000119865, 0.6086442000232637, 0.9124675000784919, 1.1765548000112176, 1.5925151000265032]";;;S10781;2021_Jul_27_1728;VideoMask;2021.1.2;120.0114250628929;
4.0;m;004_o_m_h_a.jpg;happy;9.0;happy_25.1ns.avi;happy;9.0;congruent;140.0;150.0;237.98255695511958;;;;;0;58;58;58;;;;;;;792.9882730999961;None;795.1795899999561;795.4963286999846;796.7547333999537;796.7713883999968;800.3213458999526;None;None;0;;800.3213458999526;None;;;;;;;;7;;;;;;801.8710659999633;None;None;None;[];801.8710659999633;None;"['9', '9', '9', '9', '9']";801.8710659999633;None;"[0.4931908999569714, 0.8851771999616176, 1.2611615000059828, 1.6929969999473542, 2.157378999982029]";;;S10781;2021_Jul_27_1728;VideoMask;2021.1.2;120.0114250628929;
0.0;f;030_o_f_h_a.jpg;happy;9.0;sad_127.1.wmv;sad;7.0;incongruent;120.0;160.0;231.85538291836468;;;;;0;59;59;59;;;;;;;804.8710975999711;None;807.0130518999649;807.3293644000078;808.4544362999732;808.4708867999725;810.4625486999284;None;None;0;;810.4625486999284;None;;;;;;;;3;;;;;;812.0129003999755;None;None;None;[];812.0129003999755;None;"['7', '7']";812.0129003999755;None;"[0.007300899946130812, 0.3914993000216782]";;;S10781;2021_Jul_27_1728;VideoMask;2021.1.2;120.0114250628929;
;;;;;;;;;;;;;;;;;;;;;;;;;;;;;;;;;;;;;;;;;;;;;;;;;;;;;;;;;;;;;;;815.0210007999558;None;;;;;;
