primePerson;primeGender;prime;primeEmotion;corrAnsPrime;target;targetEmotion;corrAnsTar;Cond;ID_Primer;ID_Target;JitterTime;example.thisRepN;example.thisTrialN;example.thisN;example.thisIndex;study.thisRepN;study.thisTrialN;study.thisN;study.thisIndex;MR_trigger_time;MR_trigger_number;text_intro.started;text_intro.stopped;text_probe.started;text_probe.stopped;polygon_ISI.started;polygon_ISI.stopped;polygon.started;polygon.stopped;primerImage.started;primerImage.stopped;response.started;response.stopped;key_resp.keys;key_resp.corr;key_resp.rt;key_resp.started;key_resp.stopped;slider_Text.started;slider_Text.stopped;slider_ex.response;slider_ex.rt;slider_ex.history;slider_ex.started;slider_ex.stopped;Rating;slider_resp_response.keys;slider_resp_response.rt;slider_resp_response.started;slider_resp_response.stopped;text_start.started;text_start.stopped;text_slider.started;text_slider.stopped;slider_stud.response;slider_stud.rt;slider_stud.history;slider_stud.started;slider_stud.stopped;slider_resp_study.keys;slider_resp_study.rt;slider_resp_study.started;slider_resp_study.stopped;text_ende.started;text_ende.stopped;participant;date;expName;psychopyVersion;frameRate;
1111;m;1111_m_m_h_a.jpg;happy;9;example_30.4ns.avi;neutral;7;incongruent;120.0;170.0;189.5874364012288;0;0;0;0;;;;;46.05903940007556;1;46.13654810003936;48.1367278000107;48.1367278000107;None;50.16979569999967;None;52.427986600087024;52.75322210008744;53.92827940010466;53.94482970004901;58.219790300005116;None;9;0;0.9481004999252036;58.219790300005116;None;59.78622310003266;None;None;None;[];59.78622310003266;None;5;['7'];[1.6857578000053763];59.78622310003266;None;;;;;;;;;;;;;;;;S10752;2021_Jul_14_1745;VideoMask;2021.1.2;120.05191039409793;
1113;f;1113_y_f_s_a.jpg;sad;7;example_30.3ns.avi;neutral;7;incongruent;130.0;170.0;229.02432995836998;0;1;1;1;;;;;;;;;;;61.76966790005099;None;63.902738100034185;64.21948100009467;65.41123230010271;65.42786940000951;67.35286189999897;None;8;0;0.6150523999240249;67.35286189999897;None;68.90278010000475;None;None;None;[];68.90278010000475;None;5;None;;68.90278010000475;None;;;;;;;;;;;;;;;;S10752;2021_Jul_14_1745;VideoMask;2021.1.2;120.05191039409793;
3.0;m;033_o_m_s_a.jpg;sad;7.0;sad_94.2ns.avi;sad;7.0;congruent;130.0;160.0;228.63582583242618;;;;;0;0;0;0;;;;;;;71.95268340001348;None;74.0691873000469;74.38583889999427;75.55234390008263;75.56922040006611;78.21084549999796;None;7;0;1.269061499973759;78.21084549999796;None;;;;;;;;3;;;;;70.92781080002896;None;79.76918280008249;None;None;None;[];79.76918280008249;None;"['7', '7']";"[0.5427645000163466, 1.4946922999806702]";79.76918280008249;None;;;S10752;2021_Jul_14_1745;VideoMask;2021.1.2;120.05191039409793;
0.0;f;030_o_f_s_a.jpg;sad;7.0;sad_68.1ns.avi;sad;7.0;congruent;130.0;160.0;163.14738846961149;;;;;0;1;1;1;;;;;;;82.26072820008267;None;83.86882170010358;84.18566040007863;85.32728520000819;85.34390610002447;92.74387750006281;None;7;0;0.59229930001311;92.74387750006281;None;;;;;;;;4;;;;;;;94.29371500003617;None;None;None;[];94.29371500003617;None;['7'];[0.29045950004365295];94.29371500003617;None;;;S10752;2021_Jul_14_1745;VideoMask;2021.1.2;120.05191039409793;
8.0;m;008_y_m_h_a.jpg;happy;9.0;happy_26.1ns.avi;happy;9.0;congruent;140.0;150.0;184.58211837191982;;;;;0;2;2;2;;;;;;;96.79369020008016;None;98.53530330001377;98.8518448000541;99.99352820008062;100.0102792000398;101.97696320002433;None;9;0;0.5749642999144271;101.97696320002433;None;;;;;;;;6;;;;;;;103.52681180008221;None;None;None;[];103.52681180008221;None;['9'];[0.46522180002648383];103.52681180008221;None;;;S10752;2021_Jul_14_1745;VideoMask;2021.1.2;120.05191039409793;
0.0;f;030_o_f_s_a.jpg;sad;7.0;happy_125.3.wmv;happy;9.0;incongruent;130.0;150.0;189.50417957278896;;;;;0;3;3;3;;;;;;;106.02687490009703;None;107.83492880000267;108.16024480003398;109.29308070009574;109.31000440008938;111.28488930000458;None;9;0;0.4669166000094265;111.28488930000458;None;;;;;;;;7;;;;;;;112.8348105000332;None;None;None;[];112.8348105000332;None;"['9', '9', '9']";"[0.2852307000430301, 0.5888189000543207, 1.1734804000006989]";112.8348105000332;None;;;S10752;2021_Jul_14_1745;VideoMask;2021.1.2;120.05191039409793;
1.0;f;021_o_f_s_a.jpg;sad;7.0;sad_9.5ns.avi;sad;7.0;congruent;130.0;160.0;156.55128602613038;;;;;0;4;4;4;;;;;;;115.33481920009945;None;116.85973350005224;117.1763678001007;118.35122800001409;118.36805330007337;124.03457660006825;None;7;0;0.9734305000165477;124.03457660006825;None;;;;;;;;1;;;;;;;125.58453120000195;None;None;None;[];125.58453120000195;None;"['7', '7', '7', '7', '7']";"[0.2392944999737665, 0.4153934000059962, 0.591127899941057, 0.9516453000251204, 1.2875970000168309]";125.58453120000195;None;;;S10752;2021_Jul_14_1745;VideoMask;2021.1.2;120.05191039409793;
4.0;m;004_o_m_s_a.jpg;sad;7.0;happy_28.1ns.avi;happy;9.0;incongruent;130.0;150.0;219.83540383939274;;;;;0;5;5;5;;;;;;;128.0845634000143;None;130.15167620009743;130.467638000031;131.60103050002363;131.6176871000789;135.9926509000361;None;9;0;0.5592670000623912;135.9926509000361;None;;;;;;;;7;;;;;;;137.55088220001198;None;None;None;[];137.55088220001198;None;"['9', '9']";"[0.37716559995897114, 0.6410564999096096]";137.55088220001198;None;;;S10752;2021_Jul_14_1745;VideoMask;2021.1.2;120.05191039409793;
2.0;f;012_o_f_s_a.jpg;sad;7.0;sad_7.5ns.avi;sad;7.0;congruent;130.0;160.0;147.95125229894379;;;;;0;6;6;6;;;;;;;140.0506925000809;None;141.48400980001315;141.80066629999783;142.9341009000782;142.950773700024;145.72583100001793;None;7;0;1.002165999962017;145.72583100001793;None;;;;;;;;2;;;;;;;147.29224530002102;None;None;None;[];147.29224530002102;None;"['7', '7', '7', '7']";"[0.21158459992147982, 0.37960579991340637, 0.5555393999675289, 0.9077425999566913]";147.29224530002102;None;;;S10752;2021_Jul_14_1745;VideoMask;2021.1.2;120.05191039409793;
2.0;f;012_o_f_s_a.jpg;sad;7.0;happy_52.2ns.avi;happy;9.0;incongruent;130.0;150.0;144.3898903070799;;;;;0;7;7;7;;;;;;;149.8006855000276;None;151.217169700074;151.5338186000008;152.6588104000548;152.6754033000907;156.2170243000146;None;9;0;0.799017799901776;156.2170243000146;None;;;;;;;;5;;;;;;;157.76696660008747;None;None;None;[];157.76696660008747;None;None;;157.76696660008747;None;;;S10752;2021_Jul_14_1745;VideoMask;2021.1.2;120.05191039409793;
0.0;f;040_y_f_s_a.jpg;sad;7.0;sad_67.2ns.avi;sad;7.0;congruent;130.0;160.0;192.80086779892653;;;;;0;8;8;8;;;;;;;160.28347060002852;None;162.1502098001074;162.46680720010772;163.6750990001019;163.69178560003638;172.83323970006313;None;7;0;0.75080290006008;172.83323970006313;None;;;;;;;;5;;;;;;;174.8746551000513;None;None;None;[];174.8746551000513;None;None;;174.8746551000513;None;;;S10752;2021_Jul_14_1745;VideoMask;2021.1.2;120.05191039409793;
3.0;m;013_y_m_s_a.jpg;sad;7.0;happy_56.2ns.avi;happy;9.0;incongruent;130.0;150.0;134.62621969351147;;;;;0;9;9;9;;;;;;;177.39128850004636;None;178.7411565000657;179.0580043999944;180.22466230008285;180.24139460001606;185.21686590008903;None;None;0;;185.21686590008903;None;;;;;;;;5;;;;;;;186.76648440002464;None;None;None;[];186.76648440002464;None;"['9', '7']";"[0.07361700001638383, 1.4816379999974743]";186.76648440002464;None;;;S10752;2021_Jul_14_1745;VideoMask;2021.1.2;120.05191039409793;
0.0;f;030_o_f_h_a.jpg;happy;9.0;sad_133.1.wmv;sad;7.0;incongruent;120.0;160.0;238.4103736452693;;;;;0;10;10;10;;;;;;;189.27445050003007;None;191.49921000003815;191.8159750000341;192.95767720008735;192.97425230010413;194.94946150004398;None;7;0;0.8186651000287384;194.94946150004398;None;;;;;;;;4;;;;;;;196.49922290001996;None;None;None;[];196.49922290001996;None;['7'];[0.2928728999104351];196.49922290001996;None;;;S10752;2021_Jul_14_1745;VideoMask;2021.1.2;120.05191039409793;
2.0;f;012_o_f_h_a.jpg;happy;9.0;happy_2.2ns.avi;happy;9.0;congruent;140.0;150.0;120.08648649110712;;;;;0;11;11;11;;;;;;;198.99933470005635;None;200.27397600002587;200.59075080009643;201.78238900005817;201.7991231000051;213.92392960004508;None;9;0;0.972298700013198;213.92392960004508;None;;;;;;;;6;;;;;;;215.48204840009566;None;None;None;[];215.48204840009566;None;"['7', '9', '9']";"[1.0302403999958187, 2.022257399978116, 2.197750100051053]";215.48204840009566;None;;;S10752;2021_Jul_14_1745;VideoMask;2021.1.2;120.05191039409793;
9.0;f;019_m_f_s_a.jpg;sad;7.0;sad_8.4ns.avi;sad;7.0;congruent;130.0;160.0;169.3395974323834;;;;;0;12;12;12;;;;;;;217.98199150001165;None;219.64850570005365;219.9652333999984;221.0984958000481;221.11591270007193;229.23172390006948;None;7;0;0.6005717000225559;229.23172390006948;None;;;;;;;;3;;;;;;;230.78994750010315;None;None;None;[];230.78994750010315;None;"['7', '7']";"[0.25017759995535016, 0.49815619993023574]";230.78994750010315;None;;;S10752;2021_Jul_14_1745;VideoMask;2021.1.2;120.05191039409793;
8.0;m;008_y_m_s_a.jpg;sad;7.0;sad_6.5ns.avi;sad;7.0;congruent;130.0;160.0;124.24628091899196;;;;;0;13;13;13;;;;;;;233.29821280005854;None;234.58970800007228;234.906471000053;236.09821990004275;236.1146812000079;241.0397357000038;None;7;0;0.5603338999208063;241.0397357000038;None;;;;;;;;4;;;;;;;242.58963620010763;None;None;None;[];242.58963620010763;None;['7'];[0.6266016999725252];242.58963620010763;None;;;S10752;2021_Jul_14_1745;VideoMask;2021.1.2;120.05191039409793;
1.0;f;021_o_f_h_a.jpg;happy;9.0;happy_12.1ns.avi;happy;9.0;congruent;140.0;150.0;236.6487020138435;;;;;0;14;14;14;;;;;;;245.097896900028;None;247.3311948000919;247.64776040008292;248.78948730009142;248.8061317000538;256.39772750006523;None;9;0;0.5625080999452621;256.39772750006523;None;;;;;;;;8;;;;;;;257.95589610002935;None;None;None;[];257.95589610002935;None;"['9', '9', '9']";"[0.3323900999967009, 0.580280700000003, 1.0763593999436125]";257.95589610002935;None;;;S10752;2021_Jul_14_1745;VideoMask;2021.1.2;120.05191039409793;
8.0;f;028_y_f_s_a.jpg;sad;7.0;sad_64.2ns.avi;sad;7.0;congruent;130.0;160.0;238.8507440172915;;;;;0;15;15;15;;;;;;;260.4559081000043;None;262.7474246000638;263.0641351999948;264.20545830007177;264.2223326000385;275.1971370000392;None;7;0;0.8590078999986872;275.1971370000392;None;;;;;;;;6;;;;;;;276.7554447000148;None;None;None;[];276.7554447000148;None;"['9', '9']";"[0.27682949998416007, 0.8928852999815717]";276.7554447000148;None;;;S10752;2021_Jul_14_1745;VideoMask;2021.1.2;120.05191039409793;
2.0;f;012_o_f_s_a.jpg;sad;7.0;happy_139.1.wmv;happy;9.0;incongruent;130.0;150.0;185.59030554143408;;;;;0;16;16;16;;;;;;;279.26369760010857;None;281.0217625000514;281.33856760000344;282.4722255000379;282.49689830001444;284.47185620001983;None;9;0;1.3523511999519542;284.47185620001983;None;;;;;;;;6;;;;;;;286.0217814000789;None;None;None;[];286.0217814000789;None;['9'];[2.2265380000462756];286.0217814000789;None;;;S10752;2021_Jul_14_1745;VideoMask;2021.1.2;120.05191039409793;
3.0;m;033_o_m_s_a.jpg;sad;7.0;sad_64.5ns.avi;sad;7.0;congruent;130.0;160.0;159.52646627166388;;;;;0;17;17;17;;;;;;;288.52178260008805;None;290.09670320001896;290.41323619999457;291.5552846000064;291.5800032000989;298.1299143000506;None;7;0;0.8863725999835879;298.1299143000506;None;;;;;;;;4;;;;;;;299.67969520005863;None;None;None;[];299.67969520005863;None;"['7', '7']";"[0.5443987000035122, 1.248641400015913]";299.67969520005863;None;;;S10752;2021_Jul_14_1745;VideoMask;2021.1.2;120.05191039409793;
0.0;f;040_y_f_s_a.jpg;sad;7.0;happy_127.3.wmv;happy;9.0;incongruent;130.0;150.0;131.0431594605889;;;;;0;18;18;18;;;;;;;302.1797908000881;None;303.4878102000803;303.80463670007885;304.9378524000058;304.95472640008666;307.0212316000834;None;None;0;;307.0212316000834;None;;;;;;;;3;;;;;;;308.57929800008424;None;None;None;[];308.57929800008424;None;"['7', '7']";"[0.6448075999505818, 1.2849917999701574]";308.57929800008424;None;;;S10752;2021_Jul_14_1745;VideoMask;2021.1.2;120.05191039409793;
3.0;m;033_o_m_h_a.jpg;happy;9.0;sad_128.1.wmv;sad;7.0;incongruent;120.0;160.0;168.97426303437265;;;;;0;19;19;19;;;;;;;311.0876371000195;None;312.7208901999984;313.03762410010677;314.1626499000704;314.1793219000101;316.17097170010675;None;8;0;0.7573465999448672;316.17097170010675;None;;;;;;;;5;;;;;;;317.7208861000836;None;None;None;[];317.7208861000836;None;None;;317.7208861000836;None;;;S10752;2021_Jul_14_1745;VideoMask;2021.1.2;120.05191039409793;
9.0;f;019_m_f_h_a.jpg;happy;9.0;sad_115.1.wmv;sad;7.0;incongruent;120.0;160.0;202.13700247699333;;;;;0;20;20;20;;;;;;;320.23749460000545;None;322.1373004000634;322.4540652000578;323.5874576000497;323.6040460000513;325.5874070000136;None;7;0;0.7490018999669701;325.5874070000136;None;;;;;;;;3;;;;;;;327.1373209001031;None;None;None;[];327.1373209001031;None;"['7', '7', '7']";"[0.3190810999367386, 1.0708557999460027, 1.431142200017348]";327.1373209001031;None;;;S10752;2021_Jul_14_1745;VideoMask;2021.1.2;120.05191039409793;
8.0;m;008_y_m_h_a.jpg;happy;9.0;happy_1.2ns.avi;happy;9.0;congruent;140.0;150.0;155.22310421045015;;;;;0;21;21;21;;;;;;;329.64566999999806;None;331.22039050003514;331.5371146000689;332.70383690006565;332.7205549000064;345.4618615000509;None;9;0;0.6583442999981344;345.4618615000509;None;;;;;;;;8;;;;;;;347.0117371000815;None;None;None;[];347.0117371000815;None;"['9', '9', '9', '9']";"[0.2765637000557035, 0.5563469000626355, 0.8604640000266954, 1.3006359999999404]";347.0117371000815;None;;;S10752;2021_Jul_14_1745;VideoMask;2021.1.2;120.05191039409793;
0.0;f;040_y_f_s_a.jpg;sad;7.0;sad_94.3ns.avi;sad;7.0;congruent;130.0;160.0;157.18644691248227;;;;;0;22;22;22;;;;;;;349.5118595000822;None;351.0448329000501;351.3615535000572;352.5281836000504;352.5452358000912;355.11986990005244;None;8;0;0.9842371999984607;355.11986990005244;None;;;;;;;;5;;;;;;;356.66981900006067;None;None;None;[];356.66981900006067;None;None;;356.66981900006067;None;;;S10752;2021_Jul_14_1745;VideoMask;2021.1.2;120.05191039409793;
6.0;m;016_y_m_s_a.jpg;sad;7.0;happy_60.4ns.avi;happy;9.0;incongruent;130.0;150.0;135.96622391936876;;;;;0;23;23;23;;;;;;;359.20316090004053;None;360.58656480000354;360.90301140001975;362.0529957000399;362.06966070004273;367.8364928000374;None;9;0;1.051996299996972;367.8364928000374;None;;;;;;;;4;;;;;;;369.494439400034;None;None;None;[];369.494439400034;None;['7'];[1.0898950999835506];369.494439400034;None;;;S10752;2021_Jul_14_1745;VideoMask;2021.1.2;120.05191039409793;
0.0;f;030_o_f_h_a.jpg;happy;9.0;happy_24.1ns.avi;happy;9.0;congruent;140.0;150.0;187.2363405679046;;;;;0;24;24;24;;;;;;;371.9860775000416;None;373.7860519000096;374.1026867000619;375.2359569000546;375.2526005000109;378.5609228000976;None;9;0;1.0878106999443844;378.5609228000976;None;;;;;;;;6;;;;;;;380.11083180003334;None;None;None;[];380.11083180003334;None;"['9', '9', '7']";"[0.5136670001083985, 1.0095320000546053, 1.6575460000894964]";380.11083180003334;None;;;S10752;2021_Jul_14_1745;VideoMask;2021.1.2;120.05191039409793;
8.0;m;008_y_m_s_a.jpg;sad;7.0;happy_133.3.wmv;happy;9.0;incongruent;130.0;150.0;151.65964880545846;;;;;0;25;25;25;;;;;;;382.6191117000999;None;384.1105918000685;384.42732170003;385.55240000004414;385.5689539000159;387.5607482000487;None;None;0;;387.5607482000487;None;;;;;;;;5;;;;;;;389.1104180000257;None;None;None;[];389.1104180000257;None;"['9', '7']";"[0.033980000065639615, 0.698014699970372]";389.1104180000257;None;;;S10752;2021_Jul_14_1745;VideoMask;2021.1.2;120.05191039409793;
1.0;f;021_o_f_s_a.jpg;sad;7.0;happy_61.2ns.avi;happy;9.0;incongruent;130.0;150.0;146.79956415721207;;;;;0;26;26;26;;;;;;;391.6190483000828;None;393.0686528000515;393.3853863000404;394.5185646000318;394.53542470000684;399.0435294000199;None;9;0;1.0286021999781951;399.0435294000199;None;;;;;;;;6;;;;;;;400.58514800004195;None;None;None;[];400.58514800004195;None;"['9', '9']";"[0.5433225000742823, 1.1513906000182033]";400.58514800004195;None;;;S10752;2021_Jul_14_1745;VideoMask;2021.1.2;120.05191039409793;
1.0;f;021_o_f_h_a.jpg;happy;9.0;sad_116.1.wmv;sad;7.0;incongruent;120.0;160.0;205.93899364307754;;;;;0;27;27;27;;;;;;;403.0851613000268;None;405.02667280007154;405.34343860007357;406.49357829999644;406.5101335000945;408.47676730004605;None;7;0;1.0675333000253886;408.47676730004605;None;;;;;;;;5;;;;;;;410.02656020002905;None;None;None;[];410.02656020002905;None;None;;410.02656020002905;None;;;S10752;2021_Jul_14_1745;VideoMask;2021.1.2;120.05191039409793;
7.0;m;027_o_m_h_a.jpg;happy;9.0;happy_20.1ns.avi;happy;9.0;congruent;140.0;150.0;145.4488529976734;;;;;0;28;28;28;;;;;;;412.5516650000354;None;413.98471510002855;414.3014630000107;415.4598550000228;415.47653980006;418.4514723001048;None;9;0;1.1811445000348613;418.4514723001048;None;;;;;;;;5;;;;;;;419.9929073000094;None;None;None;[];419.9929073000094;None;None;;419.9929073000094;None;;;S10752;2021_Jul_14_1745;VideoMask;2021.1.2;120.05191039409793;
3.0;m;033_o_m_s_a.jpg;sad;7.0;happy_126.3.wmv;happy;9.0;incongruent;130.0;150.0;220.47504181707743;;;;;0;29;29;29;;;;;;;422.5263839000836;None;424.60103670007084;424.9178270000266;426.0510353000136;426.0676556000253;428.05125250003766;None;9;0;1.101254399982281;428.05125250003766;None;;;;;;;;6;;;;;;;429.6011256000493;None;None;None;[];429.6011256000493;None;['9'];[0.44715970009565353];429.6011256000493;None;;;S10752;2021_Jul_14_1745;VideoMask;2021.1.2;120.05191039409793;
4.0;m;004_o_m_s_a.jpg;sad;7.0;sad_2.4ns.avi;sad;7.0;congruent;130.0;160.0;153.9424691910033;;;;;0;30;30;30;;;;;;;432.10937720001675;None;433.617725100019;433.9342569001019;435.10938210005406;435.1259767001029;443.026305800071;None;7;0;0.766247299965471;443.026305800071;None;;;;;;;;1;;;;;;;444.63399790006224;None;None;None;[];444.63399790006224;None;"['7', '7', '7', '7']";"[0.24658179993275553, 0.44630539999343455, 0.6222144999774173, 0.7902462999336421]";444.63399790006224;None;;;S10752;2021_Jul_14_1745;VideoMask;2021.1.2;120.05191039409793;
8.0;m;008_y_m_h_a.jpg;happy;9.0;sad_111.1.wmv;sad;7.0;incongruent;120.0;160.0;182.0123397825363;;;;;0;31;31;31;;;;;;;447.1425140000647;None;448.89211650006473;449.2088113001082;450.3421857000794;450.3588843001053;452.3421632000245;None;7;0;0.9143942999653518;452.3421632000245;None;;;;;;;;3;;;;;;;453.8920550000621;None;None;None;[];453.8920550000621;None;"['7', '7']";"[0.48451290000230074, 0.9164366000331938]";453.8920550000621;None;;;S10752;2021_Jul_14_1745;VideoMask;2021.1.2;120.05191039409793;
4.0;m;004_o_m_h_a.jpg;happy;9.0;happy_1.1ns.avi;happy;9.0;congruent;140.0;150.0;145.41905773865074;;;;;0;32;32;32;;;;;;;456.39204679999966;None;457.8919991001021;458.2086636000313;459.3418756000465;459.35861450002994;473.8250296000624;None;9;0;0.7515259999781847;473.8250296000624;None;;;;;;;;6;;;;;;;475.3748031000141;None;None;None;[];475.3748031000141;None;['9'];[0.3216347999405116];475.3748031000141;None;;;S10752;2021_Jul_14_1745;VideoMask;2021.1.2;120.05191039409793;
4.0;m;004_o_m_s_a.jpg;sad;7.0;happy_131.2.wmv;happy;9.0;incongruent;130.0;150.0;163.9874412082805;;;;;0;33;33;33;;;;;;;477.8747591000283;None;479.49128780001774;479.8080497001065;480.95805390004534;480.9749046000652;482.94148560008034;None;8;0;1.2348956000059843;482.94148560008034;None;;;;;;;;4;;;;;;;484.4910980000859;None;None;None;[];484.4910980000859;None;['7'];[0.9013819999527186];484.4910980000859;None;;;S10752;2021_Jul_14_1745;VideoMask;2021.1.2;120.05191039409793;
2.0;f;012_o_f_h_a.jpg;happy;9.0;happy_27.1ns.avi;happy;9.0;congruent;140.0;150.0;207.9053492649655;;;;;0;34;34;34;;;;;;;486.99956550006755;None;488.93268240010366;489.2493980000727;490.4078274000203;490.4243480000878;492.8744406000478;None;9;0;0.8541207000380382;492.8744406000478;None;;;;;;;;5;;;;;;;494.4242954000365;None;None;None;[];494.4242954000365;None;"['9', '7']";"[0.5124313000123948, 1.440243300050497]";494.4242954000365;None;;;S10752;2021_Jul_14_1745;VideoMask;2021.1.2;120.05191039409793;
7.0;m;027_o_m_s_a.jpg;sad;7.0;happy_117.3.wmv;happy;9.0;incongruent;130.0;150.0;218.0520785974414;;;;;0;35;35;35;;;;;;;496.93261880008504;None;498.9740917000454;499.2908099000342;500.4240837000543;500.44112309999764;502.42425650008954;None;9;0;0.8800875999731943;502.42425650008954;None;;;;;;;;6;;;;;;;503.9740712000057;None;None;None;[];503.9740712000057;None;['9'];[0.49850929994136095];503.9740712000057;None;;;S10752;2021_Jul_14_1745;VideoMask;2021.1.2;120.05191039409793;
2.0;f;012_o_f_h_a.jpg;happy;9.0;sad_113.1.wmv;sad;7.0;incongruent;120.0;160.0;192.53137802384992;;;;;0;36;36;36;;;;;;;506.4823119000066;None;508.29878610000014;508.6155627000844;509.7489595001098;509.7661932000192;511.7490353001049;None;7;0;0.891360400011763;511.7490353001049;None;;;;;;;;3;;;;;;;513.2988897000905;None;None;None;[];513.2988897000905;None;"['7', '7']";"[1.1816103999735788, 2.1978668000083417]";513.2988897000905;None;;;S10752;2021_Jul_14_1745;VideoMask;2021.1.2;120.05191039409793;
8.0;f;028_y_f_h_a.jpg;happy;9.0;happy_23.1ns.avi;happy;9.0;congruent;140.0;150.0;159.76384515822056;;;;;0;37;37;37;;;;;;;515.7986644000048;None;517.3401655000634;517.6569872000255;518.8070256001083;518.8236306000035;523.3651879000245;None;None;0;;523.3651879000245;None;;;;;;;;7;;;;;;;524.9151433000807;None;None;None;[];524.9151433000807;None;"['9', '9']";"[0.22945139999501407, 0.42942379997111857]";524.9151433000807;None;;;S10752;2021_Jul_14_1745;VideoMask;2021.1.2;120.05191039409793;
0.0;f;030_o_f_s_a.jpg;sad;7.0;sad_64.3ns.avi;sad;7.0;congruent;130.0;160.0;172.91738127163183;;;;;0;38;38;38;;;;;;;527.4235423000064;None;529.1067377000581;529.4233093000948;530.5903083001031;530.6064935000613;535.5566725000972;None;7;0;1.0999649999430403;535.5566725000972;None;;;;;;;;5;;;;;;;537.1065122000873;None;None;None;[];537.1065122000873;None;None;;537.1065122000873;None;;;S10752;2021_Jul_14_1745;VideoMask;2021.1.2;120.05191039409793;
6.0;m;016_y_m_h_a.jpg;happy;9.0;sad_114.1.wmv;sad;7.0;incongruent;120.0;160.0;196.03539454983184;;;;;0;39;39;39;;;;;;;539.6229820000008;None;541.4895821000682;541.806718600099;542.9395026999991;542.9561388000147;544.9397899000905;None;7;0;0.9088026999961585;544.9397899000905;None;;;;;;;;7;;;;;;;546.489542700001;None;None;None;[];546.489542700001;None;"['9', '9']";"[0.2311477999901399, 0.5031374000245705]";546.489542700001;None;;;S10752;2021_Jul_14_1745;VideoMask;2021.1.2;120.05191039409793;
6.0;m;016_y_m_s_a.jpg;sad;7.0;sad_8.3ns.avi;sad;7.0;congruent;130.0;160.0;139.87174075953956;;;;;0;40;40;40;;;;;;;548.9896984000225;None;550.414341500029;550.7310598000186;551.8561138000805;551.8726980000501;559.622508600005;None;7;0;1.1461671999422833;559.622508600005;None;;;;;;;;7;;;;;;;561.1724804000696;None;None;None;[];561.1724804000696;None;"['9', '9']";"[0.3163773000705987, 0.7162298000184819]";561.1724804000696;None;;;S10752;2021_Jul_14_1745;VideoMask;2021.1.2;120.05191039409793;
7.0;m;027_o_m_s_a.jpg;sad;7.0;sad_10.4ns.avi;sad;7.0;congruent;130.0;160.0;163.89298117292617;;;;;0;41;41;41;;;;;;;563.6808357000118;None;565.2722523000557;565.5893004999962;566.7140016000485;566.7306693000719;569.888881699997;None;7;0;0.7518053000094369;569.888881699997;None;;;;;;;;3;;;;;;;571.4388859000755;None;None;None;[];571.4388859000755;None;"['7', '7']";"[0.19403140002395958, 0.4418691999744624]";571.4388859000755;None;;;S10752;2021_Jul_14_1745;VideoMask;2021.1.2;120.05191039409793;
3.0;m;013_y_m_h_a.jpg;happy;9.0;happy_9.1ns.avi;happy;9.0;congruent;140.0;150.0;128.37211756912527;;;;;0;42;42;42;;;;;;;573.9389736000448;None;575.2553077000193;575.5720222000964;576.7302003999939;576.7468794001034;579.930364400032;None;9;0;0.5582628000993282;579.930364400032;None;;;;;;;;8;;;;;;;581.4802911001025;None;None;None;[];581.4802911001025;None;"['9', '9', '9']";"[0.29629430000204593, 0.49634199996944517, 0.6804322999669239]";581.4802911001025;None;;;S10752;2021_Jul_14_1745;VideoMask;2021.1.2;120.05191039409793;
7.0;m;027_o_m_h_a.jpg;happy;9.0;sad_117.1.wmv;sad;7.0;incongruent;120.0;160.0;163.19466748508617;;;;;0;43;43;43;;;;;;;583.9885831000283;None;585.5800210000016;585.8966689000372;587.0218243000563;587.038427200052;589.0303630999988;None;7;0;0.738468199968338;589.0303630999988;None;;;;;;;;5;;;;;;;590.5800214000046;None;None;None;[];590.5800214000046;None;None;;590.5800214000046;None;;;S10752;2021_Jul_14_1745;VideoMask;2021.1.2;120.05191039409793;
4.0;m;004_o_m_h_a.jpg;happy;9.0;sad_95.1ns.avi;sad;7.0;incongruent;120.0;160.0;162.95060606286506;;;;;0;44;44;44;;;;;;;593.096480700071;None;594.7213628001045;595.0381588001037;596.2629749000771;596.2796438001096;604.9630486000096;None;7;0;0.8777488000923768;604.9630486000096;None;;;;;;;;4;;;;;;;606.5128947000485;None;None;None;[];606.5128947000485;None;['7'];[0.6240145000629127];606.5128947000485;None;;;S10752;2021_Jul_14_1745;VideoMask;2021.1.2;120.05191039409793;
0.0;f;040_y_f_h_a.jpg;happy;9.0;sad_128.2.wmv;sad;7.0;incongruent;120.0;160.0;121.98396994352893;;;;;0;45;45;45;;;;;;;609.0129987000255;None;610.2375795000698;610.5544009000296;611.6875673000468;611.7128021999961;613.6877565000905;None;8;0;0.7930740000447258;613.6877565000905;None;;;;;;;;5;;;;;;;615.2460052000824;None;None;None;[];615.2460052000824;None;None;;615.2460052000824;None;;;S10752;2021_Jul_14_1745;VideoMask;2021.1.2;120.05191039409793;
0.0;f;040_y_f_h_a.jpg;happy;9.0;sad_138.1.wmv;sad;7.0;incongruent;120.0;160.0;195.60264978061832;;;;;0;46;46;46;;;;;;;617.7625208999962;None;619.612864100025;619.9292219000636;621.0541906000581;621.0707786000567;623.0631074000848;None;7;0;0.9536939000245184;623.0631074000848;None;;;;;;;;4;;;;;;;624.6124230000423;None;None;None;[];624.6124230000423;None;['7'];[0.3964149000821635];624.6124230000423;None;;;S10752;2021_Jul_14_1745;VideoMask;2021.1.2;120.05191039409793;
8.0;m;008_y_m_s_a.jpg;sad;7.0;happy_29.1ns.avi;happy;9.0;incongruent;130.0;150.0;212.92407054126133;;;;;0;47;47;47;;;;;;;627.1208106999984;None;629.1123358000768;629.4288929000031;630.5709979000967;630.5874182000989;633.2542672000127;None;9;0;1.0505339000374079;633.2542672000127;None;;;;;;;;6;;;;;;;634.8287803001003;None;None;None;[];634.8287803001003;None;['9'];[0.404050900018774];634.8287803001003;None;;;S10752;2021_Jul_14_1745;VideoMask;2021.1.2;120.05191039409793;
0.0;f;040_y_f_h_a.jpg;happy;9.0;happy_24.3ns.avi;happy;9.0;congruent;140.0;150.0;190.23859628619445;;;;;0;48;48;48;;;;;;;637.3287033000961;None;639.1285362000344;639.4452874000417;640.6286318000639;640.645273800008;642.5036758000497;None;9;0;0.7611770000075921;642.5036758000497;None;;;;;;;;6;;;;;;;644.0535168000497;None;None;None;[];644.0535168000497;None;['9'];[0.715436500031501];644.0535168000497;None;;;S10752;2021_Jul_14_1745;VideoMask;2021.1.2;120.05191039409793;
3.0;m;033_o_m_h_a.jpg;happy;9.0;happy_24.2ns.avi;happy;9.0;congruent;140.0;150.0;127.28107088671867;;;;;0;49;49;49;;;;;;;646.5619640001096;None;647.8699771000538;648.1867034001043;649.3701406000182;649.3867113000015;653.0449581000721;None;9;0;0.867854900076054;653.0449581000721;None;;;;;;;;5;;;;;;;654.5949014000362;None;None;None;[];654.5949014000362;None;None;;654.5949014000362;None;;;S10752;2021_Jul_14_1745;VideoMask;2021.1.2;120.05191039409793;
9.0;f;019_m_f_s_a.jpg;sad;7.0;happy_61.1ns.avi;happy;9.0;incongruent;130.0;150.0;190.9434091532566;;;;;0;50;50;50;;;;;;;657.1199166000588;None;658.9779664000962;659.2946769000264;660.4868393000215;660.5112917000661;667.8196976000909;None;9;0;1.133163099992089;667.8196976000909;None;;;;;;;;5;;;;;;;669.3778747000033;None;None;None;[];669.3778747000033;None;None;;669.3778747000033;None;;;S10752;2021_Jul_14_1745;VideoMask;2021.1.2;120.05191039409793;
8.0;f;028_y_f_h_a.jpg;happy;9.0;sad_119.1.wmv;sad;7.0;incongruent;120.0;160.0;178.10396226647933;;;;;0;51;51;51;;;;;;;671.9027056000195;None;673.619272800046;673.9359411000041;675.0860615000129;675.1026055000257;677.1359540000558;None;7;0;0.7928682999918237;677.1359540000558;None;;;;;;;;3;;;;;;;678.6859374000924;None;None;None;[];678.6859374000924;None;"['7', '7']";"[0.3067684000125155, 0.6912210000446066]";678.6859374000924;None;;;S10752;2021_Jul_14_1745;VideoMask;2021.1.2;120.05191039409793;
3.0;m;033_o_m_h_a.jpg;happy;9.0;sad_136.1.wmv;sad;7.0;incongruent;120.0;160.0;206.04367658109783;;;;;0;52;52;52;;;;;;;681.1942119000014;None;683.1357170999981;683.4523983000545;684.5856548000593;684.6024705000455;686.5858175000176;None;7;0;1.391074699931778;686.5858175000176;None;;;;;;;;4;;;;;;;688.1357019999996;None;None;None;[];688.1357019999996;None;['7'];[0.2571229999884963];688.1357019999996;None;;;S10752;2021_Jul_14_1745;VideoMask;2021.1.2;120.05191039409793;
6.0;m;016_y_m_h_a.jpg;happy;9.0;happy_9.2ns.avi;happy;9.0;congruent;140.0;150.0;136.52220806776708;;;;;0;53;53;53;;;;;;;690.6357944000047;None;692.0353516000323;692.3521212000633;693.5188560000388;693.5354533001082;699.410342700081;None;9;0;0.6702546000014991;699.410342700081;None;;;;;;;;7;;;;;;;700.9602790001081;None;None;None;[];700.9602790001081;None;"['9', '9', '9']";"[0.4088348000077531, 0.7446576999500394, 1.1765224999981]";700.9602790001081;None;;;S10752;2021_Jul_14_1745;VideoMask;2021.1.2;120.05191039409793;
9.0;f;019_m_f_h_a.jpg;happy;9.0;happy_10.1ns.avi;happy;9.0;congruent;140.0;150.0;180.35091595488527;;;;;0;54;54;54;;;;;;;703.4687190999975;None;705.2350724000717;705.5517166000791;706.6768925000215;706.6933853999944;714.1351021000883;None;9;0;1.0898306000744924;714.1351021000883;None;;;;;;;;3;;;;;;;715.6848347000778;None;None;None;[];715.6848347000778;None;"['7', '7']";"[0.28429090010467917, 0.5877740000141785]";715.6848347000778;None;;;S10752;2021_Jul_14_1745;VideoMask;2021.1.2;120.05191039409793;
8.0;f;028_y_f_s_a.jpg;sad;7.0;happy_122.3.wmv;happy;9.0;incongruent;130.0;150.0;204.27932588393085;;;;;0;55;55;55;;;;;;;718.1847875000676;None;720.1263055000454;720.4430067000212;721.5763721000403;721.5931385000004;723.5763021000894;None;9;0;0.5844731000252068;723.5763021000894;None;;;;;;;;7;;;;;;;725.1262931000674;None;None;None;[];725.1262931000674;None;"['9', '9']";"[0.2585099000716582, 1.0025911000557244]";725.1262931000674;None;;;S10752;2021_Jul_14_1745;VideoMask;2021.1.2;120.05191039409793;
3.0;m;013_y_m_s_a.jpg;sad;7.0;sad_7.7ns.avi;sad;7.0;congruent;130.0;160.0;192.40728800739942;;;;;0;56;56;56;;;;;;;727.6346166000003;None;729.484552100068;729.8011231001001;730.9676274000667;730.9842938000802;736.9343188001076;None;7;0;0.9467262999387458;736.9343188001076;None;;;;;;;;4;;;;;;;738.4842331000837;None;None;None;[];738.4842331000837;None;['7'];[0.30886999994982034];738.4842331000837;None;;;S10752;2021_Jul_14_1745;VideoMask;2021.1.2;120.05191039409793;
3.0;m;013_y_m_h_a.jpg;happy;9.0;sad_113.2.wmv;sad;7.0;incongruent;120.0;160.0;219.6544115751568;;;;;0;57;57;57;;;;;;;740.9842912000604;None;743.059003500035;743.3756848000921;744.5091735000024;744.5257000999991;746.5091960000573;None;7;0;1.1478782000485808;746.5091960000573;None;;;;;;;;4;;;;;;;748.059051200049;None;None;None;[];748.059051200049;None;['7'];[0.9099972000112757];748.059051200049;None;;;S10752;2021_Jul_14_1745;VideoMask;2021.1.2;120.05191039409793;
4.0;m;004_o_m_h_a.jpg;happy;9.0;happy_25.1ns.avi;happy;9.0;congruent;140.0;150.0;237.98255695511958;;;;;0;58;58;58;;;;;;;750.5590146000031;None;752.775335000013;753.0921591001097;754.2262284000171;754.2424601000967;757.9170652000466;None;9;0;0.8280118000693619;757.9170652000466;None;;;;;;;;6;;;;;;;759.4836597000249;None;None;None;[];759.4836597000249;None;"['9', '9']";"[0.4774625999853015, 0.9733271999284625]";759.4836597000249;None;;;S10752;2021_Jul_14_1745;VideoMask;2021.1.2;120.05191039409793;
0.0;f;030_o_f_h_a.jpg;happy;9.0;sad_127.1.wmv;sad;7.0;incongruent;120.0;160.0;231.85538291836468;;;;;0;59;59;59;;;;;;;761.9920947001083;None;764.1503377000336;764.4667938000057;765.5919038000284;765.6085510000121;767.600225500064;None;None;0;;767.600225500064;None;;;;;;;;3;;;;;;;769.1499716000399;None;None;None;[];769.1499716000399;None;"['7', '7', '7']";"[0.018973900005221367, 1.2349215999711305, 1.8510894000064582]";769.1499716000399;None;;;S10752;2021_Jul_14_1745;VideoMask;2021.1.2;120.05191039409793;
;;;;;;;;;;;;;;;;;;;;;;;;;;;;;;;;;;;;;;;;;;;;;;;;;;;;;;;;;;;;;;;;771.6501210000133;None;;;;;;
