primePerson;primeGender;prime;primeEmotion;corrAnsPrime;target;targetEmotion;corrAnsTar;Cond;ID_Primer;ID_Target;JitterTime;Condition;example.thisRepN;example.thisTrialN;example.thisN;example.thisIndex;study.thisRepN;study.thisTrialN;study.thisN;study.thisIndex;MR_trigger_time;MR_trigger_number;text_intro.started;text_intro.stopped;text_probe.started;text_probe.stopped;polygon_ISI.started;polygon_ISI.stopped;polygon.started;polygon.stopped;primerImage.started;primerImage.stopped;response.started;response.stopped;key_resp.keys;key_resp.corr;key_resp.started;key_resp.stopped;slider_Text.started;slider_Text.stopped;slider_ex.response;slider_ex.rt;slider_ex.history;slider_ex.started;slider_ex.stopped;Rating;slider_resp_response.keys;slider_resp_response.rt;slider_resp_response.started;slider_resp_response.stopped;key_resp.rt;text_start.started;text_start.stopped;text_slider.started;text_slider.stopped;slider_stud.response;slider_stud.rt;slider_stud.history;slider_stud.started;slider_stud.stopped;slider_resp_study.keys;slider_resp_study.rt;slider_resp_study.started;slider_resp_study.stopped;text_ende.started;text_ende.stopped;participant;date;expName;psychopyVersion;frameRate;
1111;m;1111_m_m_h_a.jpg;happy;9;example_30.4ns.avi;neutral;7;incongruent;120.0;170.0;189.5874364012288;;0;0;0;0;;;;;30.43697099998826;1;30.51554130000295;32.515748300007544;32.515748300007544;None;34.53233399998862;None;36.749217899981886;37.06550440000137;38.2404072000063;38.25721940002404;42.54038259998197;None;None;0;42.54038259998197;None;44.09068780002417;None;None;None;[];44.09068780002417;None;7;"['9', '9']";"[1.2075884999940172, 2.5751976000028662]";44.09068780002417;None;;;;;;;;;;;;;;;;;S11590;2022_Jul_18_1706;VideoMask;2021.1.2;120.01733052271562;
1113;f;1113_y_f_s_a.jpg;sad;7;example_30.3ns.avi;neutral;7;incongruent;130.0;170.0;229.02432995836998;;0;1;1;1;;;;;;;;;;;47.09024829999544;None;49.206672100001015;49.52345769997919;50.68181949999416;50.698398699983954;52.65685879997909;None;9;0;52.65685879997909;None;54.20666279998841;None;None;None;[];54.20666279998841;None;6;['9'];[0.5313108999980614];54.20666279998841;None;1.0811075000092387;;;;;;;;;;;;;;;;S11590;2022_Jul_18_1706;VideoMask;2021.1.2;120.01733052271562;
9.0;f;019_m_f_h_a.jpg;happy;9.0;sad_115.1.wmv;sad;7.0;incongruent;120.0;160.0;128.09063432376465;h_s;;;;;0;0;0;0;;;;;;;58.23994220001623;None;59.52306580002187;59.8398496999871;60.997813099995255;61.01464469998609;62.97307190002175;None;None;0;62.97307190002175;None;;;;;;;;3;;;;;;57.21499599999515;None;64.52281649998622;None;None;None;[];64.52281649998622;None;"['7', '7']";"[0.11120420001680031, 0.751286800019443]";64.52281649998622;None;;;S11590;2022_Jul_18_1706;VideoMask;2021.1.2;120.01733052271562;
3.0;m;033_o_m_s_a.jpg;sad;7.0;sad_94.2ns.avi;sad;7.0;congruent;130.0;160.0;182.29120173647655;s_s;;;;;0;1;1;1;;;;;;;67.5312085999758;None;69.25604609999573;69.57285639998736;70.70612579997396;70.72284619999118;73.39776139997412;None;7;0;73.39776139997412;None;;;;;;;;5;;;;;1.236180100007914;;;74.95602089999011;None;None;None;[];74.95602089999011;None;None;;74.95602089999011;None;;;S11590;2022_Jul_18_1706;VideoMask;2021.1.2;120.01733052271562;
8.0;m;008_y_m_h_a.jpg;happy;9.0;happy_26.1ns.avi;happy;9.0;congruent;120.0;150.0;155.9437854594882;h_h;;;;;0;2;2;2;;;;;;;77.9890607999987;None;79.48071309999796;79.79748269997071;80.92249510000693;80.93915519997245;82.92248030001065;None;9;0;82.92248030001065;None;;;;;;;;6;;;;;0.8795171000529081;;;84.47234300000127;None;None;None;[];84.47234300000127;None;"['9', '7']";"[0.9056543000042439, 2.38576470001135]";84.47234300000127;None;;;S11590;2022_Jul_18_1706;VideoMask;2021.1.2;120.01733052271562;
0.0;f;040_y_f_h_a.jpg;happy;9.0;sad_138.1.wmv;sad;7.0;incongruent;120.0;160.0;133.99071306426532;h_s;;;;;0;3;3;3;;;;;;;87.48061209998559;None;88.79703090002295;89.11379530001432;90.23892520001391;90.25549760001013;92.24718090001261;None;7;0;92.24718090001261;None;;;;;;;;5;;;;;1.2828417000127956;;;93.79707460000645;None;None;None;[];93.79707460000645;None;None;;93.79707460000645;None;;;S11590;2022_Jul_18_1706;VideoMask;2021.1.2;120.01733052271562;
8.0;f;028_y_f_s_a.jpg;sad;7.0;sad_64.2ns.avi;sad;7.0;congruent;130.0;160.0;229.88540597086478;s_s;;;;;0;4;4;4;;;;;;;96.83037649997277;None;98.98828210000647;99.30526019999525;100.46357289998559;100.48017360002268;111.43832090002252;None;7;0;111.43832090002252;None;;;;;;;;4;;;;;1.123586500005331;;;112.98809970001457;None;None;None;[];112.98809970001457;None;['7'];[0.613903500023298];112.98809970001457;None;;;S11590;2022_Jul_18_1706;VideoMask;2021.1.2;120.01733052271562;
7.0;m;027_o_m_s_a.jpg;sad;7.0;sad_10.4ns.avi;sad;7.0;congruent;130.0;160.0;185.20129417468752;s_s;;;;;0;5;5;5;;;;;;;115.98813569999766;None;117.73788909998257;118.0546328999917;119.21294860000489;119.229578199971;122.35461460001534;None;7;0;122.35461460001534;None;;;;;;;;4;;;;;0.8794001000351273;;;123.90447010000935;None;None;None;[];123.90447010000935;None;['7'];[0.67338460002793];123.90447010000935;None;;;S11590;2022_Jul_18_1706;VideoMask;2021.1.2;120.01733052271562;
2.0;f;012_o_f_s_a.jpg;sad;7.0;sad_7.5ns.avi;sad;7.0;congruent;130.0;160.0;220.27842655424388;s_s;;;;;0;6;6;6;;;;;;;126.91280599997845;None;128.93748820002656;129.25429229997098;130.4209106999915;130.43755139998393;133.17957009997917;None;7;0;133.17957009997917;None;;;;;;;;5;;;;;0.814359100011643;;;134.74578180001117;None;None;None;[];134.74578180001117;None;None;;134.74578180001117;None;;;S11590;2022_Jul_18_1706;VideoMask;2021.1.2;120.01733052271562;
2.0;f;012_o_f_h_a.jpg;happy;9.0;happy_27.1ns.avi;happy;9.0;congruent;120.0;150.0;146.44967055810616;h_h;;;;;0;7;7;7;;;;;;;137.7705646000104;None;139.18719249998685;139.50392170000123;140.64559650002047;140.66228069999488;143.12886040000012;None;9;0;143.12886040000012;None;;;;;;;;6;;;;;0.969074200023897;;;144.68715790001443;None;None;None;[];144.68715790001443;None;['9'];[0.5147266000276431];144.68715790001443;None;;;S11590;2022_Jul_18_1706;VideoMask;2021.1.2;120.01733052271562;
8.0;f;028_y_f_h_a.jpg;happy;9.0;sad_119.1.wmv;sad;7.0;incongruent;120.0;160.0;148.71526953572538;h_s;;;;;0;8;8;8;;;;;;;147.68719580001198;None;149.13693229999626;149.45351389999269;150.58695199998328;150.60365830000956;152.6535431999946;None;7;0;152.6535431999946;None;;;;;;;;5;;;;;0.5804689999786206;;;154.1952243000269;None;None;None;[];154.1952243000269;None;None;;154.1952243000269;None;;;S11590;2022_Jul_18_1706;VideoMask;2021.1.2;120.01733052271562;
6.0;m;016_y_m_s_a.jpg;sad;7.0;happy_60.4ns.avi;happy;9.0;incongruent;130.0;150.0;126.02367393611817;s_h;;;;;0;9;9;9;;;;;;;157.22009600000456;None;158.48673160001636;158.80336239997996;159.96160979999695;159.97829240001738;165.72822450002423;None;9;0;165.72822450002423;None;;;;;;;;5;;;;;0.5219765999936499;;;167.2780844999943;None;None;None;[];167.2780844999943;None;None;;167.2780844999943;None;;;S11590;2022_Jul_18_1706;VideoMask;2021.1.2;120.01733052271562;
9.0;f;019_m_f_s_a.jpg;sad;7.0;sad_8.4ns.avi;sad;7.0;congruent;130.0;160.0;171.6633093155257;s_s;;;;;0;10;10;10;;;;;;;170.31143220001832;None;171.97786819998873;172.29452709999168;173.51129639998544;173.5278774999897;181.56111289997352;None;7;0;181.56111289997352;None;;;;;;;;5;;;;;0.5768317999900319;;;183.11088689998724;None;None;None;[];183.11088689998724;None;None;;183.11088689998724;None;;;S11590;2022_Jul_18_1706;VideoMask;2021.1.2;120.01733052271562;
4.0;m;004_o_m_h_a.jpg;happy;9.0;happy_1.1ns.avi;happy;9.0;congruent;120.0;150.0;203.50057144619865;h_h;;;;;0;11;11;11;;;;;;;186.14418679999653;None;188.10225130000617;188.41901950002648;189.57747060002293;189.59401770000113;204.04430339997634;None;9;0;204.04430339997634;None;;;;;;;;6;;;;;0.5575318000046536;;;205.62684590002755;None;None;None;[];205.62684590002755;None;['9'];[2.599436799995601];205.62684590002755;None;;;S11590;2022_Jul_18_1706;VideoMask;2021.1.2;120.01733052271562;
7.0;m;027_o_m_h_a.jpg;happy;9.0;happy_20.1ns.avi;happy;9.0;congruent;120.0;150.0;152.91127178874285;h_h;;;;;0;12;12;12;;;;;;;208.62687019997975;None;210.10997559997486;210.42664249998052;211.58511949999956;211.60177499998827;214.57660199998645;None;9;0;214.57660199998645;None;;;;;;;;5;;;;;0.737370099988766;;;216.12656150001567;None;None;None;[];216.12656150001567;None;None;;216.12656150001567;None;;;S11590;2022_Jul_18_1706;VideoMask;2021.1.2;120.01733052271562;
0.0;f;040_y_f_s_a.jpg;sad;7.0;sad_94.3ns.avi;sad;7.0;congruent;130.0;160.0;155.27414203894395;s_s;;;;;0;13;13;13;;;;;;;219.1596048999927;None;220.6514415999991;220.96799330000067;222.17673910001758;222.2013134000008;224.72640019998653;None;7;0;224.72640019998653;None;;;;;;;;5;;;;;0.8755889000021853;;;226.27624430001015;None;None;None;[];226.27624430001015;None;None;;226.27624430001015;None;;;S11590;2022_Jul_18_1706;VideoMask;2021.1.2;120.01733052271562;
0.0;f;030_o_f_s_a.jpg;sad;7.0;sad_68.1ns.avi;sad;7.0;congruent;130.0;160.0;158.9411396037211;s_s;;;;;0;14;14;14;;;;;;;229.30116490001092;None;230.84264039999107;231.15933509997558;232.3179872999899;232.34274619998178;239.71742230001837;None;7;0;239.71742230001837;None;;;;;;;;4;;;;;0.8444596999906935;;;241.26745310000842;None;None;None;[];241.26745310000842;None;"['7', '7']";"[0.4785277000046335, 2.198615000001155]";241.26745310000842;None;;;S11590;2022_Jul_18_1706;VideoMask;2021.1.2;120.01733052271562;
0.0;f;030_o_f_h_a.jpg;happy;9.0;sad_127.1.wmv;sad;7.0;incongruent;120.0;160.0;180.59976631384873;h_s;;;;;0;15;15;15;;;;;;;244.2675206999993;None;245.98385090002557;246.30047249997733;247.4256800999865;247.44229039998027;249.43383110000286;None;7;0;249.43383110000286;None;;;;;;;;5;;;;;1.0643808999448083;;;250.98380639997777;None;None;None;[];250.98380639997777;None;None;;250.98380639997777;None;;;S11590;2022_Jul_18_1706;VideoMask;2021.1.2;120.01733052271562;
8.0;m;008_y_m_s_a.jpg;sad;7.0;happy_133.3.wmv;happy;9.0;incongruent;130.0;150.0;152.577966552593;s_h;;;;;0;16;16;16;;;;;;;254.0170255000121;None;255.5084241000004;255.82529750000685;256.95036499999696;256.9668822999811;258.9585260999738;None;9;0;258.9585260999738;None;;;;;;;;6;;;;;0.5876043000025675;;;260.50841810001293;None;None;None;[];260.50841810001293;None;['9'];[0.5816366000217386];260.50841810001293;None;;;S11590;2022_Jul_18_1706;VideoMask;2021.1.2;120.01733052271562;
3.0;m;033_o_m_h_a.jpg;happy;9.0;sad_128.1.wmv;sad;7.0;incongruent;120.0;160.0;171.0492454518585;h_s;;;;;0;17;17;17;;;;;;;263.5085078999982;None;265.1498988000094;265.4665934999939;266.59988170000724;266.61662019998766;268.59989950002637;None;7;0;268.59989950002637;None;;;;;;;;4;;;;;0.8821155999903567;;;270.1498175999732;None;None;None;[];270.1498175999732;None;['7'];[0.8682445000158623];270.1498175999732;None;;;S11590;2022_Jul_18_1706;VideoMask;2021.1.2;120.01733052271562;
1.0;f;021_o_f_h_a.jpg;happy;9.0;sad_116.1.wmv;sad;7.0;incongruent;120.0;160.0;184.06847610053055;h_s;;;;;0;18;18;18;;;;;;;273.1582073000027;None;274.9079676999827;275.2247387000243;276.35838709998643;276.38302190002287;278.3578807999729;None;7;0;278.3578807999729;None;;;;;;;;4;;;;;0.7801023999927565;;;279.90791090001585;None;None;None;[];279.90791090001585;None;['7'];[0.49426950002089143];279.90791090001585;None;;;S11590;2022_Jul_18_1706;VideoMask;2021.1.2;120.01733052271562;
4.0;m;004_o_m_s_a.jpg;sad;7.0;happy_28.1ns.avi;happy;9.0;incongruent;130.0;150.0;157.40741103039684;s_h;;;;;0;19;19;19;;;;;;;282.9161844999762;None;284.4326398000121;284.749323200027;285.91588220000267;285.9327261999715;290.27423370000906;None;9;0;290.27423370000906;None;;;;;;;;8;;;;;0.42370200000004843;;;291.82416939997347;None;None;None;[];291.82416939997347;None;"['9', '9', '9', '9', '9', '9']";"[0.48182440001983196, 0.8018117999890819, 1.2017552999895997, 1.6018111999728717, 1.961881600029301, 2.3379136999719776]";291.82416939997347;None;;;S11590;2022_Jul_18_1706;VideoMask;2021.1.2;120.01733052271562;
8.0;f;028_y_f_s_a.jpg;sad;7.0;happy_122.3.wmv;happy;9.0;incongruent;130.0;150.0;171.8670540936116;s_h;;;;;0;20;20;20;;;;;;;294.8240399999777;None;296.47392860002583;296.7905611000024;297.9321632999927;297.9489328999771;299.92392039997503;None;9;0;299.92392039997503;None;;;;;;;;5;;;;;0.5499529999797232;;;301.4655183000141;None;None;None;[];301.4655183000141;None;None;;301.4655183000141;None;;;S11590;2022_Jul_18_1706;VideoMask;2021.1.2;120.01733052271562;
8.0;m;008_y_m_s_a.jpg;sad;7.0;sad_6.5ns.avi;sad;7.0;congruent;130.0;160.0;170.39333839271438;s_s;;;;;0;21;21;21;;;;;;;304.49877559999004;None;306.1318529000273;306.4486252000206;307.6076263000141;307.6237925000023;312.5901892000111;None;7;0;312.5901892000111;None;;;;;;;;5;;;;;0.5717864999896847;;;314.1401533000171;None;None;None;[];314.1401533000171;None;None;;314.1401533000171;None;;;S11590;2022_Jul_18_1706;VideoMask;2021.1.2;120.01733052271562;
8.0;f;028_y_f_h_a.jpg;happy;9.0;happy_23.1ns.avi;happy;9.0;congruent;120.0;150.0;225.70986890587952;h_h;;;;;0;22;22;22;;;;;;;317.1734041000018;None;319.256521000003;319.5731848999858;320.73149470001226;320.7482103999937;325.28143490001094;None;9;0;325.28143490001094;None;;;;;;;;8;;;;;0.3925493000424467;;;326.83138330001384;None;None;None;[];326.83138330001384;None;"['9', '9', '9', '9']";"[0.46701870003016666, 0.8586163999862038, 1.2186003000242636, 1.9385119000216946]";326.83138330001384;None;;;S11590;2022_Jul_18_1706;VideoMask;2021.1.2;120.01733052271562;
8.0;m;008_y_m_h_a.jpg;happy;9.0;sad_111.1.wmv;sad;7.0;incongruent;120.0;160.0;152.63076835312847;h_s;;;;;0;23;23;23;;;;;;;329.8313558999798;None;331.31447470001876;331.6311947000213;332.76452139997855;332.7812603000202;334.7728592000203;None;7;0;334.7728592000203;None;;;;;;;;5;;;;;0.7651189000462182;;;336.3227895000018;None;None;None;[];336.3227895000018;None;None;;336.3227895000018;None;;;S11590;2022_Jul_18_1706;VideoMask;2021.1.2;120.01733052271562;
0.0;f;040_y_f_s_a.jpg;sad;7.0;sad_67.2ns.avi;sad;7.0;congruent;130.0;160.0;220.9892697323079;s_s;;;;;0;24;24;24;;;;;;;339.34774800000014;None;341.41418909997446;341.73076690000016;342.8559336999897;342.8732175999903;352.0890580000123;None;7;0;352.0890580000123;None;;;;;;;;5;;;;;0.808929699996952;;;353.6389088999713;None;None;None;[];353.6389088999713;None;None;;353.6389088999713;None;;;S11590;2022_Jul_18_1706;VideoMask;2021.1.2;120.01733052271562;
8.0;m;008_y_m_s_a.jpg;sad;7.0;happy_29.1ns.avi;happy;9.0;incongruent;130.0;150.0;120.0316142834122;s_h;;;;;0;25;25;25;;;;;;;356.6719430999947;None;357.88032340002246;358.19697470002575;359.33106009999756;359.36367799999425;362.02202400000533;None;9;0;362.02202400000533;None;;;;;;;;5;;;;;0.4518610999803059;;;363.58024129999103;None;None;None;[];363.58024129999103;None;None;;363.58024129999103;None;;;S11590;2022_Jul_18_1706;VideoMask;2021.1.2;120.01733052271562;
6.0;m;016_y_m_s_a.jpg;sad;7.0;sad_8.3ns.avi;sad;7.0;congruent;130.0;160.0;152.85371098242734;s_s;;;;;0;26;26;26;;;;;;;366.59668690001126;None;368.0883286999888;368.4050246999832;369.58812670002226;369.60502780001843;377.30493550002575;None;9;0;377.30493550002575;None;;;;;;;;5;;;;;1.2969862000318244;;;378.8547651999979;None;None;None;[];378.8547651999979;None;None;;378.8547651999979;None;;;S11590;2022_Jul_18_1706;VideoMask;2021.1.2;120.01733052271562;
6.0;m;016_y_m_h_a.jpg;happy;9.0;sad_114.1.wmv;sad;7.0;incongruent;120.0;160.0;136.20550699298644;h_s;;;;;0;27;27;27;;;;;;;381.8795058000251;None;383.22951309999917;383.5462188000092;384.67954270000337;384.6962168000173;386.6794400999788;None;7;0;386.6794400999788;None;;;;;;;;5;;;;;0.7465230000088923;;;388.2293664999888;None;None;None;[];388.2293664999888;None;None;;388.2293664999888;None;;;S11590;2022_Jul_18_1706;VideoMask;2021.1.2;120.01733052271562;
7.0;m;027_o_m_s_a.jpg;sad;7.0;happy_117.3.wmv;happy;9.0;incongruent;130.0;150.0;215.61964028550614;s_h;;;;;0;28;28;28;;;;;;;391.25440209999215;None;393.2543004999752;393.5708863000036;394.69604020001134;394.7125532000209;396.7042424000101;None;9;0;396.7042424000101;None;;;;;;;;5;;;;;0.8737654000287876;;;398.2541564999847;None;None;None;[];398.2541564999847;None;None;;398.2541564999847;None;;;S11590;2022_Jul_18_1706;VideoMask;2021.1.2;120.01733052271562;
6.0;m;016_y_m_h_a.jpg;happy;9.0;happy_9.2ns.avi;happy;9.0;congruent;120.0;150.0;130.52042428082717;h_h;;;;;0;29;29;29;;;;;;;401.27050619997317;None;402.5705779999844;402.887313299987;404.02068660000805;404.0372886999976;409.9455385999754;None;9;0;409.9455385999754;None;;;;;;;;6;;;;;0.4726381999789737;;;411.503688399971;None;None;None;[];411.503688399971;None;['9'];[0.45837080001365393];411.503688399971;None;;;S11590;2022_Jul_18_1706;VideoMask;2021.1.2;120.01733052271562;
0.0;f;040_y_f_s_a.jpg;sad;7.0;happy_127.3.wmv;happy;9.0;incongruent;130.0;150.0;131.7195455720239;s_h;;;;;0;30;30;30;;;;;;;414.50362309999764;None;415.81180540000787;416.12852839997504;417.2619252000004;417.27854019997176;419.32840300002135;None;9;0;419.32840300002135;None;;;;;;;;6;;;;;0.7055813000188209;;;420.8784341000137;None;None;None;[];420.8784341000137;None;['9'];[0.6115674000466242];420.8784341000137;None;;;S11590;2022_Jul_18_1706;VideoMask;2021.1.2;120.01733052271562;
0.0;f;030_o_f_s_a.jpg;sad;7.0;happy_125.3.wmv;happy;9.0;incongruent;130.0;150.0;220.51454909128134;s_h;;;;;0;31;31;31;;;;;;;423.88679179997416;None;425.93656970001757;426.253269799985;427.38660299999174;427.4032182000228;429.38647460000357;None;9;0;429.38647460000357;None;;;;;;;;5;;;;;0.46353119995910674;;;430.9364542000112;None;None;None;[];430.9364542000112;None;None;;430.9364542000112;None;;;S11590;2022_Jul_18_1706;VideoMask;2021.1.2;120.01733052271562;
0.0;f;030_o_f_s_a.jpg;sad;7.0;sad_64.3ns.avi;sad;7.0;congruent;130.0;160.0;165.78667874766072;s_s;;;;;0;32;32;32;;;;;;;433.9529474999872;None;435.54467899998417;435.8610815000138;437.0279337000102;437.0446239999728;442.00281709997216;None;7;0;442.00281709997216;None;;;;;;;;5;;;;;0.8711388999945484;;;443.5527259000228;None;None;None;[];443.5527259000228;None;None;;443.5527259000228;None;;;S11590;2022_Jul_18_1706;VideoMask;2021.1.2;120.01733052271562;
3.0;m;013_y_m_s_a.jpg;sad;7.0;sad_7.7ns.avi;sad;7.0;congruent;130.0;160.0;196.24182255763262;s_s;;;;;0;33;33;33;;;;;;;446.58599629998207;None;448.43580159998965;448.7524925000034;449.9024454000173;449.91919699998107;455.8856590000214;None;7;0;455.8856590000214;None;;;;;;;;4;;;;;1.1563265000004321;;;457.4356238999753;None;None;None;[];457.4356238999753;None;['7'];[0.510568699974101];457.4356238999753;None;;;S11590;2022_Jul_18_1706;VideoMask;2021.1.2;120.01733052271562;
3.0;m;013_y_m_h_a.jpg;happy;9.0;happy_9.1ns.avi;happy;9.0;congruent;120.0;150.0;165.1890303600433;h_h;;;;;0;34;34;34;;;;;;;460.4439752000035;None;462.03537920000963;462.35211550001986;463.4934627999901;463.51033389999066;466.71045170002617;None;9;0;466.71045170002617;None;;;;;;;;5;;;;;0.8195112000103109;;;468.26041470002383;None;None;None;[];468.26041470002383;None;None;;468.26041470002383;None;;;S11590;2022_Jul_18_1706;VideoMask;2021.1.2;120.01733052271562;
4.0;m;004_o_m_h_a.jpg;happy;9.0;sad_95.1ns.avi;sad;7.0;incongruent;120.0;160.0;152.68270002069931;h_s;;;;;0;35;35;35;;;;;;;471.28509640000993;None;472.77678660000674;473.09343060001265;474.2435230999836;474.2600278999889;483.01850270002615;None;7;0;483.01850270002615;None;;;;;;;;2;;;;;0.8955799000104889;;;484.57642940001097;None;None;None;[];484.57642940001097;None;"['7', '7', '7']";"[0.48156260000541806, 0.8174787000170909, 1.1855441000079736]";484.57642940001097;None;;;S11590;2022_Jul_18_1706;VideoMask;2021.1.2;120.01733052271562;
3.0;m;013_y_m_h_a.jpg;happy;9.0;sad_113.2.wmv;sad;7.0;incongruent;120.0;160.0;217.4973891947951;h_s;;;;;0;36;36;36;;;;;;;487.5764326999779;None;489.6011477999855;489.9179066999932;491.05126669997117;491.0679539000266;493.05115289997775;None;7;0;493.05115289997775;None;;;;;;;;4;;;;;0.926818199979607;;;494.6011151000275;None;None;None;[];494.6011151000275;None;['7'];[0.6647260999889113];494.6011151000275;None;;;S11590;2022_Jul_18_1706;VideoMask;2021.1.2;120.01733052271562;
4.0;m;004_o_m_h_a.jpg;happy;9.0;happy_25.1ns.avi;happy;9.0;congruent;120.0;150.0;216.63044503818386;h_h;;;;;0;37;37;37;;;;;;;497.60947959998157;None;499.6174469999969;499.93425390002085;501.0675350999809;501.0845789000159;504.7591632999829;None;9;0;504.7591632999829;None;;;;;;;;6;;;;;0.866849500045646;;;506.3174195999745;None;None;None;[];506.3174195999745;None;['9'];[0.5726900000008754];506.3174195999745;None;;;S11590;2022_Jul_18_1706;VideoMask;2021.1.2;120.01733052271562;
4.0;m;004_o_m_s_a.jpg;sad;7.0;happy_131.2.wmv;happy;9.0;incongruent;130.0;150.0;181.38407540847405;s_h;;;;;0;38;38;38;;;;;;;509.3257702999981;None;511.04216579999775;511.3588608999853;512.4920924999751;512.5088578999857;514.4921395999845;None;9;0;514.4921395999845;None;;;;;;;;5;;;;;0.5898407999775372;;;516.0421116999933;None;None;None;[];516.0421116999933;None;None;;516.0421116999933;None;;;S11590;2022_Jul_18_1706;VideoMask;2021.1.2;120.01733052271562;
0.0;f;040_y_f_h_a.jpg;happy;9.0;happy_24.3ns.avi;happy;9.0;congruent;120.0;150.0;213.25460698950434;h_h;;;;;0;39;39;39;;;;;;;519.0753619999741;None;521.0501427000272;521.3668695000233;522.4919300000183;522.508472800022;524.4252049999777;None;9;0;524.4252049999777;None;;;;;;;;5;;;;;0.5448633999913;;;525.9834641999914;None;None;None;[];525.9834641999914;None;None;;525.9834641999914;None;;;S11590;2022_Jul_18_1706;VideoMask;2021.1.2;120.01733052271562;
2.0;f;012_o_f_s_a.jpg;sad;7.0;happy_139.1.wmv;happy;9.0;incongruent;130.0;150.0;162.31500468041804;s_h;;;;;0;40;40;40;;;;;;;529.0084418000188;None;530.5665352999931;530.8831293000258;532.0166219000239;532.0332831999986;534.0165971000097;None;9;0;534.0165971000097;None;;;;;;;;5;;;;;0.4652721000020392;;;535.5665089000249;None;None;None;[];535.5665089000249;None;None;;535.5665089000249;None;;;S11590;2022_Jul_18_1706;VideoMask;2021.1.2;120.01733052271562;
0.0;f;030_o_f_h_a.jpg;happy;9.0;happy_24.1ns.avi;happy;9.0;congruent;120.0;150.0;168.36256624020774;h_h;;;;;0;41;41;41;;;;;;;538.5997575999936;None;540.2079229999799;540.5246162000112;541.757768600015;541.774439300003;544.9829045999795;None;9;0;544.9829045999795;None;;;;;;;;5;;;;;0.6032353999908082;;;546.532818000007;None;None;None;[];546.532818000007;None;None;;546.532818000007;None;;;S11590;2022_Jul_18_1706;VideoMask;2021.1.2;120.01733052271562;
2.0;f;012_o_f_h_a.jpg;happy;9.0;sad_113.1.wmv;sad;7.0;incongruent;120.0;160.0;177.44551734737394;h_s;;;;;0;42;42;42;;;;;;;549.5659076999873;None;551.2491913000122;551.5659895000281;552.6990704999771;552.7159971999936;554.699207000027;None;7;0;554.699207000027;None;;;;;;;;5;;;;;0.6228933000238612;;;556.2491944999783;None;None;None;[];556.2491944999783;None;None;;556.2491944999783;None;;;S11590;2022_Jul_18_1706;VideoMask;2021.1.2;120.01733052271562;
3.0;m;033_o_m_s_a.jpg;sad;7.0;sad_64.5ns.avi;sad;7.0;congruent;130.0;160.0;130.55717223801247;s_s;;;;;0;43;43;43;;;;;;;559.2824314999743;None;560.582238700008;560.8989465999766;562.0405739999842;562.0573748999741;568.6153719999711;None;7;0;568.6153719999711;None;;;;;;;;4;;;;;0.706578699988313;;;570.1654084000038;None;None;None;[];570.1654084000038;None;['7'];[0.51647040003445];570.1654084000038;None;;;S11590;2022_Jul_18_1706;VideoMask;2021.1.2;120.01733052271562;
7.0;m;027_o_m_h_a.jpg;happy;9.0;sad_117.1.wmv;sad;7.0;incongruent;120.0;160.0;181.28665202824095;h_s;;;;;0;44;44;44;;;;;;;573.173764600011;None;574.8984765000059;575.2152531999745;576.3565883000265;576.3733453999739;578.3484641999821;None;7;0;578.3484641999821;None;;;;;;;;5;;;;;0.717518099991139;;;579.8983970999834;None;None;None;[];579.8983970999834;None;None;;579.8983970999834;None;;;S11590;2022_Jul_18_1706;VideoMask;2021.1.2;120.01733052271562;
3.0;m;033_o_m_s_a.jpg;sad;7.0;happy_126.3.wmv;happy;9.0;incongruent;130.0;150.0;198.85252030535366;s_h;;;;;0;45;45;45;;;;;;;582.9233342999942;None;584.7897997000255;585.1065368999843;586.2397469999851;586.2565619000234;588.2398208000232;None;9;0;588.2398208000232;None;;;;;;;;5;;;;;0.9781654999824241;;;589.7897855999763;None;None;None;[];589.7897855999763;None;None;;589.7897855999763;None;;;S11590;2022_Jul_18_1706;VideoMask;2021.1.2;120.01733052271562;
3.0;m;033_o_m_h_a.jpg;happy;9.0;sad_136.1.wmv;sad;7.0;incongruent;120.0;160.0;176.97002883463455;h_s;;;;;0;46;46;46;;;;;;;592.8062867000117;None;594.4811731000082;594.7978971999837;595.9230037999805;595.9396545999916;597.9395369000267;None;7;0;597.9395369000267;None;;;;;;;;5;;;;;0.6703829999896698;;;599.4894403999788;None;None;None;[];599.4894403999788;None;None;;599.4894403999788;None;;;S11590;2022_Jul_18_1706;VideoMask;2021.1.2;120.01733052271562;
9.0;f;019_m_f_h_a.jpg;happy;9.0;happy_10.1ns.avi;happy;9.0;congruent;120.0;150.0;157.2463435658512;h_h;;;;;0;47;47;47;;;;;;;602.5059305999894;None;604.0308279999881;604.3475976000191;605.5558359000133;605.5724442999926;612.9307517000125;None;9;0;612.9307517000125;None;;;;;;;;6;;;;;0.5112134000519291;;;614.4805943000247;None;None;None;[];614.4805943000247;None;['9'];[0.9373784000054002];614.4805943000247;None;;;S11590;2022_Jul_18_1706;VideoMask;2021.1.2;120.01733052271562;
2.0;f;012_o_f_h_a.jpg;happy;9.0;happy_2.2ns.avi;happy;9.0;congruent;120.0;150.0;206.34800317295262;h_h;;;;;0;48;48;48;;;;;;;617.4806105999742;None;619.4386179000139;619.7554695999715;620.9138946000021;620.9304020000272;633.0968081000028;None;9;0;633.0968081000028;None;;;;;;;;6;;;;;0.697342999977991;;;634.6550535000279;None;None;None;[];634.6550535000279;None;['9'];[1.034841899992898];634.6550535000279;None;;;S11590;2022_Jul_18_1706;VideoMask;2021.1.2;120.01733052271562;
3.0;m;033_o_m_h_a.jpg;happy;9.0;happy_24.2ns.avi;happy;9.0;congruent;120.0;150.0;167.9423847659953;h_h;;;;;0;49;49;49;;;;;;;637.6551166999852;None;639.2463770000031;639.5632619999815;640.7132921000011;640.7298433000105;644.421377599996;None;9;0;644.421377599996;None;;;;;;;;6;;;;;0.5166421000030823;;;645.9713798000012;None;None;None;[];645.9713798000012;None;"['9', '9']";"[0.4945232000318356, 1.4547677000518888]";645.9713798000012;None;;;S11590;2022_Jul_18_1706;VideoMask;2021.1.2;120.01733052271562;
1.0;f;021_o_f_s_a.jpg;sad;7.0;happy_61.2ns.avi;happy;9.0;incongruent;130.0;150.0;210.94664004826666;s_h;;;;;0;50;50;50;;;;;;;648.9713670000201;None;650.9377212999971;651.2544982000254;652.4878403000184;652.504514899978;656.9126730000135;None;9;0;656.9126730000135;None;;;;;;;;5;;;;;0.5532807999989018;;;658.4626322999829;None;None;None;[];658.4626322999829;None;None;;658.4626322999829;None;;;S11590;2022_Jul_18_1706;VideoMask;2021.1.2;120.01733052271562;
4.0;m;004_o_m_s_a.jpg;sad;7.0;sad_2.4ns.avi;sad;7.0;congruent;130.0;160.0;153.02079367163634;s_s;;;;;0;51;51;51;;;;;;;661.4875566000119;None;662.987391099974;663.3041840000078;664.5378187000169;664.5624576000264;672.4040157999843;None;7;0;672.4040157999843;None;;;;;;;;5;;;;;0.5019944000523537;;;673.9621638000244;None;None;None;[];673.9621638000244;None;None;;673.9621638000244;None;;;S11590;2022_Jul_18_1706;VideoMask;2021.1.2;120.01733052271562;
8.0;m;008_y_m_h_a.jpg;happy;9.0;happy_1.2ns.avi;happy;9.0;congruent;120.0;150.0;210.98946429383824;h_h;;;;;0;52;52;52;;;;;;;676.9869504999951;None;678.995399300009;679.3119145000237;680.4789805000182;680.4950669999816;693.2365180000197;None;9;0;693.2365180000197;None;;;;;;;;5;;;;;0.5495037999935448;;;694.7864884000155;None;None;None;[];694.7864884000155;None;None;;694.7864884000155;None;;;S11590;2022_Jul_18_1706;VideoMask;2021.1.2;120.01733052271562;
2.0;f;012_o_f_s_a.jpg;sad;7.0;happy_52.2ns.avi;happy;9.0;incongruent;130.0;150.0;172.57202848318138;s_h;;;;;0;53;53;53;;;;;;;697.8112005000003;None;699.4528579000034;699.7697306000046;700.9279619000154;700.9446180000086;704.4611440000008;None;9;0;704.4611440000008;None;;;;;;;;6;;;;;0.6527967000147328;;;706.0111269999761;None;None;None;[];706.0111269999761;None;['9'];[0.9508513999753632];706.0111269999761;None;;;S11590;2022_Jul_18_1706;VideoMask;2021.1.2;120.01733052271562;
9.0;f;019_m_f_s_a.jpg;sad;7.0;happy_61.1ns.avi;happy;9.0;incongruent;130.0;150.0;181.3003220572762;s_h;;;;;0;54;54;54;;;;;;;709.0111022000201;None;710.7524820999824;711.069204600004;712.2775377000216;712.29421740002;719.5941344000166;None;9;0;719.5941344000166;None;;;;;;;;5;;;;;0.5038327999645844;;;721.1523141000071;None;None;None;[];721.1523141000071;None;None;;721.1523141000071;None;;;S11590;2022_Jul_18_1706;VideoMask;2021.1.2;120.01733052271562;
0.0;f;030_o_f_h_a.jpg;happy;9.0;sad_133.1.wmv;sad;7.0;incongruent;120.0;160.0;198.86251500867985;h_s;;;;;0;55;55;55;;;;;;;724.1855549999746;None;726.0520277000032;726.3687048000284;727.5020523000276;727.5189648999949;729.5020629999926;None;7;0;729.5020629999926;None;;;;;;;;5;;;;;0.7639247999759391;;;731.0520218000165;None;None;None;[];731.0520218000165;None;None;;731.0520218000165;None;;;S11590;2022_Jul_18_1706;VideoMask;2021.1.2;120.01733052271562;
0.0;f;040_y_f_h_a.jpg;happy;9.0;sad_128.2.wmv;sad;7.0;incongruent;120.0;160.0;206.10005857915363;h_s;;;;;0;56;56;56;;;;;;;734.0852715999936;None;736.0184428999783;736.3351307000266;737.4682634000201;737.4851271000225;739.4684326999704;None;7;0;739.4684326999704;None;;;;;;;;5;;;;;0.6774989999830723;;;741.0183735999744;None;None;None;[];741.0183735999744;None;None;;741.0183735999744;None;;;S11590;2022_Jul_18_1706;VideoMask;2021.1.2;120.01733052271562;
1.0;f;021_o_f_s_a.jpg;sad;7.0;sad_9.5ns.avi;sad;7.0;congruent;130.0;160.0;206.16642757875042;s_s;;;;;0;57;57;57;;;;;;;744.0348390999716;None;745.9597141999984;746.2764989999705;747.4513430999941;747.4679564000107;753.1347967999754;None;7;0;753.1347967999754;None;;;;;;;;5;;;;;0.5552165000117384;;;754.6846054000198;None;None;None;[];754.6846054000198;None;None;;754.6846054000198;None;;;S11590;2022_Jul_18_1706;VideoMask;2021.1.2;120.01733052271562;
1.0;f;021_o_f_h_a.jpg;happy;9.0;happy_12.1ns.avi;happy;9.0;congruent;120.0;150.0;132.59080005900228;h_h;;;;;0;58;58;58;;;;;;;757.7093789000064;None;759.0343169000116;759.3510114999954;760.5175693000201;760.5344002000056;768.100864899985;None;9;0;768.100864899985;None;;;;;;;;6;;;;;0.460993500018958;;;769.6507020000136;None;None;None;[];769.6507020000136;None;['9'];[0.5675085000111721];769.6507020000136;None;;;S11590;2022_Jul_18_1706;VideoMask;2021.1.2;120.01733052271562;
3.0;m;013_y_m_s_a.jpg;sad;7.0;happy_56.2ns.avi;happy;9.0;incongruent;130.0;150.0;163.39234110935848;s_h;;;;;0;59;59;59;;;;;;;772.6590367999743;None;774.2255296999938;774.5423052000115;775.7920333999791;775.8087767999968;780.7002959999954;None;9;0;780.7002959999954;None;;;;;;;;7;;;;;0.517674500006251;;;782.2503908000072;None;None;None;[];782.2503908000072;None;"['9', '9']";"[0.487636600038968, 1.1675477999961004]";782.2503908000072;None;;;S11590;2022_Jul_18_1706;VideoMask;2021.1.2;120.01733052271562;
;;;;;;;;;;;;;;;;;;;;;;;;;;;;;;;;;;;;;;;;;;;;;;;;;;;;;;;;;;;;;;;;;785.250368900015;None;;;;;;
