primePerson;primeGender;prime;primeEmotion;corrAnsPrime;target;targetEmotion;corrAnsTar;Cond;ID_Primer;ID_Target;JitterTime;Condition;example.thisRepN;example.thisTrialN;example.thisN;example.thisIndex;study.thisRepN;study.thisTrialN;study.thisN;study.thisIndex;MR_trigger_time;MR_trigger_number;text_intro.started;text_intro.stopped;text_probe.started;text_probe.stopped;polygon_ISI.started;polygon_ISI.stopped;polygon.started;polygon.stopped;primerImage.started;primerImage.stopped;response.started;response.stopped;key_resp.keys;key_resp.corr;key_resp.started;key_resp.stopped;slider_Text.started;slider_Text.stopped;slider_ex.response;slider_ex.rt;slider_ex.history;slider_ex.started;slider_ex.stopped;Rating;slider_resp_response.keys;slider_resp_response.rt;slider_resp_response.started;slider_resp_response.stopped;key_resp.rt;text_start.started;text_start.stopped;text_slider.started;text_slider.stopped;slider_stud.response;slider_stud.rt;slider_stud.history;slider_stud.started;slider_stud.stopped;slider_resp_study.keys;slider_resp_study.rt;slider_resp_study.started;slider_resp_study.stopped;text_ende.started;text_ende.stopped;participant;date;expName;psychopyVersion;frameRate;
1111;m;1111_m_m_h_a.jpg;happy;9;example_30.4ns.avi;neutral;7;incongruent;120.0;170.0;189.5874364012288;;0;0;0;0;;;;;25.444135300000198;1;25.522172800032422;27.5223435999942;27.5223435999942;None;29.555625099979807;None;31.797050199995283;32.11377789999824;33.29707279999275;33.313809300016146;37.58862220001174;None;None;0;37.58862220001174;None;39.15506339998683;None;None;None;[];39.15506339998683;None;7;"['9', '9']";"[1.7740641999989748, 2.8462975999573246]";39.15506339998683;None;;;;;;;;;;;;;;;;;S11078;2021_Dec_03_1521;VideoMask;2021.1.2;119.95341004799597;
1113;f;1113_y_f_s_a.jpg;sad;7;example_30.3ns.avi;neutral;7;incongruent;130.0;170.0;229.02432995836998;;0;1;1;1;;;;;;;;;;;42.14685160003137;None;44.27166050003143;44.58850040001562;45.7220943000284;45.73846510000294;47.721673600026406;None;9;0;47.721673600026406;None;49.27165900002001;None;None;None;[];49.27165900002001;None;7;"['9', '9']";"[0.929788000008557, 1.8657280000043102]";49.27165900002001;None;1.3517272000317462;;;;;;;;;;;;;;;;S11078;2021_Dec_03_1521;VideoMask;2021.1.2;119.95341004799597;
9.0;f;019_m_f_h_a.jpg;happy;9.0;sad_115.1.wmv;sad;7.0;incongruent;120.0;160.0;128.09063432376465;h_s;;;;;0;0;0;0;;;;;;;53.32156270003179;None;54.61303619999671;54.93030180002097;56.062934799992945;56.0797748999903;58.07976150000468;None;None;0;58.07976150000468;None;;;;;;;;4;;;;;;52.2797763000126;None;59.6295095999958;None;None;None;[];59.6295095999958;None;['7'];[1.4838357999688014];59.6295095999958;None;;;S11078;2021_Dec_03_1521;VideoMask;2021.1.2;119.95341004799597;
3.0;m;033_o_m_s_a.jpg;sad;7.0;sad_94.2ns.avi;sad;7.0;congruent;130.0;160.0;182.29120173647655;s_s;;;;;0;1;1;1;;;;;;;62.62974820000818;None;64.38776130002225;64.7044572000159;65.93776040000375;65.95444860000862;68.53800539998338;None;None;0;68.53800539998338;None;;;;;;;;3;;;;;;;;70.11269059998449;None;None;None;[];70.11269059998449;None;"['7', '7']";"[0.7207842000061646, 1.096657200017944]";70.11269059998449;None;;;S11078;2021_Dec_03_1521;VideoMask;2021.1.2;119.95341004799597;
8.0;m;008_y_m_h_a.jpg;happy;9.0;happy_26.1ns.avi;happy;9.0;congruent;120.0;150.0;155.9437854594882;h_h;;;;;0;2;2;2;;;;;;;73.11271170002874;None;74.62073269998655;74.93784999998752;76.10414720000699;76.12082559999544;78.06246390001616;None;None;0;78.06246390001616;None;;;;;;;;6;;;;;;;;79.61253390001366;None;None;None;[];79.61253390001366;None;['9'];[1.3808864000020549];79.61253390001366;None;;;S11078;2021_Dec_03_1521;VideoMask;2021.1.2;119.95341004799597;
0.0;f;040_y_f_h_a.jpg;happy;9.0;sad_138.1.wmv;sad;7.0;incongruent;120.0;160.0;133.99071306426532;h_s;;;;;0;3;3;3;;;;;;;82.61253270000452;None;83.95373350003501;84.2705633000005;85.39558670000406;85.41212220001034;87.40386510000098;None;7;0;87.40386510000098;None;;;;;;;;4;;;;;1.0534635999938473;;;88.94543369999155;None;None;None;[];88.94543369999155;None;['7'];[1.864068299997598];88.94543369999155;None;;;S11078;2021_Dec_03_1521;VideoMask;2021.1.2;119.95341004799597;
8.0;f;028_y_f_s_a.jpg;sad;7.0;sad_64.2ns.avi;sad;7.0;congruent;130.0;160.0;229.88540597086478;s_s;;;;;0;4;4;4;;;;;;;91.94559750001645;None;94.17032279999694;94.48699669999769;95.67027689999668;95.68692870001541;106.62008949997835;None;None;0;106.62008949997835;None;;;;;;;;3;;;;;;;;108.61986380000599;None;None;None;[];108.61986380000599;None;"['7', '7']";"[1.0377143999794498, 2.1495820999844]";108.61986380000599;None;;;S11078;2021_Dec_03_1521;VideoMask;2021.1.2;119.95341004799597;
7.0;m;027_o_m_s_a.jpg;sad;7.0;sad_10.4ns.avi;sad;7.0;congruent;130.0;160.0;185.20129417468752;s_s;;;;;0;5;5;5;;;;;;;111.6197920999839;None;113.39460140001029;113.71130149997771;114.8862814999884;114.90302329999395;118.01187930000015;None;7;0;118.01187930000015;None;;;;;;;;3;;;;;1.3655497999861836;;;119.5611910999869;None;None;None;[];119.5611910999869;None;"['7', '7']";"[1.3923374000005424, 1.8242690999759361]";119.5611910999869;None;;;S11078;2021_Dec_03_1521;VideoMask;2021.1.2;119.95341004799597;
2.0;f;012_o_f_s_a.jpg;sad;7.0;sad_7.5ns.avi;sad;7.0;congruent;130.0;160.0;220.27842655424388;s_s;;;;;0;6;6;6;;;;;;;122.56111549999332;None;124.59425720002037;124.91094810003415;126.11104749998776;126.12771770003019;128.83624259999488;None;7;0;128.83624259999488;None;;;;;;;;4;;;;;0.7009807000285946;;;130.46086629998172;None;None;None;[];130.46086629998172;None;"['7', '7']";"[2.0366287999786437, 2.2124323999742046]";130.46086629998172;None;;;S11078;2021_Dec_03_1521;VideoMask;2021.1.2;119.95341004799597;
2.0;f;012_o_f_h_a.jpg;happy;9.0;happy_27.1ns.avi;happy;9.0;congruent;120.0;150.0;146.44967055810616;h_h;;;;;0;7;7;7;;;;;;;133.46076550002908;None;134.8939605000196;135.21061830001418;136.36044620000757;136.3773547000019;138.83560280001257;None;9;0;138.83560280001257;None;;;;;;;;6;;;;;0.981833900033962;;;140.37726650002878;None;None;None;[];140.37726650002878;None;['9'];[1.888261899992358];140.37726650002878;None;;;S11078;2021_Dec_03_1521;VideoMask;2021.1.2;119.95341004799597;
8.0;f;028_y_f_h_a.jpg;happy;9.0;sad_119.1.wmv;sad;7.0;incongruent;120.0;160.0;148.71526953572538;h_s;;;;;0;8;8;8;;;;;;;143.38562110002385;None;144.84356820001267;145.16041429998586;146.29409440001473;146.31872490001842;148.360587400035;None;7;0;148.360587400035;None;;;;;;;;5;;;;;1.4007251999573782;;;149.91028970002662;None;None;None;[];149.91028970002662;None;None;;149.91028970002662;None;;;S11078;2021_Dec_03_1521;VideoMask;2021.1.2;119.95341004799597;
6.0;m;016_y_m_s_a.jpg;sad;7.0;happy_60.4ns.avi;happy;9.0;incongruent;130.0;150.0;126.02367393611817;s_h;;;;;0;9;9;9;;;;;;;152.9267755000037;None;154.2435007999884;154.56020350003382;155.73514970001997;155.75175679998938;161.48494970001047;None;9;0;161.48494970001047;None;;;;;;;;6;;;;;0.7646135000395589;;;163.13485239999136;None;None;None;[];163.13485239999136;None;"['9', '9']";"[0.7064512000069954, 1.7864218999748118]";163.13485239999136;None;;;S11078;2021_Dec_03_1521;VideoMask;2021.1.2;119.95341004799597;
9.0;f;019_m_f_s_a.jpg;sad;7.0;sad_8.4ns.avi;sad;7.0;congruent;130.0;160.0;171.6633093155257;s_s;;;;;0;10;10;10;;;;;;;166.1431322999997;None;167.85985360003542;168.17624910001177;169.34288230002858;169.3595595000079;177.4513966999948;None;7;0;177.4513966999948;None;;;;;;;;4;;;;;1.3262031999765895;;;179.65107969997916;None;None;None;[];179.65107969997916;None;['7'];[1.3662016000016592];179.65107969997916;None;;;S11078;2021_Dec_03_1521;VideoMask;2021.1.2;119.95341004799597;
4.0;m;004_o_m_h_a.jpg;happy;9.0;happy_1.1ns.avi;happy;9.0;congruent;120.0;150.0;203.50057144619865;h_h;;;;;0;11;11;11;;;;;;;182.65940280002542;None;184.6507179000182;184.9674225000199;186.10088739998173;186.11745329998666;200.59271400002763;None;9;0;200.59271400002763;None;;;;;;;;6;;;;;1.9048956999904476;;;203.042009900033;None;None;None;[];203.042009900033;None;['9'];[1.5436728000058793];203.042009900033;None;;;S11078;2021_Dec_03_1521;VideoMask;2021.1.2;119.95341004799597;
7.0;m;027_o_m_h_a.jpg;happy;9.0;happy_20.1ns.avi;happy;9.0;congruent;120.0;150.0;152.91127178874285;h_h;;;;;0;12;12;12;;;;;;;206.05033150000963;None;207.57588770001894;207.8918604000355;209.02524610003456;209.0418212999939;212.04172229999676;None;9;0;212.04172229999676;None;;;;;;;;5;;;;;1.271674699964933;;;213.6500300000189;None;None;None;[];213.6500300000189;None;None;;213.6500300000189;None;;;S11078;2021_Dec_03_1521;VideoMask;2021.1.2;119.95341004799597;
0.0;f;040_y_f_s_a.jpg;sad;7.0;sad_94.3ns.avi;sad;7.0;congruent;130.0;160.0;155.27414203894395;s_s;;;;;0;13;13;13;;;;;;;216.683271899994;None;218.1999075000058;218.51698760001455;219.74126400001114;219.75802680000197;222.27495739998994;None;7;0;222.27495739998994;None;;;;;;;;5;;;;;1.1501725999987684;;;223.82466029998614;None;None;None;[];223.82466029998614;None;None;;223.82466029998614;None;;;S11078;2021_Dec_03_1521;VideoMask;2021.1.2;119.95341004799597;
0.0;f;030_o_f_s_a.jpg;sad;7.0;sad_68.1ns.avi;sad;7.0;congruent;130.0;160.0;158.9411396037211;s_s;;;;;0;14;14;14;;;;;;;226.8579864000203;None;228.44129899999825;228.7578381000203;229.89952769997763;229.91617799998494;237.31594820000464;None;7;0;237.31594820000464;None;;;;;;;;4;;;;;1.293326600047294;;;238.86585569998715;None;None;None;[];238.86585569998715;None;"['7', '7']";"[1.4876241000019945, 2.527549899998121]";238.86585569998715;None;;;S11078;2021_Dec_03_1521;VideoMask;2021.1.2;119.95341004799597;
0.0;f;030_o_f_h_a.jpg;happy;9.0;sad_127.1.wmv;sad;7.0;incongruent;120.0;160.0;180.59976631384873;h_s;;;;;0;15;15;15;;;;;;;241.86583550000796;None;243.59902560000774;243.91585190000478;245.04912089998834;245.06599010003265;247.0492058999953;None;None;0;247.0492058999953;None;;;;;;;;5;;;;;;;;248.59885549999308;None;None;None;[];248.59885549999308;None;None;;248.59885549999308;None;;;S11078;2021_Dec_03_1521;VideoMask;2021.1.2;119.95341004799597;
8.0;m;008_y_m_s_a.jpg;sad;7.0;happy_133.3.wmv;happy;9.0;incongruent;130.0;150.0;152.577966552593;s_h;;;;;0;16;16;16;;;;;;;251.6238572000293;None;253.14039349998347;253.4569848999963;254.58221359999152;254.5987472999841;256.5906712000142;None;9;0;256.5906712000142;None;;;;;;;;3;;;;;1.2666686999727972;;;258.1403008000343;None;None;None;[];258.1403008000343;None;"['7', '7']";"[0.7172801999840885, 1.124881199968513]";258.1403008000343;None;;;S11078;2021_Dec_03_1521;VideoMask;2021.1.2;119.95341004799597;
3.0;m;033_o_m_h_a.jpg;happy;9.0;sad_128.1.wmv;sad;7.0;incongruent;120.0;160.0;171.0492454518585;h_s;;;;;0;17;17;17;;;;;;;261.14868959999876;None;262.79865439998684;263.1151498000254;264.24834869999904;264.2652056000079;266.24859780003317;None;7;0;266.24859780003317;None;;;;;;;;4;;;;;0.9288152999943122;;;267.7984011999797;None;None;None;[];267.7984011999797;None;['7'];[2.379010099975858];267.7984011999797;None;;;S11078;2021_Dec_03_1521;VideoMask;2021.1.2;119.95341004799597;
1.0;f;021_o_f_h_a.jpg;happy;9.0;sad_116.1.wmv;sad;7.0;incongruent;120.0;160.0;184.06847610053055;h_s;;;;;0;18;18;18;;;;;;;270.79840080003487;None;272.5731730000116;272.8898243000149;274.02321720001055;274.0398612000281;276.0316910999827;None;7;0;276.0316910999827;None;;;;;;;;4;;;;;0.7456678999587893;;;277.5980091000092;None;None;None;[];277.5980091000092;None;['7'];[2.611392699996941];277.5980091000092;None;;;S11078;2021_Dec_03_1521;VideoMask;2021.1.2;119.95341004799597;
4.0;m;004_o_m_s_a.jpg;sad;7.0;happy_28.1ns.avi;happy;9.0;incongruent;130.0;150.0;157.40741103039684;s_h;;;;;0;19;19;19;;;;;;;280.5984021000331;None;282.1313038999797;282.44790530001046;283.5979101000121;283.6145135000115;287.9728870000108;None;9;0;287.9728870000108;None;;;;;;;;6;;;;;0.7244342999765649;;;289.5227614000323;None;None;None;[];289.5227614000323;None;['9'];[1.4707647999748588];289.5227614000323;None;;;S11078;2021_Dec_03_1521;VideoMask;2021.1.2;119.95341004799597;
8.0;f;028_y_f_s_a.jpg;sad;7.0;happy_122.3.wmv;happy;9.0;incongruent;130.0;150.0;171.8670540936116;s_h;;;;;0;20;20;20;;;;;;;292.53113220003434;None;294.18080869998084;294.4974727000226;295.63096139999107;295.6475882999948;297.63978510000743;None;8;0;297.63978510000743;None;;;;;;;;5;;;;;1.1774810000206344;;;299.3724710000097;None;None;None;[];299.3724710000097;None;None;;299.3724710000097;None;;;S11078;2021_Dec_03_1521;VideoMask;2021.1.2;119.95341004799597;
8.0;m;008_y_m_s_a.jpg;sad;7.0;sad_6.5ns.avi;sad;7.0;congruent;130.0;160.0;170.39333839271438;s_s;;;;;0;21;21;21;;;;;;;302.3972764000064;None;304.0390153999906;304.355655100022;305.51378640002804;305.53118599997833;310.48895070003346;None;7;0;310.48895070003346;None;;;;;;;;5;;;;;1.0882042999728583;;;312.03874280001037;None;None;None;[];312.03874280001037;None;None;;312.03874280001037;None;;;S11078;2021_Dec_03_1521;VideoMask;2021.1.2;119.95341004799597;
8.0;f;028_y_f_h_a.jpg;happy;9.0;happy_23.1ns.avi;happy;9.0;congruent;120.0;150.0;225.70986890587952;h_h;;;;;0;22;22;22;;;;;;;315.0634846999892;None;317.1550824000151;317.4719108000281;318.62161730002845;318.63839779997943;323.18040710000787;None;9;0;323.18040710000787;None;;;;;;;;5;;;;;0.8367387000471354;;;324.7300419000094;None;None;None;[];324.7300419000094;None;None;;324.7300419000094;None;;;S11078;2021_Dec_03_1521;VideoMask;2021.1.2;119.95341004799597;
8.0;m;008_y_m_h_a.jpg;happy;9.0;sad_111.1.wmv;sad;7.0;incongruent;120.0;160.0;152.63076835312847;h_s;;;;;0;23;23;23;;;;;;;327.7549404000165;None;329.2630761000328;329.57984850002686;330.72153380000964;330.73818570002913;332.71309979999205;None;None;0;332.71309979999205;None;;;;;;;;5;;;;;;;;334.26312299998244;None;None;None;[];334.26312299998244;None;"['7', '9']";"[1.8902747000101954, 2.6583012000191957]";334.26312299998244;None;;;S11078;2021_Dec_03_1521;VideoMask;2021.1.2;119.95341004799597;
0.0;f;040_y_f_s_a.jpg;sad;7.0;sad_67.2ns.avi;sad;7.0;congruent;130.0;160.0;220.9892697323079;s_s;;;;;0;24;24;24;;;;;;;337.26307310000993;None;339.37125870003365;339.6878499999875;340.8210896999808;340.83786800003145;350.0459224000224;None;7;0;350.0459224000224;None;;;;;;;;5;;;;;0.883421000035014;;;351.73758020001696;None;None;None;[];351.73758020001696;None;None;;351.73758020001696;None;;;S11078;2021_Dec_03_1521;VideoMask;2021.1.2;119.95341004799597;
8.0;m;008_y_m_s_a.jpg;sad;7.0;happy_29.1ns.avi;happy;9.0;incongruent;130.0;150.0;120.0316142834122;s_h;;;;;0;25;25;25;;;;;;;354.76233180001145;None;355.9790818000329;356.29571400000714;357.43735710001783;357.45402960001957;360.12094250001246;None;None;0;360.12094250001246;None;;;;;;;;5;;;;;;;;361.6704078000039;None;None;None;[];361.6704078000039;None;"['9', '9']";"[1.3951216000132263, 2.0350752000231296]";361.6704078000039;None;;;S11078;2021_Dec_03_1521;VideoMask;2021.1.2;119.95341004799597;
6.0;m;016_y_m_s_a.jpg;sad;7.0;sad_8.3ns.avi;sad;7.0;congruent;130.0;160.0;152.85371098242734;s_s;;;;;0;26;26;26;;;;;;;364.67049530002987;None;366.21210599999176;366.5285988000105;367.7118123000255;367.7285596000147;375.42913419997785;None;None;0;375.42913419997785;None;;;;;;;;5;;;;;;;;377.15355079999426;None;None;None;[];377.15355079999426;None;"['7', '9']";"[1.6400159999611787, 2.2318826999980956]";377.15355079999426;None;;;S11078;2021_Dec_03_1521;VideoMask;2021.1.2;119.95341004799597;
6.0;m;016_y_m_h_a.jpg;happy;9.0;sad_114.1.wmv;sad;7.0;incongruent;120.0;160.0;136.20550699298644;h_s;;;;;0;27;27;27;;;;;;;380.1616992999916;None;381.51159180002287;381.8283085000003;382.95333109999774;382.96983389998786;384.96169470000314;None;None;0;384.96169470000314;None;;;;;;;;4;;;;;;;;386.51139880000846;None;None;None;[];386.51139880000846;None;['7'];[0.04193639999721199];386.51139880000846;None;;;S11078;2021_Dec_03_1521;VideoMask;2021.1.2;119.95341004799597;
7.0;m;027_o_m_s_a.jpg;sad;7.0;happy_117.3.wmv;happy;9.0;incongruent;130.0;150.0;215.61964028550614;s_h;;;;;0;28;28;28;;;;;;;389.5197850000113;None;391.5362600000226;391.85291680000955;392.9780058999895;392.99466600001324;394.98640170000726;None;None;0;394.98640170000726;None;;;;;;;;6;;;;;;;;396.53606190002756;None;None;None;[];396.53606190002756;None;['9'];[1.033268200000748];396.53606190002756;None;;;S11078;2021_Dec_03_1521;VideoMask;2021.1.2;119.95341004799597;
6.0;m;016_y_m_h_a.jpg;happy;9.0;happy_9.2ns.avi;happy;9.0;congruent;120.0;150.0;130.52042428082717;h_h;;;;;0;29;29;29;;;;;;;399.5361954999971;None;400.8693210000056;401.18602999998257;402.3194129000185;402.33615990000544;408.2441506999894;None;9;0;408.2441506999894;None;;;;;;;;6;;;;;1.2850696999812499;;;409.7940913999919;None;None;None;[];409.7940913999919;None;['9'];[0.6793695999658667];409.7940913999919;None;;;S11078;2021_Dec_03_1521;VideoMask;2021.1.2;119.95341004799597;
0.0;f;040_y_f_s_a.jpg;sad;7.0;happy_127.3.wmv;happy;9.0;incongruent;130.0;150.0;131.7195455720239;s_h;;;;;0;30;30;30;;;;;;;412.7940859000082;None;414.12726740003563;414.4439223000081;415.56911209999816;415.58562100003473;417.6438624000293;None;9;0;417.6438624000293;None;;;;;;;;6;;;;;1.1736472000484355;;;419.19379370001843;None;None;None;[];419.19379370001843;None;['9'];[0.6796495000016876];419.19379370001843;None;;;S11078;2021_Dec_03_1521;VideoMask;2021.1.2;119.95341004799597;
0.0;f;030_o_f_s_a.jpg;sad;7.0;happy_125.3.wmv;happy;9.0;incongruent;130.0;150.0;220.51454909128134;s_h;;;;;0;31;31;31;;;;;;;422.1938661999884;None;424.2685408000252;424.58527219999814;425.71864819998154;425.7352850000025;427.71869660000084;None;9;0;427.71869660000084;None;;;;;;;;5;;;;;0.9788047999609262;;;429.2685254000244;None;None;None;[];429.2685254000244;None;None;;429.2685254000244;None;;;S11078;2021_Dec_03_1521;VideoMask;2021.1.2;119.95341004799597;
0.0;f;030_o_f_s_a.jpg;sad;7.0;sad_64.3ns.avi;sad;7.0;congruent;130.0;160.0;165.78667874766072;s_s;;;;;0;32;32;32;;;;;;;432.2933339999872;None;433.90995850000763;434.22666450002;435.41002339997794;435.42669180000667;440.3682136000134;None;7;0;440.3682136000134;None;;;;;;;;4;;;;;0.8811442999867722;;;441.9181663999916;None;None;None;[];441.9181663999916;None;['7'];[0.8995263999677263];441.9181663999916;None;;;S11078;2021_Dec_03_1521;VideoMask;2021.1.2;119.95341004799597;
3.0;m;013_y_m_s_a.jpg;sad;7.0;sad_7.7ns.avi;sad;7.0;congruent;130.0;160.0;196.24182255763262;s_s;;;;;0;33;33;33;;;;;;;444.9181995000108;None;446.79296839999733;447.10963229998015;448.27614109998103;448.29295099998126;454.2428948000306;None;7;0;454.2428948000306;None;;;;;;;;2;;;;;0.6785048000165261;;;455.79272149997996;None;None;None;[];455.79272149997996;None;"['7', '7', '7']";"[0.4487604000023566, 0.6647456999635324, 1.0567423999891616]";455.79272149997996;None;;;S11078;2021_Dec_03_1521;VideoMask;2021.1.2;119.95341004799597;
3.0;m;013_y_m_h_a.jpg;happy;9.0;happy_9.1ns.avi;happy;9.0;congruent;120.0;150.0;165.1890303600433;h_h;;;;;0;34;34;34;;;;;;;458.80107059999136;None;460.44244280003477;460.75914129999;461.89307400002144;461.9178607999929;465.1176340000238;None;9;0;465.1176340000238;None;;;;;;;;6;;;;;1.2520033000037074;;;466.66740460001165;None;None;None;[];466.66740460001165;None;['9'];[1.4220600000116974];466.66740460001165;None;;;S11078;2021_Dec_03_1521;VideoMask;2021.1.2;119.95341004799597;
4.0;m;004_o_m_h_a.jpg;happy;9.0;sad_95.1ns.avi;sad;7.0;incongruent;120.0;160.0;152.68270002069931;h_s;;;;;0;35;35;35;;;;;;;469.66732280002907;None;471.21723609999754;471.5338186000008;472.6922515000333;472.7088958999957;481.4587979000062;None;7;0;481.4587979000062;None;;;;;;;;3;;;;;1.1264176000258885;;;483.0085944000166;None;None;None;[];483.0085944000166;None;"['7', '7', '7', '7']";"[0.3048037000116892, 0.5605794999864884, 0.968638300022576, 1.4568386999890208]";483.0085944000166;None;;;S11078;2021_Dec_03_1521;VideoMask;2021.1.2;119.95341004799597;
3.0;m;013_y_m_h_a.jpg;happy;9.0;sad_113.2.wmv;sad;7.0;incongruent;120.0;160.0;217.4973891947951;h_s;;;;;0;36;36;36;;;;;;;486.01697619998595;None;488.04993480001576;488.36673479998717;489.4917954999837;489.50836859998526;491.5001202999847;None;None;0;491.5001202999847;None;;;;;;;;5;;;;;;;;493.0500383999897;None;None;None;[];493.0500383999897;None;None;;493.0500383999897;None;;;S11078;2021_Dec_03_1521;VideoMask;2021.1.2;119.95341004799597;
4.0;m;004_o_m_h_a.jpg;happy;9.0;happy_25.1ns.avi;happy;9.0;congruent;120.0;150.0;216.63044503818386;h_h;;;;;0;37;37;37;;;;;;;496.06641440000385;None;498.1079749999917;498.42471440002555;499.574752799992;499.5913884000038;503.2498171000043;None;None;0;503.2498171000043;None;;;;;;;;5;;;;;;;;504.80786430003354;None;None;None;[];504.80786430003354;None;"['9', '7']";"[0.4021582000423223, 0.8740500000421889]";504.80786430003354;None;;;S11078;2021_Dec_03_1521;VideoMask;2021.1.2;119.95341004799597;
4.0;m;004_o_m_s_a.jpg;sad;7.0;happy_131.2.wmv;happy;9.0;incongruent;130.0;150.0;181.38407540847405;s_h;;;;;0;38;38;38;;;;;;;507.80784640001366;None;509.549353600014;509.8660264000064;510.99917120003374;511.01591210003244;512.9994729000027;None;9;0;512.9994729000027;None;;;;;;;;6;;;;;0.9221116999979131;;;514.5492459000088;None;None;None;[];514.5492459000088;None;"['9', '9']";"[0.44394910003757104, 1.1561484000412747]";514.5492459000088;None;;;S11078;2021_Dec_03_1521;VideoMask;2021.1.2;119.95341004799597;
0.0;f;040_y_f_h_a.jpg;happy;9.0;happy_24.3ns.avi;happy;9.0;congruent;120.0;150.0;213.25460698950434;h_h;;;;;0;39;39;39;;;;;;;517.5493340999819;None;519.5239970000111;519.8408882999793;520.9914277000353;521.0080042000045;522.8990183999995;None;9;0;522.8990183999995;None;;;;;;;;6;;;;;1.334353199985344;;;524.6656245000195;None;None;None;[];524.6656245000195;None;['9'];[0.8475479000480846];524.6656245000195;None;;;S11078;2021_Dec_03_1521;VideoMask;2021.1.2;119.95341004799597;
2.0;f;012_o_f_s_a.jpg;sad;7.0;happy_139.1.wmv;happy;9.0;incongruent;130.0;150.0;162.31500468041804;s_h;;;;;0;40;40;40;;;;;;;527.6656958999811;None;529.2320761000155;529.5487648000126;530.6821535000345;530.6988289000001;532.6821021999931;None;9;0;532.6821021999931;None;;;;;;;;6;;;;;1.0553880999796093;;;534.2320528000128;None;None;None;[];534.2320528000128;None;['9'];[1.2093186000129208];534.2320528000128;None;;;S11078;2021_Dec_03_1521;VideoMask;2021.1.2;119.95341004799597;
0.0;f;030_o_f_h_a.jpg;happy;9.0;happy_24.1ns.avi;happy;9.0;congruent;120.0;150.0;168.36256624020774;h_h;;;;;0;41;41;41;;;;;;;537.2403479000204;None;538.8650775999995;539.1818054000032;540.3402227000333;540.3568414000329;543.6483788000187;None;9;0;543.6483788000187;None;;;;;;;;5;;;;;1.056941499991808;;;545.4483658000245;None;None;None;[];545.4483658000245;None;None;;545.4483658000245;None;;;S11078;2021_Dec_03_1521;VideoMask;2021.1.2;119.95341004799597;
2.0;f;012_o_f_h_a.jpg;happy;9.0;sad_113.1.wmv;sad;7.0;incongruent;120.0;160.0;177.44551734737394;h_s;;;;;0;42;42;42;;;;;;;548.4815974999801;None;550.1731772000203;550.4898034000071;551.6230829000124;551.6398537000059;553.6231616000296;None;7;0;553.6231616000296;None;;;;;;;;4;;;;;0.8503324000048451;;;555.1730928000179;None;None;None;[];555.1730928000179;None;['7'];[1.9004478999995627];555.1730928000179;None;;;S11078;2021_Dec_03_1521;VideoMask;2021.1.2;119.95341004799597;
3.0;m;033_o_m_s_a.jpg;sad;7.0;sad_64.5ns.avi;sad;7.0;congruent;130.0;160.0;130.55717223801247;s_s;;;;;0;43;43;43;;;;;;;558.1729863000219;None;559.4978052999941;559.8151373000001;561.014648100012;561.0312391000334;567.531714199984;None;7;0;567.531714199984;None;;;;;;;;2;;;;;0.6857205999549478;;;569.2643035000074;None;None;None;[];569.2643035000074;None;"['7', '7', '7']";"[0.033009600010700524, 0.5130836000316776, 1.4813965000212193]";569.2643035000074;None;;;S11078;2021_Dec_03_1521;VideoMask;2021.1.2;119.95341004799597;
7.0;m;027_o_m_h_a.jpg;happy;9.0;sad_117.1.wmv;sad;7.0;incongruent;120.0;160.0;181.28665202824095;h_s;;;;;0;44;44;44;;;;;;;572.2726251999848;None;574.0140041999985;574.3308647000231;575.47250730003;575.4891414000303;577.4645228000009;None;7;0;577.4645228000009;None;;;;;;;;4;;;;;1.0648668999783695;;;579.0140030999901;None;None;None;[];579.0140030999901;None;"['7', '7', '7']";"[0.7955167999607511, 1.411441800009925, 2.3395161000080407]";579.0140030999901;None;;;S11078;2021_Dec_03_1521;VideoMask;2021.1.2;119.95341004799597;
3.0;m;033_o_m_s_a.jpg;sad;7.0;happy_126.3.wmv;happy;9.0;incongruent;130.0;150.0;198.85252030535366;s_h;;;;;0;45;45;45;;;;;;;582.0143105000025;None;583.9055341000203;584.2220708000241;585.3553573000245;585.3719562999904;587.3555769000086;None;9;0;587.3555769000086;None;;;;;;;;6;;;;;1.109786300046835;;;588.9051704999874;None;None;None;[];588.9051704999874;None;['9'];[0.7122683000052348];588.9051704999874;None;;;S11078;2021_Dec_03_1521;VideoMask;2021.1.2;119.95341004799597;
3.0;m;033_o_m_h_a.jpg;happy;9.0;sad_136.1.wmv;sad;7.0;incongruent;120.0;160.0;176.97002883463455;h_s;;;;;0;46;46;46;;;;;;;591.9138012999902;None;593.6134415999986;593.9302395000122;595.0552821999881;595.0717876999988;597.0634487000061;None;7;0;597.0634487000061;None;;;;;;;;4;;;;;1.065939599997364;;;598.6134332999936;None;None;None;[];598.6134332999936;None;['7'];[0.5400844999821857];598.6134332999936;None;;;S11078;2021_Dec_03_1521;VideoMask;2021.1.2;119.95341004799597;
9.0;f;019_m_f_h_a.jpg;happy;9.0;happy_10.1ns.avi;happy;9.0;congruent;120.0;150.0;157.2463435658512;h_h;;;;;0;47;47;47;;;;;;;601.6218103999854;None;603.1964208999998;603.5132702999981;604.6799391999957;604.696577100025;612.1047924000304;None;9;0;612.1047924000304;None;;;;;;;;5;;;;;1.4644738000351936;;;613.6628830999834;None;None;None;[];613.6628830999834;None;None;;613.6628830999834;None;;;S11078;2021_Dec_03_1521;VideoMask;2021.1.2;119.95341004799597;
2.0;f;012_o_f_h_a.jpg;happy;9.0;happy_2.2ns.avi;happy;9.0;congruent;120.0;150.0;206.34800317295262;h_h;;;;;0;48;48;48;;;;;;;616.6879048999981;None;618.6876457000035;619.004451100016;620.1460273999837;620.1627561000059;632.3377462999779;None;9;0;632.3377462999779;None;;;;;;;;5;;;;;0.8958137000445276;;;633.9207011000253;None;None;None;[];633.9207011000253;None;None;;633.9207011000253;None;;;S11078;2021_Dec_03_1521;VideoMask;2021.1.2;119.95341004799597;
3.0;m;033_o_m_h_a.jpg;happy;9.0;happy_24.2ns.avi;happy;9.0;congruent;120.0;150.0;167.9423847659953;h_h;;;;;0;49;49;49;;;;;;;636.9456754000275;None;638.5788408999797;638.8954514000216;640.0205406000023;640.0371409999789;643.7538397000171;None;9;0;643.7538397000171;None;;;;;;;;5;;;;;1.1435661999857984;;;645.3036713000038;None;None;None;[];645.3036713000038;None;None;;645.3036713000038;None;;;S11078;2021_Dec_03_1521;VideoMask;2021.1.2;119.95341004799597;
1.0;f;021_o_f_s_a.jpg;sad;7.0;happy_61.2ns.avi;happy;9.0;incongruent;130.0;150.0;210.94664004826666;s_h;;;;;0;50;50;50;;;;;;;648.3286055999924;None;650.3284100000164;650.6451807999983;651.8458756000036;651.8786542000016;656.3036027000053;None;9;0;656.3036027000053;None;;;;;;;;6;;;;;0.9298876000102609;;;657.8533237000229;None;None;None;[];657.8533237000229;None;['9'];[1.4202354999724776];657.8533237000229;None;;;S11078;2021_Dec_03_1521;VideoMask;2021.1.2;119.95341004799597;
4.0;m;004_o_m_s_a.jpg;sad;7.0;sad_2.4ns.avi;sad;7.0;congruent;130.0;160.0;153.02079367163634;s_s;;;;;0;51;51;51;;;;;;;660.8616645000293;None;662.3862943000277;662.7031186000095;663.8868082999834;663.9115065999795;671.8033512000111;None;7;0;671.8033512000111;None;;;;;;;;4;;;;;0.8299919000128284;;;673.6610847000265;None;None;None;[];673.6610847000265;None;['7'];[2.6844744999543764];673.6610847000265;None;;;S11078;2021_Dec_03_1521;VideoMask;2021.1.2;119.95341004799597;
8.0;m;008_y_m_h_a.jpg;happy;9.0;happy_1.2ns.avi;happy;9.0;congruent;120.0;150.0;210.98946429383824;h_h;;;;;0;52;52;52;;;;;;;676.6610354000004;None;678.7024943000288;679.0193001999869;680.1942742000101;680.2109412000282;692.9523012000136;None;9;0;692.9523012000136;None;;;;;;;;7;;;;;1.273102699953597;;;694.5021605999791;None;None;None;[];694.5021605999791;None;"['9', '9', '9']";"[0.6033379000145942, 1.0190958000021055, 1.443302900006529]";694.5021605999791;None;;;S11078;2021_Dec_03_1521;VideoMask;2021.1.2;119.95341004799597;
2.0;f;012_o_f_s_a.jpg;sad;7.0;happy_52.2ns.avi;happy;9.0;incongruent;130.0;150.0;172.57202848318138;s_h;;;;;0;53;53;53;;;;;;;697.5022341000149;None;699.1686355000129;699.4852977999835;700.6434669999871;700.6601313999854;704.1852311000112;None;9;0;704.1852311000112;None;;;;;;;;7;;;;;0.9921749999630265;;;705.7352008000016;None;None;None;[];705.7352008000016;None;"['9', '9']";"[0.47437820001505315, 1.0983038000413217]";705.7352008000016;None;;;S11078;2021_Dec_03_1521;VideoMask;2021.1.2;119.95341004799597;
9.0;f;019_m_f_s_a.jpg;sad;7.0;happy_61.1ns.avi;happy;9.0;incongruent;130.0;150.0;181.3003220572762;s_h;;;;;0;54;54;54;;;;;;;708.7519524000236;None;710.5351054000203;710.8515538999927;712.0264173999894;712.0433053000015;719.3766989000142;None;8;0;719.3766989000142;None;;;;;;;;5;;;;;0.6248418999603018;;;721.0013465000084;None;None;None;[];721.0013465000084;None;None;;721.0013465000084;None;;;S11078;2021_Dec_03_1521;VideoMask;2021.1.2;119.95341004799597;
0.0;f;030_o_f_h_a.jpg;happy;9.0;sad_133.1.wmv;sad;7.0;incongruent;120.0;160.0;198.86251500867985;h_s;;;;;0;55;55;55;;;;;;;724.0263432000065;None;725.9094306000043;726.2261611000285;727.3512638999964;727.3679090000223;729.3596011000336;None;7;0;729.3596011000336;None;;;;;;;;3;;;;;1.1379353000083938;;;730.9011047999957;None;None;None;[];730.9011047999957;None;"['7', '7']";"[0.5881727999658324, 2.2766197999590077]";730.9011047999957;None;;;S11078;2021_Dec_03_1521;VideoMask;2021.1.2;119.95341004799597;
0.0;f;040_y_f_h_a.jpg;happy;9.0;sad_128.2.wmv;sad;7.0;incongruent;120.0;160.0;206.10005857915363;h_s;;;;;0;56;56;56;;;;;;;733.9095228000078;None;735.8591467000078;736.1758611000259;737.30929439998;737.3258020000067;739.3093088000314;None;7;0;739.3093088000314;None;;;;;;;;4;;;;;0.7322740000090562;;;740.8591326000169;None;None;None;[];740.8591326000169;None;['7'];[1.862390200025402];740.8591326000169;None;;;S11078;2021_Dec_03_1521;VideoMask;2021.1.2;119.95341004799597;
1.0;f;021_o_f_s_a.jpg;sad;7.0;sad_9.5ns.avi;sad;7.0;congruent;130.0;160.0;206.16642757875042;s_s;;;;;0;57;57;57;;;;;;;743.867404700024;None;745.8088163000066;746.1256931999815;747.2840456999838;747.3006319000269;752.9838732000208;None;7;0;752.9838732000208;None;;;;;;;;3;;;;;0.7295376000110991;;;754.5336995000253;None;None;None;[];754.5336995000253;None;"['7', '7']";"[0.32402410003123805, 0.7956164000206627]";754.5336995000253;None;;;S11078;2021_Dec_03_1521;VideoMask;2021.1.2;119.95341004799597;
1.0;f;021_o_f_h_a.jpg;happy;9.0;happy_12.1ns.avi;happy;9.0;congruent;120.0;150.0;132.59080005900228;h_h;;;;;0;58;58;58;;;;;;;757.533724399982;None;758.8835733000305;759.2000917000114;760.3249445999973;760.3420585999847;767.950750900025;None;8;0;767.950750900025;None;;;;;;;;5;;;;;0.5788323999731801;;;769.5082680000341;None;None;None;[];769.5082680000341;None;None;;769.5082680000341;None;;;S11078;2021_Dec_03_1521;VideoMask;2021.1.2;119.95341004799597;
3.0;m;013_y_m_s_a.jpg;sad;7.0;happy_56.2ns.avi;happy;9.0;incongruent;130.0;150.0;163.39234110935848;s_h;;;;;0;59;59;59;;;;;;;772.5413493000087;None;774.1412895999965;774.4581526999827;775.6413549000281;775.6580780000077;780.6162678999826;None;8;0;780.6162678999826;None;;;;;;;;5;;;;;1.2172176000312902;;;782.1662172999931;None;None;None;[];782.1662172999931;None;None;;782.1662172999931;None;;;S11078;2021_Dec_03_1521;VideoMask;2021.1.2;119.95341004799597;
;;;;;;;;;;;;;;;;;;;;;;;;;;;;;;;;;;;;;;;;;;;;;;;;;;;;;;;;;;;;;;;;;785.1911405000137;None;;;;;;
