primePerson;primeGender;prime;primeEmotion;corrAnsPrime;target;targetEmotion;corrAnsTar;Cond;ID_Primer;ID_Target;JitterTime;Condition;example.thisRepN;example.thisTrialN;example.thisN;example.thisIndex;study.thisRepN;study.thisTrialN;study.thisN;study.thisIndex;MR_trigger_time;MR_trigger_number;text_intro.started;text_intro.stopped;text_probe.started;text_probe.stopped;polygon_ISI.started;polygon_ISI.stopped;polygon.started;polygon.stopped;primerImage.started;primerImage.stopped;response.started;response.stopped;key_resp.keys;key_resp.corr;key_resp.started;key_resp.stopped;slider_Text.started;slider_Text.stopped;slider_ex.response;slider_ex.rt;slider_ex.history;slider_ex.started;slider_ex.stopped;Rating;slider_resp_response.keys;slider_resp_response.started;slider_resp_response.stopped;key_resp.rt;slider_resp_response.rt;text_start.started;text_start.stopped;text_slider.started;text_slider.stopped;slider_stud.response;slider_stud.rt;slider_stud.history;slider_stud.started;slider_stud.stopped;slider_resp_study.keys;slider_resp_study.rt;slider_resp_study.started;slider_resp_study.stopped;text_ende.started;text_ende.stopped;participant;date;expName;psychopyVersion;frameRate;
1111;m;1111_m_m_h_a.jpg;happy;9;example_30.4ns.avi;neutral;7;incongruent;120.0;170.0;189.5874364012288;;0;0;0;0;;;;;22.611731999961194;1;22.68925739999395;24.689443500014022;24.689443500014022;None;26.705925299960654;None;28.914880299998913;29.230883300013375;30.38917089998722;30.405870599963237;34.72244679997675;None;None;0;34.72244679997675;None;36.27218269999139;None;None;None;[];36.27218269999139;None;5;None;36.27218269999139;None;;;;;;;;;;;;;;;;;;S11155;2022_Jan_17_1216;VideoMask;2021.1.2;120.0493162712775;
1113;f;1113_y_f_s_a.jpg;sad;7;example_30.3ns.avi;neutral;7;incongruent;130.0;170.0;229.02432995836998;;0;1;1;1;;;;;;;;;;;39.297111799998675;None;41.41389749996597;41.73048849997576;42.855460899998434;42.87220609997166;44.86399230000097;None;9;0;44.86399230000097;None;46.41371359996265;None;None;None;[];46.41371359996265;None;6;['9'];46.41371359996265;None;1.1958795000100508;[0.742216799990274];;;;;;;;;;;;;;;;S11155;2022_Jan_17_1216;VideoMask;2021.1.2;120.0493162712775;
9.0;f;019_m_f_h_a.jpg;happy;9.0;sad_115.1.wmv;sad;7.0;incongruent;120.0;160.0;128.09063432376465;h_s;;;;;0;0;0;0;;;;;;;50.446966199961025;None;51.721792399999686;52.03857859998243;53.171704399981536;53.19684910000069;55.17194719996769;None;7;0;55.17194719996769;None;;;;;;;;3;;;;0.7118632000056095;;49.41363570000976;None;56.721693700004835;None;None;None;[];56.721693700004835;None;"['7', '7']";"[0.8263615000178106, 1.4262155999895185]";56.721693700004835;None;;;S11155;2022_Jan_17_1216;VideoMask;2021.1.2;120.0493162712775;
3.0;m;033_o_m_s_a.jpg;sad;7.0;sad_94.2ns.avi;sad;7.0;congruent;130.0;160.0;182.29120173647655;s_s;;;;;0;1;1;1;;;;;;;59.7302495999611;None;61.43811310001183;61.75488859997131;62.95502729999134;62.97159129998181;65.57981560000917;None;7;0;65.57981560000917;None;;;;;;;;2;;;;0.6400805999874137;;;;67.12978109996766;None;None;None;[];67.12978109996766;None;"['7', '7', '7', '7']";"[0.5700323000201024, 1.0022593999747187, 1.5540442999918014, 2.1139971999800764]";67.12978109996766;None;;;S11155;2022_Jan_17_1216;VideoMask;2021.1.2;120.0493162712775;
8.0;m;008_y_m_h_a.jpg;happy;9.0;happy_26.1ns.avi;happy;9.0;congruent;120.0;150.0;155.9437854594882;h_h;;;;;0;2;2;2;;;;;;;70.13807639997685;None;71.62113280000631;71.93798980000429;73.10438500001328;73.12128859997028;75.06304859998636;None;9;0;75.06304859998636;None;;;;;;;;6;;;;1.1653003999963403;;;;76.64615970000159;None;None;None;[];76.64615970000159;None;['9'];[0.6216516999993473];76.64615970000159;None;;;S11155;2022_Jan_17_1216;VideoMask;2021.1.2;120.0493162712775;
0.0;f;040_y_f_h_a.jpg;happy;9.0;sad_138.1.wmv;sad;7.0;incongruent;120.0;160.0;133.99071306426532;h_s;;;;;0;3;3;3;;;;;;;79.64619980001589;None;80.96257739997236;81.27928839996457;82.41257889999542;82.4293477999745;84.41273470001761;None;7;0;84.41273470001761;None;;;;;;;;4;;;;1.1030812000390142;;;;85.96256399998674;None;None;None;[];85.96256399998674;None;['7'];[0.8335008999565616];85.96256399998674;None;;;S11155;2022_Jan_17_1216;VideoMask;2021.1.2;120.0493162712775;
8.0;f;028_y_f_s_a.jpg;sad;7.0;sad_64.2ns.avi;sad;7.0;congruent;130.0;160.0;229.88540597086478;s_s;;;;;0;4;4;4;;;;;;;88.96262189996196;None;91.12056479998864;91.43732650001766;92.62904490000801;92.64559739996912;103.57044300000416;None;7;0;103.57044300000416;None;;;;;;;;1;;;;0.5535002999822609;;;;105.12034839997068;None;None;None;[];105.12034839997068;None;"['7', '7', '7', '7']";"[0.4674739000038244, 0.7552820999990217, 1.0115297000156716, 1.2994912000140175]";105.12034839997068;None;;;S11155;2022_Jan_17_1216;VideoMask;2021.1.2;120.0493162712775;
7.0;m;027_o_m_s_a.jpg;sad;7.0;sad_10.4ns.avi;sad;7.0;congruent;130.0;160.0;185.20129417468752;s_s;;;;;0;5;5;5;;;;;;;108.12040369998431;None;109.8616421999759;110.1783547999803;111.33685690001585;111.35346139996545;114.47838039998896;None;7;0;114.47838039998896;None;;;;;;;;1;;;;0.6135276000131853;;;;116.02833499998087;None;None;None;[];116.02833499998087;None;"['7', '7', '7', '7']";"[0.4155216999934055, 0.7752940999926068, 1.0473589999601245, 1.5676204999908805]";116.02833499998087;None;;;S11155;2022_Jan_17_1216;VideoMask;2021.1.2;120.0493162712775;
2.0;f;012_o_f_s_a.jpg;sad;7.0;sad_7.5ns.avi;sad;7.0;congruent;130.0;160.0;220.27842655424388;s_s;;;;;0;6;6;6;;;;;;;119.03665620001266;None;121.07030769996345;121.38656630000332;122.56152409996139;122.57819440000458;125.31156100000953;None;7;0;125.31156100000953;None;;;;;;;;3;;;;0.5963114000041969;;;;126.86963689996628;None;None;None;[];126.86963689996628;None;"['7', '7']";"[0.5744997999863699, 0.9584095000172965]";126.86963689996628;None;;;S11155;2022_Jan_17_1216;VideoMask;2021.1.2;120.0493162712775;
2.0;f;012_o_f_h_a.jpg;happy;9.0;happy_27.1ns.avi;happy;9.0;congruent;120.0;150.0;146.44967055810616;h_h;;;;;0;7;7;7;;;;;;;129.878063799988;None;131.29444019997027;131.61124339996604;132.78661349997856;132.81119849998504;135.23620350001147;None;9;0;135.23620350001147;None;;;;;;;;7;;;;0.5916295999777503;;;;136.80273319996195;None;None;None;[];136.80273319996195;None;"['9', '9']";"[0.4172763000242412, 0.8811576999723911]";136.80273319996195;None;;;S11155;2022_Jan_17_1216;VideoMask;2021.1.2;120.0493162712775;
8.0;f;028_y_f_h_a.jpg;happy;9.0;sad_119.1.wmv;sad;7.0;incongruent;120.0;160.0;148.71526953572538;h_s;;;;;0;8;8;8;;;;;;;139.8026349999709;None;141.24406960001215;141.560908799991;142.69462799996836;142.71940539998468;144.76086919999216;None;7;0;144.76086919999216;None;;;;;;;;3;;;;0.6430643000057898;;;;146.3107743000146;None;None;None;[];146.3107743000146;None;"['7', '7']";"[0.5330989999929443, 0.9330823000054806]";146.3107743000146;None;;;S11155;2022_Jan_17_1216;VideoMask;2021.1.2;120.0493162712775;
6.0;m;016_y_m_s_a.jpg;sad;7.0;happy_60.4ns.avi;happy;9.0;incongruent;130.0;150.0;126.02367393611817;s_h;;;;;0;9;9;9;;;;;;;149.31920839997474;None;150.5771534999949;150.89402409998002;152.02731259999564;152.04394100001082;157.81876880000345;None;9;0;157.81876880000345;None;;;;;;;;8;;;;0.46519280003849417;;;;159.3687048999709;None;None;None;[];159.3687048999709;None;"['9', '9', '9']";"[0.45133319997694343, 0.8592481999658048, 1.731219900015276]";159.3687048999709;None;;;S11155;2022_Jan_17_1216;VideoMask;2021.1.2;120.0493162712775;
9.0;f;019_m_f_s_a.jpg;sad;7.0;sad_8.4ns.avi;sad;7.0;congruent;130.0;160.0;171.6633093155257;s_s;;;;;0;10;10;10;;;;;;;162.36871909996262;None;164.03512720001163;164.3518549000146;165.53551439999137;165.55192729999544;173.61842509999406;None;7;0;173.61842509999406;None;;;;;;;;2;;;;0.4894992999616079;;;;175.16824199998518;None;None;None;[];175.16824199998518;None;"['7', '7', '7']";"[0.4197438999544829, 0.6995237999944948, 1.2675987999537028]";175.16824199998518;None;;;S11155;2022_Jan_17_1216;VideoMask;2021.1.2;120.0493162712775;
4.0;m;004_o_m_h_a.jpg;happy;9.0;happy_1.1ns.avi;happy;9.0;congruent;120.0;150.0;203.50057144619865;h_h;;;;;0;11;11;11;;;;;;;178.16823539999314;None;180.14295050001238;180.4597626000177;181.6264017999638;181.64307619998;196.07589779997943;None;9;0;196.07589779997943;None;;;;;;;;7;;;;0.5519969000015408;;;;197.62590440001804;None;None;None;[];197.62590440001804;None;"['9', '9']";"[0.7222696000244468, 1.4580537999863736]";197.62590440001804;None;;;S11155;2022_Jan_17_1216;VideoMask;2021.1.2;120.0493162712775;
7.0;m;027_o_m_h_a.jpg;happy;9.0;happy_20.1ns.avi;happy;9.0;congruent;120.0;150.0;152.91127178874285;h_h;;;;;0;12;12;12;;;;;;;200.62576239998452;None;202.10896589996992;202.42561949999072;203.55076020001434;203.56722029997036;206.5756742999656;None;9;0;206.5756742999656;None;;;;;;;;8;;;;0.5402241999981925;;;;208.1255305999657;None;None;None;[];208.1255305999657;None;"['9', '9', '9']";"[0.4545915999915451, 0.8382201999775134, 1.1423764000064693]";208.1255305999657;None;;;S11155;2022_Jan_17_1216;VideoMask;2021.1.2;120.0493162712775;
0.0;f;040_y_f_s_a.jpg;sad;7.0;sad_94.3ns.avi;sad;7.0;congruent;130.0;160.0;155.27414203894395;s_s;;;;;0;13;13;13;;;;;;;211.13389910000842;None;212.62535489996662;212.94206719996873;214.13347160001285;214.15027169999667;216.70042409998132;None;None;0;216.70042409998132;None;;;;;;;;3;;;;;;;;218.26679139997577;None;None;None;[];218.26679139997577;None;"['7', '7']";"[10.110313899989706, 0.6250618000049144]";218.26679139997577;None;;;S11155;2022_Jan_17_1216;VideoMask;2021.1.2;120.0493162712775;
0.0;f;030_o_f_s_a.jpg;sad;7.0;sad_68.1ns.avi;sad;7.0;congruent;130.0;160.0;158.9411396037211;s_s;;;;;0;14;14;14;;;;;;;221.25038149999455;None;222.8001765999943;223.11679000000004;224.2669043999631;224.28345340001397;231.67498219996924;None;7;0;231.67498219996924;None;;;;;;;;3;;;;1.0968777000089176;;;;233.22484629997052;None;None;None;[];233.22484629997052;None;"['7', '7']";"[0.8675385999958962, 1.3709090999909677]";233.22484629997052;None;;;S11155;2022_Jan_17_1216;VideoMask;2021.1.2;120.0493162712775;
0.0;f;030_o_f_h_a.jpg;happy;9.0;sad_127.1.wmv;sad;7.0;incongruent;120.0;160.0;180.59976631384873;h_s;;;;;0;15;15;15;;;;;;;236.2249289000174;None;237.93291679996764;238.24968429998262;239.37459259998286;239.39121139998315;241.38316550001036;None;8;0;241.38316550001036;None;;;;;;;;4;;;;0.8287568000378087;;;;242.93295059999218;None;None;None;[];242.93295059999218;None;['7'];[1.4311263999552466];242.93295059999218;None;;;S11155;2022_Jan_17_1216;VideoMask;2021.1.2;120.0493162712775;
8.0;m;008_y_m_s_a.jpg;sad;7.0;happy_133.3.wmv;happy;9.0;incongruent;130.0;150.0;152.577966552593;s_h;;;;;0;16;16;16;;;;;;;245.93294139998034;None;247.4161304999725;247.73272079997696;248.86602989997482;248.88275950000389;250.8660721000051;None;9;0;250.8660721000051;None;;;;;;;;8;;;;0.546094199991785;;;;252.4158701999695;None;None;None;[];252.4158701999695;None;"['9', '9', '9']";"[0.5642248999793082, 0.9244330999790691, 1.3882255000062287]";252.4158701999695;None;;;S11155;2022_Jan_17_1216;VideoMask;2021.1.2;120.0493162712775;
3.0;m;033_o_m_h_a.jpg;happy;9.0;sad_128.1.wmv;sad;7.0;incongruent;120.0;160.0;171.0492454518585;h_s;;;;;0;17;17;17;;;;;;;255.41586369997822;None;257.05735919997096;257.3739373999997;258.50725089997286;258.52390639996156;260.5073791000177;None;7;0;260.5073791000177;None;;;;;;;;3;;;;0.5608749000239186;;;;262.0573590999702;None;None;None;[];262.0573590999702;None;"['7', '7']";"[0.5865665000164881, 0.9867609000066295]";262.0573590999702;None;;;S11155;2022_Jan_17_1216;VideoMask;2021.1.2;120.0493162712775;
1.0;f;021_o_f_h_a.jpg;happy;9.0;sad_116.1.wmv;sad;7.0;incongruent;120.0;160.0;184.06847610053055;h_s;;;;;0;18;18;18;;;;;;;265.0573375999811;None;266.8070796999964;267.1237965999753;268.2904668999836;268.30715690000216;270.2572121999692;None;7;0;270.2572121999692;None;;;;;;;;3;;;;0.8988619000301696;;;;271.81529930001125;None;None;None;[];271.81529930001125;None;"['7', '7']";"[0.4926778000080958, 0.820550300006289]";271.81529930001125;None;;;S11155;2022_Jan_17_1216;VideoMask;2021.1.2;120.0493162712775;
4.0;m;004_o_m_s_a.jpg;sad;7.0;happy_28.1ns.avi;happy;9.0;incongruent;130.0;150.0;157.40741103039684;s_h;;;;;0;19;19;19;;;;;;;274.82365739997476;None;276.3401952999993;276.65688450000016;277.8401808000053;277.85688069998287;282.1819642999908;None;9;0;282.1819642999908;None;;;;;;;;9;;;;0.5659424000186846;;;;283.73169809998944;None;None;None;[];283.73169809998944;None;"['9', '9', '9', '9', '9']";"[0.3525457999785431, 0.6881950999959372, 0.9762071999721229, 1.2484571999520995, 1.7123955999850295]";283.73169809998944;None;;;S11155;2022_Jan_17_1216;VideoMask;2021.1.2;120.0493162712775;
8.0;f;028_y_f_s_a.jpg;sad;7.0;happy_122.3.wmv;happy;9.0;incongruent;130.0;150.0;171.8670540936116;s_h;;;;;0;20;20;20;;;;;;;286.7316192999715;None;288.37312319997;288.68976320000365;289.83155379997334;289.8481738999835;291.82331800000975;None;9;0;291.82331800000975;None;;;;;;;;9;;;;0.6047013000352308;;;;293.3731313999742;None;None;None;[];293.3731313999742;None;"['9', '9', '9', '9']";"[0.42280549998395145, 0.767481199989561, 1.0630363000091165, 1.4790525999851525]";293.3731313999742;None;;;S11155;2022_Jan_17_1216;VideoMask;2021.1.2;120.0493162712775;
8.0;m;008_y_m_s_a.jpg;sad;7.0;sad_6.5ns.avi;sad;7.0;congruent;130.0;160.0;170.39333839271438;s_s;;;;;0;21;21;21;;;;;;;296.381402399973;None;298.01479380001547;298.3312573999865;299.5145349999657;299.53121909999754;304.4643741999753;None;7;0;304.4643741999753;None;;;;;;;;3;;;;0.539807999972254;;;;306.0059023000067;None;None;None;[];306.0059023000067;None;"['7', '7']";"[0.4702486000023782, 0.8061059000319801]";306.0059023000067;None;;;S11155;2022_Jan_17_1216;VideoMask;2021.1.2;120.0493162712775;
8.0;f;028_y_f_h_a.jpg;happy;9.0;happy_23.1ns.avi;happy;9.0;congruent;120.0;150.0;225.70986890587952;h_h;;;;;0;22;22;22;;;;;;;309.006094100012;None;311.08909640001366;311.40577800001483;312.5478915999993;312.5723356999806;317.11411939997924;None;9;0;317.11411939997924;None;;;;;;;;9;;;;0.5941799000138417;;;;318.6639067999786;None;None;None;[];318.6639067999786;None;"['9', '9', '9', '9', '9']";"[0.49214379995828494, 0.8442881999653764, 1.1720244999742135, 1.5482100999797694, 2.060148299962748]";318.6639067999786;None;;;S11155;2022_Jan_17_1216;VideoMask;2021.1.2;120.0493162712775;
8.0;m;008_y_m_h_a.jpg;happy;9.0;sad_111.1.wmv;sad;7.0;incongruent;120.0;160.0;152.63076835312847;h_s;;;;;0;23;23;23;;;;;;;321.66398760001175;None;323.1387352999882;323.45543239999097;324.5887469999725;324.6055081000086;326.5888341999962;None;7;0;326.5888341999962;None;;;;;;;;4;;;;0.47161260002758354;;;;328.28865639999276;None;None;None;[];328.28865639999276;None;['7'];[0.5394534000079148];328.28865639999276;None;;;S11155;2022_Jan_17_1216;VideoMask;2021.1.2;120.0493162712775;
0.0;f;040_y_f_s_a.jpg;sad;7.0;sad_67.2ns.avi;sad;7.0;congruent;130.0;160.0;220.9892697323079;s_s;;;;;0;24;24;24;;;;;;;331.28860669996357;None;333.3467131999787;333.6634762000176;334.78857079998124;334.80518049997045;344.0216740000178;None;7;0;344.0216740000178;None;;;;;;;;2;;;;0.470420700032264;;;;345.571524399973;None;None;None;[];345.571524399973;None;"['7', '7', '7']";"[0.3525985999731347, 0.6726147999870591, 1.4165558000095189]";345.571524399973;None;;;S11155;2022_Jan_17_1216;VideoMask;2021.1.2;120.0493162712775;
8.0;m;008_y_m_s_a.jpg;sad;7.0;happy_29.1ns.avi;happy;9.0;incongruent;130.0;150.0;120.0316142834122;s_h;;;;;0;25;25;25;;;;;;;348.57154729997274;None;349.7712093999726;350.0877448999672;351.2380328999716;351.2553763000178;353.9130252000177;None;9;0;353.9130252000177;None;;;;;;;;8;;;;0.47523700003512204;;;;355.4712201000075;None;None;None;[];355.4712201000075;None;"['9', '9', '9']";"[0.6129604000016116, 0.9574066000059247, 1.244610499998089]";355.4712201000075;None;;;S11155;2022_Jan_17_1216;VideoMask;2021.1.2;120.0493162712775;
6.0;m;016_y_m_s_a.jpg;sad;7.0;sad_8.3ns.avi;sad;7.0;congruent;130.0;160.0;152.85371098242734;s_s;;;;;0;26;26;26;;;;;;;358.4794643999776;None;359.9626233999734;360.27938469999935;361.47088360000635;361.4877270999714;369.17083889996866;None;7;0;369.17083889996866;None;;;;;;;;3;;;;0.8092378000146709;;;;370.72078039997723;None;None;None;[];370.72078039997723;None;"['7', '7']";"[0.5793521999730729, 1.1872643000097014]";370.72078039997723;None;;;S11155;2022_Jan_17_1216;VideoMask;2021.1.2;120.0493162712775;
6.0;m;016_y_m_h_a.jpg;happy;9.0;sad_114.1.wmv;sad;7.0;incongruent;120.0;160.0;136.20550699298644;h_s;;;;;0;27;27;27;;;;;;;373.7291003999999;None;375.0792102999985;375.3955449999776;376.5206970999716;376.53721380000934;378.5288675999618;None;7;0;378.5288675999618;None;;;;;;;;2;;;;0.7953058999846689;;;;380.07881639996776;None;None;None;[];380.07881639996776;None;"['7', '7', '7', '7']";"[0.581191300007049, 0.8930983999744058, 1.2054655000101775, 1.5093630999908783]";380.07881639996776;None;;;S11155;2022_Jan_17_1216;VideoMask;2021.1.2;120.0493162712775;
7.0;m;027_o_m_s_a.jpg;sad;7.0;happy_117.3.wmv;happy;9.0;incongruent;130.0;150.0;215.61964028550614;s_h;;;;;0;28;28;28;;;;;;;383.08718520001275;None;385.0870339999674;385.4035523000057;386.5286514000036;386.54539310000837;388.53699749999214;None;9;0;388.53699749999214;None;;;;;;;;7;;;;1.0672512999735773;;;;390.0868565000128;None;None;None;[];390.0868565000128;None;"['9', '9']";"[0.7495069000287913, 1.8932979000383057]";390.0868565000128;None;;;S11155;2022_Jan_17_1216;VideoMask;2021.1.2;120.0493162712775;
6.0;m;016_y_m_h_a.jpg;happy;9.0;happy_9.2ns.avi;happy;9.0;congruent;120.0;150.0;130.52042428082717;h_h;;;;;0;29;29;29;;;;;;;393.08713369996985;None;394.3782466999837;394.69499799999176;395.9116953999619;395.92835229996126;401.75317159999395;None;9;0;401.75317159999395;None;;;;;;;;9;;;;0.49093699996592477;;;;403.31206829997245;None;None;None;[];403.31206829997245;None;"['9', '9', '9', '9']";"[0.4040800000075251, 0.7323045000084676, 1.0601957999751903, 1.6120027999859303]";403.31206829997245;None;;;S11155;2022_Jan_17_1216;VideoMask;2021.1.2;120.0493162712775;
0.0;f;040_y_f_s_a.jpg;sad;7.0;happy_127.3.wmv;happy;9.0;incongruent;130.0;150.0;131.7195455720239;s_h;;;;;0;30;30;30;;;;;;;406.3031050999998;None;407.60286449996056;407.9195993000176;409.0447053000098;409.06131819996517;411.11969469999894;None;9;0;411.11969469999894;None;;;;;;;;7;;;;0.6204090000246651;;;;412.669519099989;None;None;None;[];412.669519099989;None;"['9', '9']";"[0.41470849997131154, 0.8228493999922648]";412.669519099989;None;;;S11155;2022_Jan_17_1216;VideoMask;2021.1.2;120.0493162712775;
0.0;f;030_o_f_s_a.jpg;sad;7.0;happy_125.3.wmv;happy;9.0;incongruent;130.0;150.0;220.51454909128134;s_h;;;;;0;31;31;31;;;;;;;415.67788769997424;None;417.7275130999624;418.044296499982;419.177727399976;419.19427949999226;421.1776673999848;None;9;0;421.1776673999848;None;;;;;;;;7;;;;0.6185002999845892;;;;422.72763380000833;None;None;None;[];422.72763380000833;None;"['9', '9']";"[0.3565952000208199, 0.7805759999901056]";422.72763380000833;None;;;S11155;2022_Jan_17_1216;VideoMask;2021.1.2;120.0493162712775;
0.0;f;030_o_f_s_a.jpg;sad;7.0;sad_64.3ns.avi;sad;7.0;congruent;130.0;160.0;165.78667874766072;s_s;;;;;0;32;32;32;;;;;;;425.73572210001294;None;427.3356846999959;427.65259969996987;428.8523419999983;428.8689878999721;433.78648700000485;None;None;0;433.78648700000485;None;;;;;;;;4;;;;;;;;435.5359950999846;None;None;None;[];435.5359950999846;None;"['7', '7']";"[0.0763071000110358, 0.7802972000208683]";435.5359950999846;None;;;S11155;2022_Jan_17_1216;VideoMask;2021.1.2;120.0493162712775;
3.0;m;013_y_m_s_a.jpg;sad;7.0;sad_7.7ns.avi;sad;7.0;congruent;130.0;160.0;196.24182255763262;s_s;;;;;0;33;33;33;;;;;;;438.54386979999254;None;440.3851573999855;440.7024218000006;441.8517986999941;441.86865899997065;447.83520410000347;None;7;0;447.83520410000347;None;;;;;;;;3;;;;1.0569897000095807;;;;449.3850849000155;None;None;None;[];449.3850849000155;None;"['7', '7']";"[0.5472286000149325, 0.9074270999990404]";449.3850849000155;None;;;S11155;2022_Jan_17_1216;VideoMask;2021.1.2;120.0493162712775;
3.0;m;013_y_m_h_a.jpg;happy;9.0;happy_9.1ns.avi;happy;9.0;congruent;120.0;150.0;165.1890303600433;h_h;;;;;0;34;34;34;;;;;;;452.3933896999806;None;453.9765119999647;454.2932841000147;455.45988929999294;455.4765873000142;458.65145850001136;None;9;0;458.65145850001136;None;;;;;;;;8;;;;0.4488182000350207;;;;460.201447999978;None;None;None;[];460.201447999978;None;"['9', '9', '9', '9']";"[0.5068613999756053, 1.0109215999837033, 1.3466610999894328, 1.7548661999753676]";460.201447999978;None;;;S11155;2022_Jan_17_1216;VideoMask;2021.1.2;120.0493162712775;
4.0;m;004_o_m_h_a.jpg;happy;9.0;sad_95.1ns.avi;sad;7.0;incongruent;120.0;160.0;152.68270002069931;h_s;;;;;0;35;35;35;;;;;;;463.2097349999822;None;464.7183987000026;465.0347720999853;466.25966229999904;466.2762163999723;474.9597592999926;None;7;0;474.9597592999926;None;;;;;;;;3;;;;0.7242889999761246;;;;476.5259384000092;None;None;None;[];476.5259384000092;None;"['7', '7']";"[0.49438930000178516, 0.870229099993594]";476.5259384000092;None;;;S11155;2022_Jan_17_1216;VideoMask;2021.1.2;120.0493162712775;
3.0;m;013_y_m_h_a.jpg;happy;9.0;sad_113.2.wmv;sad;7.0;incongruent;120.0;160.0;217.4973891947951;h_s;;;;;0;36;36;36;;;;;;;479.5258693000069;None;481.5506133000017;481.86744999996154;483.00074789999053;483.01774719997775;485.00133539998205;None;8;0;485.00133539998205;None;;;;;;;;4;;;;1.0428920999984257;;;;486.550617699977;None;None;None;[];486.550617699977;None;['7'];[0.6215520999976434];486.550617699977;None;;;S11155;2022_Jan_17_1216;VideoMask;2021.1.2;120.0493162712775;
4.0;m;004_o_m_h_a.jpg;happy;9.0;happy_25.1ns.avi;happy;9.0;congruent;120.0;150.0;216.63044503818386;h_h;;;;;0;37;37;37;;;;;;;489.5507373000146;None;491.5587402000092;491.8754555999767;493.04271639999934;493.0591096999706;496.7006259000045;None;9;0;496.7006259000045;None;;;;;;;;7;;;;0.5755816000164486;;;;498.25865609996254;None;None;None;[];498.25865609996254;None;"['9', '9']";"[0.5054040999966674, 1.049507200019434]";498.25865609996254;None;;;S11155;2022_Jan_17_1216;VideoMask;2021.1.2;120.0493162712775;
4.0;m;004_o_m_s_a.jpg;sad;7.0;happy_131.2.wmv;happy;9.0;incongruent;130.0;150.0;181.38407540847405;s_h;;;;;0;38;38;38;;;;;;;501.26692159997765;None;502.98337410000386;503.3000428999658;504.4332695999765;504.450136200001;506.4334317999892;None;9;0;506.4334317999892;None;;;;;;;;8;;;;0.6188263999647461;;;;507.9833002999658;None;None;None;[];507.9833002999658;None;"['9', '9', '9']";"[0.42100290005328134, 0.8370227999985218, 2.340973300044425]";507.9833002999658;None;;;S11155;2022_Jan_17_1216;VideoMask;2021.1.2;120.0493162712775;
0.0;f;040_y_f_h_a.jpg;happy;9.0;happy_24.3ns.avi;happy;9.0;congruent;120.0;150.0;213.25460698950434;h_h;;;;;0;39;39;39;;;;;;;510.9916943999706;None;512.9580945000052;513.2748146000085;514.4666387999896;514.4831931999652;516.3331285999739;None;9;0;516.3331285999739;None;;;;;;;;7;;;;0.6550744999549352;;;;517.8831511000171;None;None;None;[];517.8831511000171;None;"['9', '9']";"[0.4097368000075221, 0.8172121000243351]";517.8831511000171;None;;;S11155;2022_Jan_17_1216;VideoMask;2021.1.2;120.0493162712775;
2.0;f;012_o_f_s_a.jpg;sad;7.0;happy_139.1.wmv;happy;9.0;incongruent;130.0;150.0;162.31500468041804;s_h;;;;;0;40;40;40;;;;;;;520.8913398999721;None;522.4495868000085;522.7660621000105;523.8993279999704;523.91606399999;525.916172199999;None;9;0;525.916172199999;None;;;;;;;;8;;;;0.5121273000258952;;;;527.4743207999854;None;None;None;[];527.4743207999854;None;"['9', '9', '9']";"[0.36204019997967407, 0.7460237999912351, 1.7942591999890283]";527.4743207999854;None;;;S11155;2022_Jan_17_1216;VideoMask;2021.1.2;120.0493162712775;
0.0;f;030_o_f_h_a.jpg;happy;9.0;happy_24.1ns.avi;happy;9.0;congruent;120.0;150.0;168.36256624020774;h_h;;;;;0;41;41;41;;;;;;;530.474259199982;None;532.08312939998;532.3991284999647;533.5742450999678;533.5908976999926;536.8574283999624;None;9;0;536.8574283999624;None;;;;;;;;8;;;;0.5310336999827996;;;;538.4073816000018;None;None;None;[];538.4073816000018;None;"['9', '9', '9']";"[0.34884560003411025, 0.7569338000030257, 1.2929424000321887]";538.4073816000018;None;;;S11155;2022_Jan_17_1216;VideoMask;2021.1.2;120.0493162712775;
2.0;f;012_o_f_h_a.jpg;happy;9.0;sad_113.1.wmv;sad;7.0;incongruent;120.0;160.0;177.44551734737394;h_s;;;;;0;42;42;42;;;;;;;541.4075242999825;None;543.0905579999671;543.407295699988;544.5405045999796;544.5572733000154;546.5406492999755;None;7;0;546.5406492999755;None;;;;;;;;4;;;;0.9758562999777496;;;;548.0904839999857;None;None;None;[];548.0904839999857;None;['7'];[0.6016117999679409];548.0904839999857;None;;;S11155;2022_Jan_17_1216;VideoMask;2021.1.2;120.0493162712775;
3.0;m;033_o_m_s_a.jpg;sad;7.0;sad_64.5ns.avi;sad;7.0;congruent;130.0;160.0;130.55717223801247;s_s;;;;;0;43;43;43;;;;;;;551.0904803000158;None;552.3985678000026;552.7153034000075;553.940382300003;553.9570433999761;560.4319261999917;None;7;0;560.4319261999917;None;;;;;;;;1;;;;1.0123068000539206;;;;561.9818084000144;None;None;None;[];561.9818084000144;None;"['7', '7', '7', '7', '7']";"[0.47874280001269653, 0.7505018000374548, 0.9904220000025816, 1.2464527999982238, 1.4943511000019498]";561.9818084000144;None;;;S11155;2022_Jan_17_1216;VideoMask;2021.1.2;120.0493162712775;
7.0;m;027_o_m_h_a.jpg;happy;9.0;sad_117.1.wmv;sad;7.0;incongruent;120.0;160.0;181.28665202824095;h_s;;;;;0;44;44;44;;;;;;;564.9817557999631;None;566.7064623999759;567.0231915999902;568.1981788999983;568.2149605000159;570.1564967000159;None;7;0;570.1564967000159;None;;;;;;;;4;;;;1.3680069000110961;;;;571.706384799967;None;None;None;[];571.706384799967;None;['7'];[0.6980601000250317];571.706384799967;None;;;S11155;2022_Jan_17_1216;VideoMask;2021.1.2;120.0493162712775;
3.0;m;033_o_m_s_a.jpg;sad;7.0;happy_126.3.wmv;happy;9.0;incongruent;130.0;150.0;198.85252030535366;s_h;;;;;0;45;45;45;;;;;;;574.7062556999736;None;576.572932399984;576.8896058999817;578.0560570000089;578.0727450000122;580.0229617999867;None;9;0;580.0229617999867;None;;;;;;;;7;;;;0.5654585000011139;;;;581.5811708999681;None;None;None;[];581.5811708999681;None;"['9', '9', '9']";"[0.4310659000184387, 0.79914329998428, 1.5033614999847487]";581.5811708999681;None;;;S11155;2022_Jan_17_1216;VideoMask;2021.1.2;120.0493162712775;
3.0;m;033_o_m_h_a.jpg;happy;9.0;sad_136.1.wmv;sad;7.0;incongruent;120.0;160.0;176.97002883463455;h_s;;;;;0;46;46;46;;;;;;;584.5893318000017;None;586.2642526999698;586.5808717000182;587.7061942999717;587.7225588000147;589.7144981999882;None;8;0;589.7144981999882;None;;;;;;;;5;;;;1.0496686999686062;;;;591.2642080999794;None;None;None;[];591.2642080999794;None;None;;591.2642080999794;None;;;S11155;2022_Jan_17_1216;VideoMask;2021.1.2;120.0493162712775;
9.0;f;019_m_f_h_a.jpg;happy;9.0;happy_10.1ns.avi;happy;9.0;congruent;120.0;150.0;157.2463435658512;h_h;;;;;0;47;47;47;;;;;;;594.2972850999795;None;595.8221739999717;596.1391917999717;597.2640472999774;597.2806959999725;604.7221257999772;None;9;0;604.7221257999772;None;;;;;;;;7;;;;0.562295500014443;;;;606.2721074000001;None;None;None;[];606.2721074000001;None;"['9', '9']";"[0.5081867999979295, 0.9001404999871738]";606.2721074000001;None;;;S11155;2022_Jan_17_1216;VideoMask;2021.1.2;120.0493162712775;
2.0;f;012_o_f_h_a.jpg;happy;9.0;happy_2.2ns.avi;happy;9.0;congruent;120.0;150.0;206.34800317295262;h_h;;;;;0;48;48;48;;;;;;;609.280403999961;None;611.2384521999629;611.5552257999661;612.6803859999636;612.6970033000107;624.8883903999813;None;9;0;624.8883903999813;None;;;;;;;;6;;;;1.0120834999834187;;;;626.446460600011;None;None;None;[];626.446460600011;None;['9'];[0.7340398000087589];626.446460600011;None;;;S11155;2022_Jan_17_1216;VideoMask;2021.1.2;120.0493162712775;
3.0;m;033_o_m_h_a.jpg;happy;9.0;happy_24.2ns.avi;happy;9.0;congruent;120.0;150.0;167.9423847659953;h_h;;;;;0;49;49;49;;;;;;;629.4463274999871;None;631.0628942999756;631.3796456999844;632.5797597999917;632.596226499998;636.2380000000121;None;9;0;636.2380000000121;None;;;;;;;;7;;;;0.6064008999965154;;;;637.7878349999664;None;None;None;[];637.7878349999664;None;"['9', '9', '9']";"[0.4007238000049256, 0.9524877000367269, 1.4484457000507973]";637.7878349999664;None;;;S11155;2022_Jan_17_1216;VideoMask;2021.1.2;120.0493162712775;
1.0;f;021_o_f_s_a.jpg;sad;7.0;happy_61.2ns.avi;happy;9.0;incongruent;130.0;150.0;210.94664004826666;s_h;;;;;0;50;50;50;;;;;;;640.7878391999984;None;642.7458996999776;643.0626781000174;644.2876435999642;644.3042686000117;648.7375253000064;None;9;0;648.7375253000064;None;;;;;;;;8;;;;0.546924999973271;;;;650.287508599984;None;None;None;[];650.287508599984;None;"['9', '9', '9']";"[0.6128093999577686, 1.012868299963884, 1.5169093000004068]";650.287508599984;None;;;S11155;2022_Jan_17_1216;VideoMask;2021.1.2;120.0493162712775;
4.0;m;004_o_m_s_a.jpg;sad;7.0;sad_2.4ns.avi;sad;7.0;congruent;130.0;160.0;153.02079367163634;s_s;;;;;0;51;51;51;;;;;;;653.2957703999709;None;654.7876349000144;655.1040456999908;656.2464546000119;656.2703863999923;664.1955155999749;None;7;0;664.1955155999749;None;;;;;;;;1;;;;0.6246445000288077;;;;665.7452555999625;None;None;None;[];665.7452555999625;None;"['7', '7', '7', '7']";"[0.4752102000056766, 0.7791863000020385, 1.0432692000176758, 1.523217800015118]";665.7452555999625;None;;;S11155;2022_Jan_17_1216;VideoMask;2021.1.2;120.0493162712775;
8.0;m;008_y_m_h_a.jpg;happy;9.0;happy_1.2ns.avi;happy;9.0;congruent;120.0;150.0;210.98946429383824;h_h;;;;;0;52;52;52;;;;;;;668.7535814999719;None;670.7618712999974;671.0785358999856;672.2200952999992;672.2367277999874;685.0032123000128;None;9;0;685.0032123000128;None;;;;;;;;8;;;;0.5372123999986798;;;;686.5530442000018;None;None;None;[];686.5530442000018;None;"['9', '9', '9']";"[0.5714164000237361, 0.9313824000419118, 1.2834461000165902]";686.5530442000018;None;;;S11155;2022_Jan_17_1216;VideoMask;2021.1.2;120.0493162712775;
2.0;f;012_o_f_s_a.jpg;sad;7.0;happy_52.2ns.avi;happy;9.0;incongruent;130.0;150.0;172.57202848318138;s_h;;;;;0;53;53;53;;;;;;;689.552918899979;None;691.186109000002;691.5028033999843;692.6615333000082;692.6779886999866;696.1862171000103;None;9;0;696.1862171000103;None;;;;;;;;7;;;;0.5539933000109158;;;;697.7360135999625;None;None;None;[];697.7360135999625;None;"['9', '9']";"[0.30842200003098696, 0.6603446999797598]";697.7360135999625;None;;;S11155;2022_Jan_17_1216;VideoMask;2021.1.2;120.0493162712775;
9.0;f;019_m_f_s_a.jpg;sad;7.0;happy_61.1ns.avi;happy;9.0;incongruent;130.0;150.0;181.3003220572762;s_h;;;;;0;54;54;54;;;;;;;700.7358921999694;None;702.4775795000023;702.794096699974;703.9275154999923;703.9442035999964;711.3190638999804;None;9;0;711.3190638999804;None;;;;;;;;7;;;;0.37321789999259636;;;;712.868926599971;None;None;None;[];712.868926599971;None;"['9', '9']";"[0.31142579996958375, 0.7676251999801025]";712.868926599971;None;;;S11155;2022_Jan_17_1216;VideoMask;2021.1.2;120.0493162712775;
0.0;f;030_o_f_h_a.jpg;happy;9.0;sad_133.1.wmv;sad;7.0;incongruent;120.0;160.0;198.86251500867985;h_s;;;;;0;55;55;55;;;;;;;715.8772877000156;None;717.7436331000063;718.0603915000102;719.1937761000008;719.2104278999614;721.1936825999874;None;7;0;721.1936825999874;None;;;;;;;;3;;;;0.4829249999602325;;;;723.1102788000135;None;None;None;[];723.1102788000135;None;"['7', '7']";"[0.35018499998841435, 0.8222628000075929]";723.1102788000135;None;;;S11155;2022_Jan_17_1216;VideoMask;2021.1.2;120.0493162712775;
0.0;f;040_y_f_h_a.jpg;happy;9.0;sad_128.2.wmv;sad;7.0;incongruent;120.0;160.0;206.10005857915363;h_s;;;;;0;56;56;56;;;;;;;726.1186182000092;None;728.0516938999644;728.3684959000093;729.5015394999646;729.5182289999793;731.501892899978;None;7;0;731.501892899978;None;;;;;;;;4;;;;1.110428599989973;;;;733.0598994999891;None;None;None;[];733.0598994999891;None;['7'];[1.3046796999988146];733.0598994999891;None;;;S11155;2022_Jan_17_1216;VideoMask;2021.1.2;120.0493162712775;
1.0;f;021_o_f_s_a.jpg;sad;7.0;sad_9.5ns.avi;sad;7.0;congruent;130.0;160.0;206.16642757875042;s_s;;;;;0;57;57;57;;;;;;;736.0598884999636;None;737.9847115000011;738.3014038999681;739.435195899976;739.4598238999606;745.1597744000028;None;7;0;745.1597744000028;None;;;;;;;;2;;;;0.46064440003829077;;;;747.3928599999635;None;None;None;[];747.3928599999635;None;"['7', '7', '7', '7']";"[0.41160170000512153, 0.699751699983608, 0.9797810000018217, 1.5796946000191383]";747.3928599999635;None;;;S11155;2022_Jan_17_1216;VideoMask;2021.1.2;120.0493162712775;
1.0;f;021_o_f_h_a.jpg;happy;9.0;happy_12.1ns.avi;happy;9.0;congruent;120.0;150.0;132.59080005900228;h_h;;;;;0;58;58;58;;;;;;;750.3928772999789;None;751.7259936999762;752.0427068999852;753.1843440000084;753.2010601999937;760.7929812999791;None;8;0;760.7929812999791;None;;;;;;;;6;;;;0.6434266000287607;;;;762.3508229000145;None;None;None;[];762.3508229000145;None;"['9', '9']";"[0.46968560002278537, 1.15761829999974]";762.3508229000145;None;;;S11155;2022_Jan_17_1216;VideoMask;2021.1.2;120.0493162712775;
3.0;m;013_y_m_s_a.jpg;sad;7.0;happy_56.2ns.avi;happy;9.0;incongruent;130.0;150.0;163.39234110935848;s_h;;;;;0;59;59;59;;;;;;;765.3507522;None;766.925496699987;767.2422723000054;768.3925980000058;768.4171854999731;773.4005724000162;None;9;0;773.4005724000162;None;;;;;;;;7;;;;0.5158397000050172;;;;774.9503970000078;None;None;None;[];774.9503970000078;None;"['9', '9']";"[0.8058624000404961, 1.3101791000226513]";774.9503970000078;None;;;S11155;2022_Jan_17_1216;VideoMask;2021.1.2;120.0493162712775;
;;;;;;;;;;;;;;;;;;;;;;;;;;;;;;;;;;;;;;;;;;;;;;;;;;;;;;;;;;;;;;;;;777.9587868999806;None;;;;;;
