primePerson;primeGender;prime;primeEmotion;corrAnsPrime;target;targetEmotion;corrAnsTar;Cond;ID_Primer;ID_Target;JitterTime;Condition;example.thisRepN;example.thisTrialN;example.thisN;example.thisIndex;study.thisRepN;study.thisTrialN;study.thisN;study.thisIndex;MR_trigger_time;MR_trigger_number;text_intro.started;text_intro.stopped;text_probe.started;text_probe.stopped;polygon_ISI.started;polygon_ISI.stopped;polygon.started;polygon.stopped;primerImage.started;primerImage.stopped;response.started;response.stopped;key_resp.keys;key_resp.corr;key_resp.started;key_resp.stopped;slider_Text.started;slider_Text.stopped;slider_ex.response;slider_ex.rt;slider_ex.history;slider_ex.started;slider_ex.stopped;Rating;slider_resp_response.keys;slider_resp_response.started;slider_resp_response.stopped;key_resp.rt;slider_resp_response.rt;text_start.started;text_start.stopped;text_slider.started;text_slider.stopped;slider_stud.response;slider_stud.rt;slider_stud.history;slider_stud.started;slider_stud.stopped;slider_resp_study.keys;slider_resp_study.rt;slider_resp_study.started;slider_resp_study.stopped;text_ende.started;text_ende.stopped;participant;date;expName;psychopyVersion;frameRate;
1111;m;1111_m_m_h_a.jpg;happy;9;example_30.4ns.avi;neutral;7;incongruent;120.0;170.0;189.5874364012288;;0;0;0;0;;;;;125.08788470015861;1;125.1821457000915;127.1820686000865;127.1820686000865;None;129.21531510003842;None;131.4900828001555;131.8153701000847;132.94014690001495;132.95689930021763;137.28195330011658;None;None;0;137.28195330011658;None;138.84905320010148;None;None;None;[];138.84905320010148;None;5;None;138.84905320010148;None;;;;;;;;;;;;;;;;;;S11109;2021_Dec_15_1547;VideoMask;2021.1.2;119.96837648621245;
1113;f;1113_y_f_s_a.jpg;sad;7;example_30.3ns.avi;neutral;7;incongruent;130.0;170.0;229.02432995836998;;0;1;1;1;;;;;;;;;;;141.86506640003063;None;143.99839710001834;144.31484530004673;145.48163080005907;145.49819140019827;147.44831670005806;None;8;0;147.44831670005806;None;148.99806690006517;None;None;None;[];148.99806690006517;None;6;['9'];148.99806690006517;None;0.957652400014922;[1.8398278998211026];;;;;;;;;;;;;;;;S11109;2021_Dec_15_1547;VideoMask;2021.1.2;119.96837648621245;
9.0;f;019_m_f_h_a.jpg;happy;9.0;sad_115.1.wmv;sad;7.0;incongruent;120.0;160.0;128.09063432376465;h_s;;;;;0;0;0;0;;;;;;;153.04806580021977;None;154.34824030008167;154.66456350008957;155.8152014000807;155.84783020010218;157.80626270012;None;7;0;157.80626270012;None;;;;;;;;3;;;;0.727807599818334;;152.00640270020813;None;159.35586480004713;None;None;None;[];159.35586480004713;None;"['7', '7', '7']";"[1.1542784001212567, 1.6982454000972211, 2.3782981999684125]";159.35586480004713;None;;;S11109;2021_Dec_15_1547;VideoMask;2021.1.2;119.96837648621245;
3.0;m;033_o_m_s_a.jpg;sad;7.0;sad_94.2ns.avi;sad;7.0;congruent;130.0;160.0;182.29120173647655;s_s;;;;;0;1;1;1;;;;;;;162.3649928001687;None;164.09751000022516;164.41426099999808;165.5809128000401;165.59779230016284;168.23915930022486;None;7;0;168.23915930022486;None;;;;;;;;2;;;;0.5908834000583738;;;;169.81414640019648;None;None;None;[];169.81414640019648;None;"['7', '7', '7', '7']";"[0.6239506001584232, 0.9919930000323802, 1.344054700108245, 1.8079495001584291]";169.81414640019648;None;;;S11109;2021_Dec_15_1547;VideoMask;2021.1.2;119.96837648621245;
8.0;m;008_y_m_h_a.jpg;happy;9.0;happy_26.1ns.avi;happy;9.0;congruent;120.0;150.0;155.9437854594882;h_h;;;;;0;2;2;2;;;;;;;172.81416450021788;None;174.305523800198;174.62226180010475;175.7807282002177;175.7973066000268;177.74723700014874;None;9;0;177.74723700014874;None;;;;;;;;6;;;;0.618759100092575;;;;179.3137085000053;None;None;None;[];179.3137085000053;None;['9'];[9.447922100080177];179.3137085000053;None;;;S11109;2021_Dec_15_1547;VideoMask;2021.1.2;119.96837648621245;
0.0;f;040_y_f_h_a.jpg;happy;9.0;sad_138.1.wmv;sad;7.0;incongruent;120.0;160.0;133.99071306426532;h_s;;;;;0;3;3;3;;;;;;;182.28872400010005;None;183.61358020012267;183.93025890015997;185.06360970018432;185.0806228001602;187.06373860011809;None;7;0;187.06373860011809;None;;;;;;;;3;;;;0.7822777999099344;;;;188.61358780018054;None;None;None;[];188.61358780018054;None;"['7', '7']";"[1.4647117999847978, 2.4326549998950213]";188.61358780018054;None;;;S11109;2021_Dec_15_1547;VideoMask;2021.1.2;119.96837648621245;
8.0;f;028_y_f_s_a.jpg;sad;7.0;sad_64.2ns.avi;sad;7.0;congruent;130.0;160.0;229.88540597086478;s_s;;;;;0;4;4;4;;;;;;;191.62211560015567;None;193.83010050002486;194.14669790002517;195.3220708000008;195.34667360014282;206.27985660010017;None;7;0;206.27985660010017;None;;;;;;;;2;;;;0.7182009001262486;;;;207.82969560008496;None;None;None;[];207.82969560008496;None;"['7', '7', '7', '7', '7']";"[0.6642869999632239, 0.9763835000339895, 1.360361299943179, 1.7125577998813242, 2.080531899817288]";207.82969560008496;None;;;S11109;2021_Dec_15_1547;VideoMask;2021.1.2;119.96837648621245;
7.0;m;027_o_m_s_a.jpg;sad;7.0;sad_10.4ns.avi;sad;7.0;congruent;130.0;160.0;185.20129417468752;s_s;;;;;0;5;5;5;;;;;;;210.8297335000243;None;212.60434380010702;212.92122520017438;214.07151400018483;214.0964862999972;217.23784990003332;None;7;0;217.23784990003332;None;;;;;;;;3;;;;0.8723335000686347;;;;218.8293234000448;None;None;None;[];218.8293234000448;None;"['7', '7']";"[0.6966959000565112, 1.0087056001648307]";218.8293234000448;None;;;S11109;2021_Dec_15_1547;VideoMask;2021.1.2;119.96837648621245;
2.0;f;012_o_f_s_a.jpg;sad;7.0;sad_7.5ns.avi;sad;7.0;congruent;130.0;160.0;220.27842655424388;s_s;;;;;0;6;6;6;;;;;;;221.83763260021806;None;223.87072600005195;224.1875052000396;225.3625041001942;225.37908260012046;228.11270400020294;None;7;0;228.11270400020294;None;;;;;;;;4;;;;0.5817114000674337;;;;229.67897200002335;None;None;None;[];229.67897200002335;None;['7'];[0.5273853000253439];229.67897200002335;None;;;S11109;2021_Dec_15_1547;VideoMask;2021.1.2;119.96837648621245;
2.0;f;012_o_f_h_a.jpg;happy;9.0;happy_27.1ns.avi;happy;9.0;congruent;120.0;150.0;146.44967055810616;h_h;;;;;0;7;7;7;;;;;;;232.68732350016944;None;234.11203240021132;234.42883670004085;235.62046630005352;235.6370611002203;238.05376860010438;None;9;0;238.05376860010438;None;;;;;;;;5;;;;0.632283299928531;;;;239.60372380004264;None;None;None;[];239.60372380004264;None;None;;239.60372380004264;None;;;S11109;2021_Dec_15_1547;VideoMask;2021.1.2;119.96837648621245;
8.0;f;028_y_f_h_a.jpg;happy;9.0;sad_119.1.wmv;sad;7.0;incongruent;120.0;160.0;148.71526953572538;h_s;;;;;0;8;8;8;;;;;;;242.62847280013375;None;244.09512880002148;244.41178080020472;245.54521510004997;245.56190030020662;247.61180540011264;None;7;0;247.61180540011264;None;;;;;;;;4;;;;0.754392399918288;;;;249.24500800017267;None;None;None;[];249.24500800017267;None;['7'];[0.7050560999196023];249.24500800017267;None;;;S11109;2021_Dec_15_1547;VideoMask;2021.1.2;119.96837648621245;
6.0;m;016_y_m_s_a.jpg;sad;7.0;happy_60.4ns.avi;happy;9.0;incongruent;130.0;150.0;126.02367393611817;s_h;;;;;0;9;9;9;;;;;;;252.25347070000134;None;253.56165210017934;253.8781891001854;255.03654730017297;255.05325700016692;260.803176100133;None;8;0;260.803176100133;None;;;;;;;;5;;;;0.9948283000849187;;;;262.353094200138;None;None;None;[];262.353094200138;None;None;;262.353094200138;None;;;S11109;2021_Dec_15_1547;VideoMask;2021.1.2;119.96837648621245;
9.0;f;019_m_f_s_a.jpg;sad;7.0;sad_8.4ns.avi;sad;7.0;congruent;130.0;160.0;171.6633093155257;s_s;;;;;0;10;10;10;;;;;;;265.36941880011;None;267.0610538001638;267.3777917001862;268.5366041001398;268.55314160021953;276.64431440015323;None;7;0;276.64431440015323;None;;;;;;;;3;;;;0.9857864999212325;;;;278.19421520014293;None;None;None;[];278.19421520014293;None;"['7', '7']";"[0.80397820007056, 1.0996197001077235]";278.19421520014293;None;;;S11109;2021_Dec_15_1547;VideoMask;2021.1.2;119.96837648621245;
4.0;m;004_o_m_h_a.jpg;happy;9.0;happy_1.1ns.avi;happy;9.0;congruent;120.0;150.0;203.50057144619865;h_h;;;;;0;11;11;11;;;;;;;281.1942147000227;None;283.1771997001488;283.4940529000014;284.6356692002155;284.6524240002036;299.110247900011;None;9;0;299.110247900011;None;;;;;;;;8;;;;0.6318417000584304;;;;300.6602036000695;None;None;None;[];300.6602036000695;None;"['9', '9', '9']";"[0.5379644001368433, 0.9619480001274496, 1.4099141000770032]";300.6602036000695;None;;;S11109;2021_Dec_15_1547;VideoMask;2021.1.2;119.96837648621245;
7.0;m;027_o_m_h_a.jpg;happy;9.0;happy_20.1ns.avi;happy;9.0;congruent;120.0;150.0;152.91127178874285;h_h;;;;;0;12;12;12;;;;;;;303.66856370004825;None;305.1933685000986;305.51010090019554;306.65175760001875;306.6683540001977;309.66003380017355;None;9;0;309.66003380017355;None;;;;;;;;7;;;;0.6502666000742465;;;;311.2098827001173;None;None;None;[];311.2098827001173;None;"['9', '9']";"[0.6441858999896795, 1.1240753999445587]";311.2098827001173;None;;;S11109;2021_Dec_15_1547;VideoMask;2021.1.2;119.96837648621245;
0.0;f;040_y_f_s_a.jpg;sad;7.0;sad_94.3ns.avi;sad;7.0;congruent;130.0;160.0;155.27414203894395;s_s;;;;;0;13;13;13;;;;;;;314.2099037000444;None;315.7096256001387;316.0263736001216;317.18442110018805;317.2011955000926;319.7847074000165;None;7;0;319.7847074000165;None;;;;;;;;3;;;;0.7652235999703407;;;;321.33458560006693;None;None;None;[];321.33458560006693;None;"['7', '7']";"[0.575692999875173, 0.9995692998636514]";321.33458560006693;None;;;S11109;2021_Dec_15_1547;VideoMask;2021.1.2;119.96837648621245;
0.0;f;030_o_f_s_a.jpg;sad;7.0;sad_68.1ns.avi;sad;7.0;congruent;130.0;160.0;158.9411396037211;s_s;;;;;0;14;14;14;;;;;;;324.3429642000701;None;325.9178317000624;326.23440050007775;327.4178586001508;327.43495070002973;334.7926161000505;None;7;0;334.7926161000505;None;;;;;;;;4;;;;1.1576384000945836;;;;336.34246820001863;None;None;None;[];336.34246820001863;None;['7'];[0.5436468000989407];336.34246820001863;None;;;S11109;2021_Dec_15_1547;VideoMask;2021.1.2;119.96837648621245;
0.0;f;030_o_f_h_a.jpg;happy;9.0;sad_127.1.wmv;sad;7.0;incongruent;120.0;160.0;180.59976631384873;h_s;;;;;0;15;15;15;;;;;;;339.3424054000061;None;341.06730940006673;341.38380950014107;342.517631100025;342.53432930004783;344.5172499001492;None;None;0;344.5172499001492;None;;;;;;;;4;;;;;;;;346.0669709001668;None;None;None;[];346.0669709001668;None;['7'];[1.8753507998771966];346.0669709001668;None;;;S11109;2021_Dec_15_1547;VideoMask;2021.1.2;119.96837648621245;
8.0;m;008_y_m_s_a.jpg;sad;7.0;happy_133.3.wmv;happy;9.0;incongruent;130.0;150.0;152.577966552593;s_h;;;;;0;16;16;16;;;;;;;349.07551610004157;None;350.5669027999975;350.88374020019546;352.00867060013115;352.02528890012763;354.01702770008706;None;None;0;354.01702770008706;None;;;;;;;;5;;;;;;;;355.5672707001213;None;None;None;[];355.5672707001213;None;None;;355.5672707001213;None;;;S11109;2021_Dec_15_1547;VideoMask;2021.1.2;119.96837648621245;
3.0;m;033_o_m_h_a.jpg;happy;9.0;sad_128.1.wmv;sad;7.0;incongruent;120.0;160.0;171.0492454518585;h_s;;;;;0;17;17;17;;;;;;;358.59188940003514;None;360.250095800031;360.5666723002214;361.69985370012;361.7167524001561;363.6999983000569;None;None;0;363.6999983000569;None;;;;;;;;4;;;;;;;;365.24989790003747;None;None;None;[];365.24989790003747;None;['7'];[0.540179800009355];365.24989790003747;None;;;S11109;2021_Dec_15_1547;VideoMask;2021.1.2;119.96837648621245;
1.0;f;021_o_f_h_a.jpg;happy;9.0;sad_116.1.wmv;sad;7.0;incongruent;120.0;160.0;184.06847610053055;h_s;;;;;0;18;18;18;;;;;;;368.24980170000345;None;370.00797880021855;370.3247370000463;371.4667513000313;371.4914212001022;373.45811600005254;None;7;0;373.45811600005254;None;;;;;;;;3;;;;0.8359306999482214;;;;375.0079805001151;None;None;None;[];375.0079805001151;None;"['7', '7']";"[0.4621472000144422, 1.518481899984181]";375.0079805001151;None;;;S11109;2021_Dec_15_1547;VideoMask;2021.1.2;119.96837648621245;
4.0;m;004_o_m_s_a.jpg;sad;7.0;happy_28.1ns.avi;happy;9.0;incongruent;130.0;150.0;157.40741103039684;s_h;;;;;0;19;19;19;;;;;;;378.00796550000086;None;379.5410237000324;379.8577813000884;381.05751120019704;381.0830734001938;385.3827681001276;None;9;0;385.3827681001276;None;;;;;;;;6;;;;0.7911242998670787;;;;386.9326357000973;None;None;None;[];386.9326357000973;None;['9'];[0.7296040998771787];386.9326357000973;None;;;S11109;2021_Dec_15_1547;VideoMask;2021.1.2;119.96837648621245;
8.0;f;028_y_f_s_a.jpg;sad;7.0;happy_122.3.wmv;happy;9.0;incongruent;130.0;150.0;171.8670540936116;s_h;;;;;0;20;20;20;;;;;;;389.9325527001638;None;391.5823050001636;391.8989783001598;393.0407899999991;393.05745030008256;395.03253680001944;None;None;0;395.03253680001944;None;;;;;;;;5;;;;;;;;396.5821131002158;None;None;None;[];396.5821131002158;None;None;;396.5821131002158;None;;;S11109;2021_Dec_15_1547;VideoMask;2021.1.2;119.96837648621245;
8.0;m;008_y_m_s_a.jpg;sad;7.0;sad_6.5ns.avi;sad;7.0;congruent;130.0;160.0;170.39333839271438;s_s;;;;;0;21;21;21;;;;;;;399.60724690021016;None;401.2488458000589;401.5654079001397;402.7911083002109;402.8237865001429;407.698609800078;None;7;0;407.698609800078;None;;;;;;;;2;;;;0.49959390005096793;;;;409.24852750007994;None;None;None;[];409.24852750007994;None;"['7', '7', '7']";"[0.3897327999584377, 0.6055526998825371, 0.9498354999814183]";409.24852750007994;None;;;S11109;2021_Dec_15_1547;VideoMask;2021.1.2;119.96837648621245;
8.0;f;028_y_f_h_a.jpg;happy;9.0;happy_23.1ns.avi;happy;9.0;congruent;120.0;150.0;225.70986890587952;h_h;;;;;0;22;22;22;;;;;;;412.24855570006184;None;414.33993630018085;414.6568079001736;415.8065488000866;415.8234035000205;420.36506740003824;None;9;0;420.36506740003824;None;;;;;;;;5;;;;0.44099240005016327;;;;421.9148815001827;None;None;None;[];421.9148815001827;None;None;;421.9148815001827;None;;;S11109;2021_Dec_15_1547;VideoMask;2021.1.2;119.96837648621245;
8.0;m;008_y_m_h_a.jpg;happy;9.0;sad_111.1.wmv;sad;7.0;incongruent;120.0;160.0;152.63076835312847;h_s;;;;;0;23;23;23;;;;;;;424.939773300197;None;426.4146134001203;426.7313901002053;427.8647214001976;427.88136740005575;429.8647749000229;None;7;0;429.8647749000229;None;;;;;;;;4;;;;0.7330385001841933;;;;431.41467640013434;None;None;None;[];431.41467640013434;None;['7'];[0.4154852000065148];431.41467640013434;None;;;S11109;2021_Dec_15_1547;VideoMask;2021.1.2;119.96837648621245;
0.0;f;040_y_f_s_a.jpg;sad;7.0;sad_67.2ns.avi;sad;7.0;congruent;130.0;160.0;220.9892697323079;s_s;;;;;0;24;24;24;;;;;;;434.43143870006315;None;436.5394571002107;436.85602690000087;438.0559331001714;438.0726964001078;447.21408870001324;None;7;0;447.21408870001324;None;;;;;;;;3;;;;0.6721989999059588;;;;448.76408029999584;None;None;None;[];448.76408029999584;None;"['7', '7', '7']";"[0.37010459997691214, 0.6018501999787986, 1.0184686998836696]";448.76408029999584;None;;;S11109;2021_Dec_15_1547;VideoMask;2021.1.2;119.96837648621245;
8.0;m;008_y_m_s_a.jpg;sad;7.0;happy_29.1ns.avi;happy;9.0;incongruent;130.0;150.0;120.0316142834122;s_h;;;;;0;25;25;25;;;;;;;451.77246540016495;None;452.9888153001666;453.305586400209;454.4559449001681;454.4806416002102;457.13054630020633;None;9;0;457.13054630020633;None;;;;;;;;5;;;;1.3955361999105662;;;;458.75545769999735;None;None;None;[];458.75545769999735;None;None;;458.75545769999735;None;;;S11109;2021_Dec_15_1547;VideoMask;2021.1.2;119.96837648621245;
6.0;m;016_y_m_s_a.jpg;sad;7.0;sad_8.3ns.avi;sad;7.0;congruent;130.0;160.0;152.85371098242734;s_s;;;;;0;26;26;26;;;;;;;461.77213060017675;None;463.29688290017657;463.61367000010796;464.7967215999961;464.8136219000444;472.5050630001351;None;7;0;472.5050630001351;None;;;;;;;;3;;;;0.7650617000181228;;;;474.0549859001767;None;None;None;[];474.0549859001767;None;"['7', '7']";"[0.48717780015431345, 1.3194425001274794]";474.0549859001767;None;;;S11109;2021_Dec_15_1547;VideoMask;2021.1.2;119.96837648621245;
6.0;m;016_y_m_h_a.jpg;happy;9.0;sad_114.1.wmv;sad;7.0;incongruent;120.0;160.0;136.20550699298644;h_s;;;;;0;27;27;27;;;;;;;477.0633911001496;None;478.41306470008567;478.7301459000446;479.85484180017374;479.8712746000383;481.8631072000135;None;None;0;481.8631072000135;None;;;;;;;;5;;;;;;;;483.4134724000469;None;None;None;[];483.4134724000469;None;None;;483.4134724000469;None;;;S11109;2021_Dec_15_1547;VideoMask;2021.1.2;119.96837648621245;
7.0;m;027_o_m_s_a.jpg;sad;7.0;happy_117.3.wmv;happy;9.0;incongruent;130.0;150.0;215.61964028550614;s_h;;;;;0;28;28;28;;;;;;;486.4295282000676;None;488.43772780010477;488.7549503000919;489.87965640006587;489.89610450016335;491.88790460000746;None;8;0;491.88790460000746;None;;;;;;;;5;;;;0.8300349998753518;;;;493.4376758001745;None;None;None;[];493.4376758001745;None;None;;493.4376758001745;None;;;S11109;2021_Dec_15_1547;VideoMask;2021.1.2;119.96837648621245;
6.0;m;016_y_m_h_a.jpg;happy;9.0;happy_9.2ns.avi;happy;9.0;congruent;120.0;150.0;130.52042428082717;h_h;;;;;0;29;29;29;;;;;;;496.46255270019174;None;497.7874212001916;498.104231600184;499.2624829001725;499.2792234001681;505.16297010006383;None;9;0;505.16297010006383;None;;;;;;;;6;;;;0.49139340012334287;;;;506.74568819999695;None;None;None;[];506.74568819999695;None;"['9', '9']";"[0.5643850998021662, 2.6285958997905254]";506.74568819999695;None;;;S11109;2021_Dec_15_1547;VideoMask;2021.1.2;119.96837648621245;
0.0;f;040_y_f_s_a.jpg;sad;7.0;happy_127.3.wmv;happy;9.0;incongruent;130.0;150.0;131.7195455720239;s_h;;;;;0;30;30;30;;;;;;;509.74560020002536;None;511.06205880013295;511.37870020000264;512.5288824001327;512.5455219000578;514.5788152001332;None;9;0;514.5788152001332;None;;;;;;;;7;;;;1.003953699953854;;;;516.1453726000618;None;None;None;[];516.1453726000618;None;"['9', '9', '9']";"[0.3650833999272436, 0.8609263999387622, 1.3167705000378191]";516.1453726000618;None;;;S11109;2021_Dec_15_1547;VideoMask;2021.1.2;119.96837648621245;
0.0;f;030_o_f_s_a.jpg;sad;7.0;happy_125.3.wmv;happy;9.0;incongruent;130.0;150.0;220.51454909128134;s_h;;;;;0;31;31;31;;;;;;;519.1454497000668;None;521.2034472001251;521.520179600222;522.662398800021;522.6871933999937;524.6535918000154;None;8;0;524.6535918000154;None;;;;;;;;5;;;;0.8567220999393612;;;;526.2033288001548;None;None;None;[];526.2033288001548;None;None;;526.2033288001548;None;;;S11109;2021_Dec_15_1547;VideoMask;2021.1.2;119.96837648621245;
0.0;f;030_o_f_s_a.jpg;sad;7.0;sad_64.3ns.avi;sad;7.0;congruent;130.0;160.0;165.78667874766072;s_s;;;;;0;32;32;32;;;;;;;529.2199082002044;None;530.8281513000838;531.1448580001015;532.3282449000981;532.344972900115;537.2780877000187;None;7;0;537.2780877000187;None;;;;;;;;2;;;;0.6480441999156028;;;;538.8280346000101;None;None;None;[];538.8280346000101;None;"['7', '7', '7', '7']";"[0.5461369000840932, 0.8020713001023978, 1.1539825999643654, 1.4897960000671446]";538.8280346000101;None;;;S11109;2021_Dec_15_1547;VideoMask;2021.1.2;119.96837648621245;
3.0;m;013_y_m_s_a.jpg;sad;7.0;sad_7.7ns.avi;sad;7.0;congruent;130.0;160.0;196.24182255763262;s_s;;;;;0;33;33;33;;;;;;;541.8363224000204;None;543.7109875001479;544.0277980000246;545.2025482000317;545.2193238001782;551.1611226000823;None;7;0;551.1611226000823;None;;;;;;;;3;;;;0.7890773001126945;;;;552.7110247001983;None;None;None;[];552.7110247001983;None;"['7', '7']";"[0.40707889990881085, 0.6072647999972105]";552.7110247001983;None;;;S11109;2021_Dec_15_1547;VideoMask;2021.1.2;119.96837648621245;
3.0;m;013_y_m_h_a.jpg;happy;9.0;happy_9.1ns.avi;happy;9.0;congruent;120.0;150.0;165.1890303600433;h_h;;;;;0;34;34;34;;;;;;;555.7109082001261;None;557.3106614002027;557.6274151001126;558.7607788001187;558.7774678000715;561.9858290001284;None;9;0;561.9858290001284;None;;;;;;;;5;;;;1.0842681000940502;;;;563.5356424001511;None;None;None;[];563.5356424001511;None;None;;563.5356424001511;None;;;S11109;2021_Dec_15_1547;VideoMask;2021.1.2;119.96837648621245;
4.0;m;004_o_m_h_a.jpg;happy;9.0;sad_95.1ns.avi;sad;7.0;incongruent;120.0;160.0;152.68270002069931;h_s;;;;;0;35;35;35;;;;;;;566.5604518000036;None;568.1020652002189;568.4187742001377;569.6104708001949;569.6270921002142;578.3439212001394;None;7;0;578.3439212001394;None;;;;;;;;3;;;;1.0384170999750495;;;;579.926801700145;None;None;None;[];579.926801700145;None;"['7', '7', '7', '7', '7', '7']";"[0.5353598000947386, 0.9195197001099586, 1.2315376000478864, 1.727198300184682, 2.151290000183508, 2.5433415002189577]";579.926801700145;None;;;S11109;2021_Dec_15_1547;VideoMask;2021.1.2;119.96837648621245;
3.0;m;013_y_m_h_a.jpg;happy;9.0;sad_113.2.wmv;sad;7.0;incongruent;120.0;160.0;217.4973891947951;h_s;;;;;0;36;36;36;;;;;;;582.9267750000581;None;584.9681876001414;585.284924400039;586.4099566000514;586.4265199000947;588.4183180001564;None;8;0;588.4183180001564;None;;;;;;;;5;;;;0.9318345999345183;;;;589.9681515002158;None;None;None;[];589.9681515002158;None;None;;589.9681515002158;None;;;S11109;2021_Dec_15_1547;VideoMask;2021.1.2;119.96837648621245;
4.0;m;004_o_m_h_a.jpg;happy;9.0;happy_25.1ns.avi;happy;9.0;congruent;120.0;150.0;216.63044503818386;h_h;;;;;0;37;37;37;;;;;;;592.9931491001043;None;595.026237900136;595.342917600181;596.4846458001994;596.5011192001402;600.167935000034;None;9;0;600.167935000034;None;;;;;;;;5;;;;0.8141722001601011;;;;601.792677400168;None;None;None;[];601.792677400168;None;None;;601.792677400168;None;;;S11109;2021_Dec_15_1547;VideoMask;2021.1.2;119.96837648621245;
4.0;m;004_o_m_s_a.jpg;sad;7.0;happy_131.2.wmv;happy;9.0;incongruent;130.0;150.0;181.38407540847405;s_h;;;;;0;38;38;38;;;;;;;604.8261247000191;None;606.5508866000455;606.867572600022;608.0008516001981;608.017625400098;610.0011303999927;None;None;0;610.0011303999927;None;;;;;;;;5;;;;;;;;611.5506508001126;None;None;None;[];611.5506508001126;None;None;;611.5506508001126;None;;;S11109;2021_Dec_15_1547;VideoMask;2021.1.2;119.96837648621245;
0.0;f;040_y_f_h_a.jpg;happy;9.0;happy_24.3ns.avi;happy;9.0;congruent;120.0;150.0;213.25460698950434;h_h;;;;;0;39;39;39;;;;;;;614.5840806001797;None;616.558849300025;616.8756689000875;618.0340251000598;618.0506383001339;619.9339865001384;None;8;0;619.9339865001384;None;;;;;;;;5;;;;0.952054199995473;;;;621.4838853001129;None;None;None;[];621.4838853001129;None;None;;621.4838853001129;None;;;S11109;2021_Dec_15_1547;VideoMask;2021.1.2;119.96837648621245;
2.0;f;012_o_f_s_a.jpg;sad;7.0;happy_139.1.wmv;happy;9.0;incongruent;130.0;150.0;162.31500468041804;s_h;;;;;0;40;40;40;;;;;;;624.5171734001487;None;626.0835900001694;626.4003500000108;627.5337608000264;627.5503826001659;629.5337579001207;None;9;0;629.5337579001207;None;;;;;;;;6;;;;1.1764016998931766;;;;631.0835702000186;None;None;None;[];631.0835702000186;None;['9'];[0.6746207000687718];631.0835702000186;None;;;S11109;2021_Dec_15_1547;VideoMask;2021.1.2;119.96837648621245;
0.0;f;030_o_f_h_a.jpg;happy;9.0;happy_24.1ns.avi;happy;9.0;congruent;120.0;150.0;168.36256624020774;h_h;;;;;0;41;41;41;;;;;;;634.0836694000755;None;635.7166148000397;636.0334234000184;637.2255189002026;637.250594700221;640.5084015000612;None;9;0;640.5084015000612;None;;;;;;;;5;;;;0.8415218000300229;;;;642.0582332001068;None;None;None;[];642.0582332001068;None;None;;642.0582332001068;None;;;S11109;2021_Dec_15_1547;VideoMask;2021.1.2;119.96837648621245;
2.0;f;012_o_f_h_a.jpg;happy;9.0;sad_113.1.wmv;sad;7.0;incongruent;120.0;160.0;177.44551734737394;h_s;;;;;0;42;42;42;;;;;;;645.091500800103;None;646.7829830001574;647.0997311000247;648.2327573001385;648.2495548001025;650.2331364001147;None;7;0;650.2331364001147;None;;;;;;;;2;;;;0.6129502998664975;;;;651.7829579000827;None;None;None;[];651.7829579000827;None;"['7', '7', '7']";"[0.40722459997050464, 0.5991790001280606, 1.1750437000300735]";651.7829579000827;None;;;S11109;2021_Dec_15_1547;VideoMask;2021.1.2;119.96837648621245;
3.0;m;033_o_m_s_a.jpg;sad;7.0;sad_64.5ns.avi;sad;7.0;congruent;130.0;160.0;130.55717223801247;s_s;;;;;0;43;43;43;;;;;;;654.7913436000235;None;656.1244747000746;656.4411419001408;657.6499405000359;657.674222300062;664.1660443001892;None;7;0;664.1660443001892;None;;;;;;;;2;;;;0.6480555001180619;;;;665.7159622001927;None;None;None;[];665.7159622001927;None;"['7', '7', '7', '7', '7', '7', '7']";"[0.5866119998972863, 0.7701778998598456, 0.9780908999964595, 1.1861260998994112, 1.6183318998664618, 1.978297899942845, 2.5861605999525636]";665.7159622001927;None;;;S11109;2021_Dec_15_1547;VideoMask;2021.1.2;119.96837648621245;
7.0;m;027_o_m_h_a.jpg;happy;9.0;sad_117.1.wmv;sad;7.0;incongruent;120.0;160.0;181.28665202824095;h_s;;;;;0;44;44;44;;;;;;;668.7242258000188;None;670.4488298001233;670.7656299001537;671.8994319001213;671.9240079000592;673.8989727001172;None;7;0;673.8989727001172;None;;;;;;;;1;;;;0.5709785998333246;;;;675.4489252001513;None;None;None;[];675.4489252001513;None;"['7', '7', '7', '7']";"[0.23760199989192188, 0.4131119998637587, 0.5730872000567615, 1.1971436999738216]";675.4489252001513;None;;;S11109;2021_Dec_15_1547;VideoMask;2021.1.2;119.96837648621245;
3.0;m;033_o_m_s_a.jpg;sad;7.0;happy_126.3.wmv;happy;9.0;incongruent;130.0;150.0;198.85252030535366;s_h;;;;;0;45;45;45;;;;;;;678.4571435002144;None;680.3319855001755;680.6485345000401;681.781889700098;681.7988171000034;683.7903992000502;None;9;0;683.7903992000502;None;;;;;;;;5;;;;0.9117018000688404;;;;685.3402738000732;None;None;None;[];685.3402738000732;None;None;;685.3402738000732;None;;;S11109;2021_Dec_15_1547;VideoMask;2021.1.2;119.96837648621245;
3.0;m;033_o_m_h_a.jpg;happy;9.0;sad_136.1.wmv;sad;7.0;incongruent;120.0;160.0;176.97002883463455;h_s;;;;;0;46;46;46;;;;;;;688.3568251000252;None;690.0399567000568;690.3567333000246;691.5068700001575;691.5234175000805;693.4983303002082;None;None;0;693.4983303002082;None;;;;;;;;3;;;;;;;;695.048223100137;None;None;None;[];695.048223100137;None;"['7', '7']";"[1.3342131001409143, 1.9821471001487225]";695.048223100137;None;;;S11109;2021_Dec_15_1547;VideoMask;2021.1.2;119.96837648621245;
9.0;f;019_m_f_h_a.jpg;happy;9.0;happy_10.1ns.avi;happy;9.0;congruent;120.0;150.0;157.2463435658512;h_h;;;;;0;47;47;47;;;;;;;698.0566034000367;None;699.639904800104;699.9565775000956;701.1648096002173;701.1812576001976;708.539775100071;None;9;0;708.539775100071;None;;;;;;;;9;;;;0.5622767000459135;;;;710.2645375002176;None;None;None;[];710.2645375002176;None;"['9', '9', '9', '9', '9', '9', '9']";"[0.3737296999897808, 0.6056243998464197, 1.2776591000147164, 1.5015407998580486, 1.701591899851337, 1.8934247000142932, 2.3414251999929547]";710.2645375002176;None;;;S11109;2021_Dec_15_1547;VideoMask;2021.1.2;119.96837648621245;
2.0;f;012_o_f_h_a.jpg;happy;9.0;happy_2.2ns.avi;happy;9.0;congruent;120.0;150.0;206.34800317295262;h_h;;;;;0;48;48;48;;;;;;;713.2644787000027;None;715.2558689001016;715.5727025000378;716.706297100056;716.722554200096;728.9057782001328;None;9;0;728.9057782001328;None;;;;;;;;7;;;;0.4283729000017047;;;;730.4639258000534;None;None;None;[];730.4639258000534;None;"['9', '9']";"[0.3422577001620084, 0.6221315001603216]";730.4639258000534;None;;;S11109;2021_Dec_15_1547;VideoMask;2021.1.2;119.96837648621245;
3.0;m;033_o_m_h_a.jpg;happy;9.0;happy_24.2ns.avi;happy;9.0;congruent;120.0;150.0;167.9423847659953;h_h;;;;;0;49;49;49;;;;;;;733.4638453000225;None;735.080456700176;735.3970530000515;736.5804967000149;736.5970072001219;740.2552717002109;None;9;0;740.2552717002109;None;;;;;;;;6;;;;0.9428678001277149;;;;741.8052549001295;None;None;None;[];741.8052549001295;None;['9'];[1.2648434999864548];741.8052549001295;None;;;S11109;2021_Dec_15_1547;VideoMask;2021.1.2;119.96837648621245;
1.0;f;021_o_f_s_a.jpg;sad;7.0;happy_61.2ns.avi;happy;9.0;incongruent;130.0;150.0;210.94664004826666;s_h;;;;;0;50;50;50;;;;;;;744.805428000167;None;746.8050954001956;747.1217553000897;748.3550586001948;748.3717281001154;752.779839000199;None;8;0;752.779839000199;None;;;;;;;;6;;;;0.6263367999345064;;;;754.3299004000146;None;None;None;[];754.3299004000146;None;['9'];[0.5001648000907153];754.3299004000146;None;;;S11109;2021_Dec_15_1547;VideoMask;2021.1.2;119.96837648621245;
4.0;m;004_o_m_s_a.jpg;sad;7.0;sad_2.4ns.avi;sad;7.0;congruent;130.0;160.0;153.02079367163634;s_s;;;;;0;51;51;51;;;;;;;757.329922700068;None;758.855032700114;759.1713818002027;760.3464541002177;760.3630738002248;768.2713117999956;None;7;0;768.2713117999956;None;;;;;;;;4;;;;0.6708454999607056;;;;769.8378917002119;None;None;None;[];769.8378917002119;None;['7'];[0.4160931999795139];769.8378917002119;None;;;S11109;2021_Dec_15_1547;VideoMask;2021.1.2;119.96837648621245;
8.0;m;008_y_m_h_a.jpg;happy;9.0;happy_1.2ns.avi;happy;9.0;congruent;120.0;150.0;210.98946429383824;h_h;;;;;0;52;52;52;;;;;;;772.8377072000876;None;774.8706961001735;775.1874933000654;776.3125226001721;776.3291371001396;789.1121378000826;None;9;0;789.1121378000826;None;;;;;;;;5;;;;0.9019218999892473;;;;790.6537609000225;None;None;None;[];790.6537609000225;None;None;;790.6537609000225;None;;;S11109;2021_Dec_15_1547;VideoMask;2021.1.2;119.96837648621245;
2.0;f;012_o_f_s_a.jpg;sad;7.0;happy_52.2ns.avi;happy;9.0;incongruent;130.0;150.0;172.57202848318138;s_h;;;;;0;53;53;53;;;;;;;793.6870108000003;None;795.3536059001926;795.6702705000062;796.8367492000107;796.8534542000853;800.3537087000441;None;9;0;800.3537087000441;None;;;;;;;;6;;;;0.5725457000080496;;;;801.9034622001927;None;None;None;[];801.9034622001927;None;['9'];[0.46326410002075136];801.9034622001927;None;;;S11109;2021_Dec_15_1547;VideoMask;2021.1.2;119.96837648621245;
9.0;f;019_m_f_s_a.jpg;sad;7.0;happy_61.1ns.avi;happy;9.0;incongruent;130.0;150.0;181.3003220572762;s_h;;;;;0;54;54;54;;;;;;;804.903390499996;None;806.6948368002195;807.0115220001899;808.1865796002094;808.203147900058;815.5364293002058;None;8;0;815.5364293002058;None;;;;;;;;6;;;;0.550408500013873;;;;817.1696571002249;None;None;None;[];817.1696571002249;None;['9'];[0.7247446998953819];817.1696571002249;None;;;S11109;2021_Dec_15_1547;VideoMask;2021.1.2;119.96837648621245;
0.0;f;030_o_f_h_a.jpg;happy;9.0;sad_133.1.wmv;sad;7.0;incongruent;120.0;160.0;198.86251500867985;h_s;;;;;0;55;55;55;;;;;;;820.1696572001092;None;822.0526983002201;822.3694323000964;823.4943886001129;823.5111477000173;825.5029140000697;None;7;0;825.5029140000697;None;;;;;;;;3;;;;0.9111607000231743;;;;827.0526912000496;None;None;None;[];827.0526912000496;None;"['7', '7', '7']";"[0.77760130004026, 1.0252121000085026, 1.2173039000481367]";827.0526912000496;None;;;S11109;2021_Dec_15_1547;VideoMask;2021.1.2;119.96837648621245;
0.0;f;040_y_f_h_a.jpg;happy;9.0;sad_128.2.wmv;sad;7.0;incongruent;120.0;160.0;206.10005857915363;h_s;;;;;0;56;56;56;;;;;;;830.0526039001998;None;831.9940759001765;832.3108261001762;833.4439913001843;833.4691201001406;835.4444541002158;None;7;0;835.4444541002158;None;;;;;;;;3;;;;0.5857923999428749;;;;836.9940626001917;None;None;None;[];836.9940626001917;None;"['7', '7']";"[0.3243722999468446, 0.8682581998873502]";836.9940626001917;None;;;S11109;2021_Dec_15_1547;VideoMask;2021.1.2;119.96837648621245;
1.0;f;021_o_f_s_a.jpg;sad;7.0;sad_9.5ns.avi;sad;7.0;congruent;130.0;160.0;206.16642757875042;s_s;;;;;0;57;57;57;;;;;;;840.0023266000208;None;841.9354274000507;842.252076000208;843.4191638000775;843.443864800036;849.1103263001423;None;7;0;849.1103263001423;None;;;;;;;;3;;;;0.42377699981443584;;;;850.6603046001401;None;None;None;[];850.6603046001401;None;"['7', '7']";"[0.3059149000328034, 0.4897817000746727]";850.6603046001401;None;;;S11109;2021_Dec_15_1547;VideoMask;2021.1.2;119.96837648621245;
1.0;f;021_o_f_h_a.jpg;happy;9.0;happy_12.1ns.avi;happy;9.0;congruent;120.0;150.0;132.59080005900228;h_h;;;;;0;58;58;58;;;;;;;853.6601985001471;None;855.018357800087;855.3351711002178;856.4767443002202;856.4932734000031;864.0936232001986;None;8;0;864.0936232001986;None;;;;;;;;5;;;;0.4646592999342829;;;;865.8597798000555;None;None;None;[];865.8597798000555;None;None;;865.8597798000555;None;;;S11109;2021_Dec_15_1547;VideoMask;2021.1.2;119.96837648621245;
3.0;m;013_y_m_s_a.jpg;sad;7.0;happy_56.2ns.avi;happy;9.0;incongruent;130.0;150.0;163.39234110935848;s_h;;;;;0;59;59;59;;;;;;;868.8930849002209;None;870.5013387000654;870.8179005000275;872.117817300139;872.1352131001186;876.9845824001823;None;9;0;876.9845824001823;None;;;;;;;;8;;;;0.5576400000136346;;;;878.7677946002223;None;None;None;[];878.7677946002223;None;"['9', '9', '9', '9', '9']";"[0.2785002999007702, 0.5022491998970509, 0.9265534998849034, 1.2943511998746544, 1.7585133998654783]";878.7677946002223;None;;;S11109;2021_Dec_15_1547;VideoMask;2021.1.2;119.96837648621245;
;;;;;;;;;;;;;;;;;;;;;;;;;;;;;;;;;;;;;;;;;;;;;;;;;;;;;;;;;;;;;;;;;881.7761533001903;None;;;;;;
