primePerson;primeGender;prime;primeEmotion;corrAnsPrime;target;targetEmotion;corrAnsTar;Cond;ID_Primer;ID_Target;JitterTime;Condition;example.thisRepN;example.thisTrialN;example.thisN;example.thisIndex;study.thisRepN;study.thisTrialN;study.thisN;study.thisIndex;MR_trigger_time;MR_trigger_number;text_intro.started;text_intro.stopped;text_probe.started;text_probe.stopped;polygon_ISI.started;polygon_ISI.stopped;polygon.started;polygon.stopped;primerImage.started;primerImage.stopped;response.started;response.stopped;key_resp.keys;key_resp.corr;key_resp.rt;key_resp.started;key_resp.stopped;slider_Text.started;slider_Text.stopped;slider_ex.response;slider_ex.rt;slider_ex.history;slider_ex.started;slider_ex.stopped;Rating;slider_resp_response.keys;slider_resp_response.started;slider_resp_response.stopped;text_start.started;text_start.stopped;text_slider.started;text_slider.stopped;slider_stud.response;slider_stud.rt;slider_stud.history;slider_stud.started;slider_stud.stopped;slider_resp_study.keys;slider_resp_study.rt;slider_resp_study.started;slider_resp_study.stopped;text_ende.started;text_ende.stopped;participant;date;expName;psychopyVersion;frameRate;
1111;m;1111_m_m_h_a.jpg;happy;9;example_30.4ns.avi;neutral;7;incongruent;120.0;170.0;189.5874364012288;;0;0;0;0;;;;;51.09479289999581;1;51.17227510000521;53.17230710000149;53.17230710000149;None;55.197998999996344;None;57.447108899999876;57.772226000000956;58.93924930000503;58.963667000003625;63.247016199995414;None;8;0;1.374249400003464;63.247016199995414;None;64.81359340000199;None;None;None;[];64.81359340000199;None;5;None;64.81359340000199;None;;;;;;;;;;;;;;;;S10982;2021_Oct_14_1412;VideoMask;2021.1.2;119.89545115911106;
1113;f;1113_y_f_s_a.jpg;sad;7;example_30.3ns.avi;neutral;7;incongruent;130.0;170.0;229.02432995836998;;0;1;1;1;;;;;;;;;;;67.83019500000228;None;69.9550198999932;70.2717488000053;71.44680740000331;71.46345819999988;73.40506599999208;None;8;0;0.7122130999923684;73.40506599999208;None;74.95495050000318;None;None;None;[];74.95495050000318;None;5;None;74.95495050000318;None;;;;;;;;;;;;;;;;S10982;2021_Oct_14_1412;VideoMask;2021.1.2;119.89545115911106;
9.0;f;019_m_f_h_a.jpg;happy;9.0;sad_115.1.wmv;sad;7.0;incongruent;120.0;160.0;128.09063432376465;h_s;;;;;0;0;0;0;;;;;;;78.98797299999569;None;80.28806350000377;80.60472109999682;81.7380245999957;81.7548417999933;83.73816730000544;None;None;0;;83.73816730000544;None;;;;;;;;4;;;;77.97996499999135;None;85.28783489999478;None;None;None;[];85.28783489999478;None;['7'];[1.0535298000031617];85.28783489999478;None;;;S10982;2021_Oct_14_1412;VideoMask;2021.1.2;119.89545115911106;
3.0;m;033_o_m_s_a.jpg;sad;7.0;sad_94.2ns.avi;sad;7.0;congruent;130.0;160.0;182.29120173647655;s_s;;;;;0;1;1;1;;;;;;;88.28808769999887;None;90.03773589999764;90.35449070000323;91.53785779999453;91.55450349999592;94.17947899999854;None;7;0;0.9536067000008188;94.17947899999854;None;;;;;;;;3;;;;;;95.91274949999934;None;None;None;[];95.91274949999934;None;"['7', '7', '7']";"[0.436643200009712, 0.6523491000116337, 0.9006188000057591]";95.91274949999934;None;;;S10982;2021_Oct_14_1412;VideoMask;2021.1.2;119.89545115911106;
8.0;m;008_y_m_h_a.jpg;happy;9.0;happy_26.1ns.avi;happy;9.0;congruent;120.0;150.0;155.9437854594882;h_h;;;;;0;2;2;2;;;;;;;98.9126050999912;None;100.42076259999885;100.73750089999521;101.93757140000525;101.95416969999496;103.86240709999402;None;9;0;0.7909947000007378;103.86240709999402;None;;;;;;;;6;;;;;;105.91228590000537;None;None;None;[];105.91228590000537;None;['9'];[2.5569965000031516];105.91228590000537;None;;;S10982;2021_Oct_14_1412;VideoMask;2021.1.2;119.89545115911106;
0.0;f;040_y_f_h_a.jpg;happy;9.0;sad_138.1.wmv;sad;7.0;incongruent;120.0;160.0;133.99071306426532;h_s;;;;;0;3;3;3;;;;;;;108.92904129999806;None;110.2538496000052;110.57058309999411;111.69559200000367;111.71227560000261;113.70386670000153;None;None;0;;113.70386670000153;None;;;;;;;;5;;;;;;115.25364840000111;None;None;None;[];115.25364840000111;None;None;;115.25364840000111;None;;;S10982;2021_Oct_14_1412;VideoMask;2021.1.2;119.89545115911106;
8.0;f;028_y_f_s_a.jpg;sad;7.0;sad_64.2ns.avi;sad;7.0;congruent;130.0;160.0;229.88540597086478;s_s;;;;;0;4;4;4;;;;;;;118.2786533000035;None;120.52007800000138;120.8369265999936;121.98744199999783;122.01190559999668;132.9699735000031;None;7;0;0.7234361000009812;132.9699735000031;None;;;;;;;;2;;;;;;134.51987709999958;None;None;None;[];134.51987709999958;None;"['7', '7', '7', '7']";"[0.47739159999764524, 0.701245000003837, 0.9894198999973014, 1.7416308000101708]";134.51987709999958;None;;;S10982;2021_Oct_14_1412;VideoMask;2021.1.2;119.89545115911106;
7.0;m;027_o_m_s_a.jpg;sad;7.0;sad_10.4ns.avi;sad;7.0;congruent;130.0;160.0;185.20129417468752;s_s;;;;;0;5;5;5;;;;;;;137.51999040000373;None;139.2947484000033;139.6113544999971;140.74470290000318;140.76135970000178;143.91140109999105;None;7;0;1.2540313999925274;143.91140109999105;None;;;;;;;;3;;;;;;145.4611933999986;None;None;None;[];145.4611933999986;None;"['7', '7']";"[1.3761269000096945, 1.631914500001585]";145.4611933999986;None;;;S10982;2021_Oct_14_1412;VideoMask;2021.1.2;119.89545115911106;
2.0;f;012_o_f_s_a.jpg;sad;7.0;sad_7.5ns.avi;sad;7.0;congruent;130.0;160.0;220.27842655424388;s_s;;;;;0;6;6;6;;;;;;;148.4613446000003;None;150.5109383999952;150.82761959999334;151.9943643000006;152.01106950000394;154.75295339999138;None;None;0;;154.75295339999138;None;;;;;;;;4;;;;;;156.31088809999346;None;None;None;[];156.31088809999346;None;"['7', '7', '9']";"[0.046576299995649606, 1.7347423000028357, 2.214213400002336]";156.31088809999346;None;;;S10982;2021_Oct_14_1412;VideoMask;2021.1.2;119.89545115911106;
2.0;f;012_o_f_h_a.jpg;happy;9.0;happy_27.1ns.avi;happy;9.0;congruent;120.0;150.0;146.44967055810616;h_h;;;;;0;7;7;7;;;;;;;159.31094630000007;None;160.7523097999947;161.06906199999503;162.2107210999966;162.2274189000018;164.6939934999973;None;None;0;;164.6939934999973;None;;;;;;;;5;;;;;;166.51060219999636;None;None;None;[];166.51060219999636;None;None;;166.51060219999636;None;;;S10982;2021_Oct_14_1412;VideoMask;2021.1.2;119.89545115911106;
8.0;f;028_y_f_h_a.jpg;happy;9.0;sad_119.1.wmv;sad;7.0;incongruent;120.0;160.0;148.71526953572538;h_s;;;;;0;8;8;8;;;;;;;169.52701959999104;None;170.99367470000288;171.31025120000413;172.44417560000147;172.46869650000008;174.51033910000115;None;None;0;;174.51033910000115;None;;;;;;;;5;;;;;;176.10216189999483;None;None;None;[];176.10216189999483;None;['7'];[1.7111936000001151];176.10216189999483;None;;;S10982;2021_Oct_14_1412;VideoMask;2021.1.2;119.89545115911106;
6.0;m;016_y_m_s_a.jpg;sad;7.0;happy_60.4ns.avi;happy;9.0;incongruent;130.0;150.0;126.02367393611817;s_h;;;;;0;9;9;9;;;;;;;179.10207219999575;None;180.4186239999981;180.7351689999923;181.87669469999673;181.89430830000492;187.67676509999728;None;9;0;0.5524594000016805;187.67676509999728;None;;;;;;;;6;;;;;;189.22658950000186;None;None;None;[];189.22658950000186;None;['9'];[0.6664082000061171];189.22658950000186;None;;;S10982;2021_Oct_14_1412;VideoMask;2021.1.2;119.89545115911106;
9.0;f;019_m_f_s_a.jpg;sad;7.0;sad_8.4ns.avi;sad;7.0;congruent;130.0;160.0;171.6633093155257;s_s;;;;;0;10;10;10;;;;;;;192.23502179999196;None;193.92643219999445;194.24317800000426;195.42619260000356;195.44288699999743;203.5178387000051;None;7;0;0.46333669999148697;203.5178387000051;None;;;;;;;;3;;;;;;205.06778299999132;None;None;None;[];205.06778299999132;None;"['7', '7']";"[0.6496016000019154, 0.8733788000099594]";205.06778299999132;None;;;S10982;2021_Oct_14_1412;VideoMask;2021.1.2;119.89545115911106;
4.0;m;004_o_m_h_a.jpg;happy;9.0;happy_1.1ns.avi;happy;9.0;congruent;120.0;150.0;203.50057144619865;h_h;;;;;0;11;11;11;;;;;;;208.0678901999927;None;210.0591362999985;210.375893000004;211.53423900000053;211.55092959999456;225.9921672000055;None;9;0;1.0048849000013433;225.9921672000055;None;;;;;;;;6;;;;;;227.5419983000029;None;None;None;[];227.5419983000029;None;['9'];[0.8235678999917582];227.5419983000029;None;;;S10982;2021_Oct_14_1412;VideoMask;2021.1.2;119.89545115911106;
7.0;m;027_o_m_h_a.jpg;happy;9.0;happy_20.1ns.avi;happy;9.0;congruent;120.0;150.0;152.91127178874285;h_h;;;;;0;12;12;12;;;;;;;230.541950800005;None;232.05023100000108;232.36690700000327;233.5008097999962;233.5170908;236.51710460000322;None;9;0;0.464206299991929;236.51710460000322;None;;;;;;;;7;;;;;;238.06679579999764;None;None;None;[];238.06679579999764;None;"['9', '9']";"[0.46640089999709744, 0.674478500004625]";238.06679579999764;None;;;S10982;2021_Oct_14_1412;VideoMask;2021.1.2;119.89545115911106;
0.0;f;040_y_f_s_a.jpg;sad;7.0;sad_94.3ns.avi;sad;7.0;congruent;130.0;160.0;155.27414203894395;s_s;;;;;0;13;13;13;;;;;;;241.07520320000185;None;242.5915124000021;242.9082228000043;244.05819159999373;244.07480339999893;246.66682389999914;None;7;0;0.6665235999971628;246.66682389999914;None;;;;;;;;1;;;;;;248.22483520000242;None;None;None;[];248.22483520000242;None;"['7', '7', '7', '7']";"[0.3005821999977343, 0.5004483999946387, 0.6683917999907862, 1.1648451999935787]";248.22483520000242;None;;;S10982;2021_Oct_14_1412;VideoMask;2021.1.2;119.89545115911106;
0.0;f;030_o_f_s_a.jpg;sad;7.0;sad_68.1ns.avi;sad;7.0;congruent;130.0;160.0;158.9411396037211;s_s;;;;;0;14;14;14;;;;;;;251.23328119999496;None;252.8248229000019;253.1412852999929;254.30030809999153;254.3246199999994;261.6994848000031;None;7;0;1.105806699997629;261.6994848000031;None;;;;;;;;4;;;;;;263.3158504000021;None;None;None;[];263.3158504000021;None;['7'];[0.3694598000001861];263.3158504000021;None;;;S10982;2021_Oct_14_1412;VideoMask;2021.1.2;119.89545115911106;
0.0;f;030_o_f_h_a.jpg;happy;9.0;sad_127.1.wmv;sad;7.0;incongruent;120.0;160.0;180.59976631384873;h_s;;;;;0;15;15;15;;;;;;;266.31595439999364;None;268.0407717999915;268.35752009999123;269.4826730999921;269.49924839999585;271.49076829999103;None;None;0;;271.49076829999103;None;;;;;;;;3;;;;;;273.0412773999997;None;None;None;[];273.0412773999997;None;"['7', '7']";"[1.1641486000007717, 1.5002430000022287]";273.0412773999997;None;;;S10982;2021_Oct_14_1412;VideoMask;2021.1.2;119.89545115911106;
8.0;m;008_y_m_s_a.jpg;sad;7.0;happy_133.3.wmv;happy;9.0;incongruent;130.0;150.0;152.577966552593;s_h;;;;;0;16;16;16;;;;;;;276.04934860000503;None;277.557184099991;277.8739063999965;278.9990123000025;279.0155759000045;281.0071794999967;None;9;0;1.2383007999887923;281.0071794999967;None;;;;;;;;6;;;;;;282.557149500004;None;None;None;[];282.557149500004;None;['9'];[0.5121118999959435];282.557149500004;None;;;S10982;2021_Oct_14_1412;VideoMask;2021.1.2;119.89545115911106;
3.0;m;033_o_m_h_a.jpg;happy;9.0;sad_128.1.wmv;sad;7.0;incongruent;120.0;160.0;171.0492454518585;h_s;;;;;0;17;17;17;;;;;;;285.5570396999974;None;287.24018789999536;287.55695050000213;288.71509199999855;288.7318705999933;290.69032829999924;None;7;0;1.211051199992653;290.69032829999924;None;;;;;;;;4;;;;;;292.2401739000052;None;None;None;[];292.2401739000052;None;['7'];[0.52529350000259];292.2401739000052;None;;;S10982;2021_Oct_14_1412;VideoMask;2021.1.2;119.89545115911106;
1.0;f;021_o_f_h_a.jpg;happy;9.0;sad_116.1.wmv;sad;7.0;incongruent;120.0;160.0;184.06847610053055;h_s;;;;;0;18;18;18;;;;;;;295.2400858000037;None;297.0149179;297.33160879999923;298.49879739999596;298.52325969999947;300.4650321999943;None;7;0;0.6522385999996914;300.4650321999943;None;;;;;;;;4;;;;;;302.0065644999995;None;None;None;[];302.0065644999995;None;['7'];[0.5348584000021219];302.0065644999995;None;;;S10982;2021_Oct_14_1412;VideoMask;2021.1.2;119.89545115911106;
4.0;m;004_o_m_s_a.jpg;sad;7.0;happy_28.1ns.avi;happy;9.0;incongruent;130.0;150.0;157.40741103039684;s_h;;;;;0;19;19;19;;;;;;;305.0064730000013;None;306.5396794999979;306.8563218999916;308.03120990000025;308.0478892999963;312.3814465000032;None;9;0;0.6318734000087716;312.3814465000032;None;;;;;;;;7;;;;;;313.93955159999314;None;None;None;[];313.93955159999314;None;"['9', '9']";"[0.5377623999956995, 0.7536767999990843]";313.93955159999314;None;;;S10982;2021_Oct_14_1412;VideoMask;2021.1.2;119.89545115911106;
8.0;f;028_y_f_s_a.jpg;sad;7.0;happy_122.3.wmv;happy;9.0;incongruent;130.0;150.0;171.8670540936116;s_h;;;;;0;20;20;20;;;;;;;316.94797929999186;None;318.61426740000024;318.9309776000009;320.06436020000547;320.08109289999993;322.06432449999556;None;9;0;0.6050188999943202;322.06432449999556;None;;;;;;;;7;;;;;;323.6142082000006;None;None;None;[];323.6142082000006;None;"['9', '9']";"[0.4632117000001017, 0.6709078999992926]";323.6142082000006;None;;;S10982;2021_Oct_14_1412;VideoMask;2021.1.2;119.89545115911106;
8.0;m;008_y_m_s_a.jpg;sad;7.0;sad_6.5ns.avi;sad;7.0;congruent;130.0;160.0;170.39333839271438;s_s;;;;;0;21;21;21;;;;;;;326.6143669000012;None;328.2556605999998;328.5723560000042;329.75571159999527;329.7723674000008;334.7056287000014;None;7;0;0.45164739999745507;334.7056287000014;None;;;;;;;;3;;;;;;336.25558399999863;None;None;None;[];336.25558399999863;None;"['7', '7', '7']";"[0.3258077000064077, 0.5016420000029029, 0.95762349999859]";336.25558399999863;None;;;S10982;2021_Oct_14_1412;VideoMask;2021.1.2;119.89545115911106;
8.0;f;028_y_f_h_a.jpg;happy;9.0;happy_23.1ns.avi;happy;9.0;congruent;120.0;150.0;225.70986890587952;h_h;;;;;0;22;22;22;;;;;;;339.25556019999203;None;341.36359249999805;341.68028929999855;342.83010680000007;342.8470636999991;347.3886446999968;None;9;0;0.6414214999967953;347.3886446999968;None;;;;;;;;8;;;;;;349.1384110999934;None;None;None;[];349.1384110999934;None;"['9', '9', '9']";"[0.33106969999789726, 0.522688900004141, 0.690669000003254]";349.1384110999934;None;;;S10982;2021_Oct_14_1412;VideoMask;2021.1.2;119.89545115911106;
8.0;m;008_y_m_h_a.jpg;happy;9.0;sad_111.1.wmv;sad;7.0;incongruent;120.0;160.0;152.63076835312847;h_s;;;;;0;23;23;23;;;;;;;352.1386100999953;None;353.65494609999587;353.971618399999;355.10501329999533;355.121659299999;357.10489990000497;None;7;0;1.7085615999967558;357.10489990000497;None;;;;;;;;4;;;;;;359.2630446999974;None;None;None;[];359.2630446999974;None;['7'];[0.5420988999976544];359.2630446999974;None;;;S10982;2021_Oct_14_1412;VideoMask;2021.1.2;119.89545115911106;
0.0;f;040_y_f_s_a.jpg;sad;7.0;sad_67.2ns.avi;sad;7.0;congruent;130.0;160.0;220.9892697323079;s_s;;;;;0;24;24;24;;;;;;;362.27158220000274;None;364.3796328000026;364.69634219999716;365.86310879999655;365.8799934999988;375.0544744999934;None;7;0;0.4630005000071833;375.0544744999934;None;;;;;;;;2;;;;;;377.26259389999905;None;None;None;[];377.26259389999905;None;"['7', '7', '7']";"[0.46279159998812247, 0.6626994999969611, 1.8546870999998646]";377.26259389999905;None;;;S10982;2021_Oct_14_1412;VideoMask;2021.1.2;119.89545115911106;
8.0;m;008_y_m_s_a.jpg;sad;7.0;happy_29.1ns.avi;happy;9.0;incongruent;130.0;150.0;120.0316142834122;s_h;;;;;0;25;25;25;;;;;;;380.27109189999464;None;381.51245959999505;381.829565299995;382.9712501000031;382.9879127000022;385.6541090999963;None;9;0;0.4871458999987226;385.6541090999963;None;;;;;;;;8;;;;;;387.19571139999607;None;None;None;[];387.19571139999607;None;"['9', '9', '9']";"[0.29761920000601094, 0.4896138000040082, 0.6654565000062576]";387.19571139999607;None;;;S10982;2021_Oct_14_1412;VideoMask;2021.1.2;119.89545115911106;
6.0;m;016_y_m_s_a.jpg;sad;7.0;sad_8.3ns.avi;sad;7.0;congruent;130.0;160.0;152.85371098242734;s_s;;;;;0;26;26;26;;;;;;;390.195859799991;None;391.7372308999911;392.05375849999837;393.22859379999863;393.2453632999968;400.9454049999913;None;7;0;0.7320479000045452;400.9454049999913;None;;;;;;;;4;;;;;;402.49522899999283;None;None;None;[];402.49522899999283;None;"['7', '7']";"[0.30194539998774417, 0.5020525999862002]";402.49522899999283;None;;;S10982;2021_Oct_14_1412;VideoMask;2021.1.2;119.89545115911106;
6.0;m;016_y_m_h_a.jpg;happy;9.0;sad_114.1.wmv;sad;7.0;incongruent;120.0;160.0;136.20550699298644;h_s;;;;;0;27;27;27;;;;;;;405.50354900000093;None;406.87000769999577;407.18673449999187;408.3117493000027;408.32843929999217;410.3201563000039;None;7;0;0.5092087999946671;410.3201563000039;None;;;;;;;;1;;;;;;411.8699568000011;None;None;None;[];411.8699568000011;None;"['7', '7', '7', '7', '7', '7']";"[0.31938059999083634, 0.5112292999983765, 0.8394029999908525, 1.1833834999997634, 1.367242999986047, 1.5433481999934884]";411.8699568000011;None;;;S10982;2021_Oct_14_1412;VideoMask;2021.1.2;119.89545115911106;
7.0;m;027_o_m_s_a.jpg;sad;7.0;happy_117.3.wmv;happy;9.0;incongruent;130.0;150.0;215.61964028550614;s_h;;;;;0;28;28;28;;;;;;;414.8700276000018;None;416.88632789999247;417.2031091999961;418.3364905999915;418.3532048999914;420.3364237999922;None;9;0;0.7887746000051266;420.3364237999922;None;;;;;;;;6;;;;;;421.8779618999979;None;None;None;[];421.8779618999979;None;['9'];[0.5836409000039566];421.8779618999979;None;;;S10982;2021_Oct_14_1412;VideoMask;2021.1.2;119.89545115911106;
6.0;m;016_y_m_h_a.jpg;happy;9.0;happy_9.2ns.avi;happy;9.0;congruent;120.0;150.0;130.52042428082717;h_h;;;;;0;29;29;29;;;;;;;424.87799229999655;None;426.21945619999315;426.5360645000037;427.6695483999938;427.6864512000029;433.5943388000014;None;None;0;;433.5943388000014;None;;;;;;;;6;;;;;;435.1442709999974;None;None;None;[];435.1442709999974;None;"['9', '9']";"[0.005009300002711825, 0.637293400010094]";435.1442709999974;None;;;S10982;2021_Oct_14_1412;VideoMask;2021.1.2;119.89545115911106;
0.0;f;040_y_f_s_a.jpg;sad;7.0;happy_127.3.wmv;happy;9.0;incongruent;130.0;150.0;131.7195455720239;s_h;;;;;0;30;30;30;;;;;;;438.1442442999978;None;439.45235859999957;439.7690258999937;440.89413319999585;440.9108047000045;442.96913929999573;None;9;0;0.6688162999926135;442.96913929999573;None;;;;;;;;6;;;;;;444.5856247000047;None;None;None;[];444.5856247000047;None;['9'];[0.36373189999721944];444.5856247000047;None;;;S10982;2021_Oct_14_1412;VideoMask;2021.1.2;119.89545115911106;
0.0;f;030_o_f_s_a.jpg;sad;7.0;happy_125.3.wmv;happy;9.0;incongruent;130.0;150.0;220.51454909128134;s_h;;;;;0;31;31;31;;;;;;;447.58579470000404;None;449.6437259999948;449.96040789999824;451.1026273000025;451.12709429999813;453.1027585999982;None;9;0;0.6625517999927979;453.1027585999982;None;;;;;;;;6;;;;;;454.8519602000015;None;None;None;[];454.8519602000015;None;['9'];[0.32128619999275543];454.8519602000015;None;;;S10982;2021_Oct_14_1412;VideoMask;2021.1.2;119.89545115911106;
0.0;f;030_o_f_s_a.jpg;sad;7.0;sad_64.3ns.avi;sad;7.0;congruent;130.0;160.0;165.78667874766072;s_s;;;;;0;32;32;32;;;;;;;457.8604236999963;None;459.47673389999545;459.7933536999917;460.9351225999999;460.9518420999957;465.9267789000005;None;7;0;0.5504722999903606;465.9267789000005;None;;;;;;;;2;;;;;;467.47665339999367;None;None;None;[];467.47665339999367;None;"['7', '7', '7']";"[0.2966774000087753, 0.5126279000105569, 1.4328868000011425]";467.47665339999367;None;;;S10982;2021_Oct_14_1412;VideoMask;2021.1.2;119.89545115911106;
3.0;m;013_y_m_s_a.jpg;sad;7.0;sad_7.7ns.avi;sad;7.0;congruent;130.0;160.0;196.24182255763262;s_s;;;;;0;33;33;33;;;;;;;470.4766702000052;None;472.35133000000496;472.6679563999933;473.83451570000034;473.85131009999895;479.801378499993;None;7;0;0.5319900000031339;479.801378499993;None;;;;;;;;2;;;;;;481.35108920000494;None;None;None;[];481.35108920000494;None;"['7', '7', '7']";"[0.3422904000035487, 0.8541278000047896, 1.2301335000083782]";481.35108920000494;None;;;S10982;2021_Oct_14_1412;VideoMask;2021.1.2;119.89545115911106;
3.0;m;013_y_m_h_a.jpg;happy;9.0;happy_9.1ns.avi;happy;9.0;congruent;120.0;150.0;165.1890303600433;h_h;;;;;0;34;34;34;;;;;;;484.35131209999963;None;485.95098169999255;486.2676907999994;487.5008402999956;487.51750919999904;490.64265460000024;None;8;0;1.1466156000096817;490.64265460000024;None;;;;;;;;5;;;;;;492.19261189999816;None;None;None;[];492.19261189999816;None;None;;492.19261189999816;None;;;S10982;2021_Oct_14_1412;VideoMask;2021.1.2;119.89545115911106;
4.0;m;004_o_m_h_a.jpg;happy;9.0;sad_95.1ns.avi;sad;7.0;incongruent;120.0;160.0;152.68270002069931;h_s;;;;;0;35;35;35;;;;;;;495.21727599999576;None;496.77573579999444;497.0924304999935;498.2265438000031;498.2426950999943;507.0179416000028;None;7;0;0.9878294000081951;507.0179416000028;None;;;;;;;;1;;;;;;508.57538979999663;None;None;None;[];508.57538979999663;None;"['7', '7', '7', '7', '7']";"[0.3339632999995956, 0.5178558000043267, 0.6698305000027176, 0.837936299998546, 0.9979762000002665]";508.57538979999663;None;;;S10982;2021_Oct_14_1412;VideoMask;2021.1.2;119.89545115911106;
3.0;m;013_y_m_h_a.jpg;happy;9.0;sad_113.2.wmv;sad;7.0;incongruent;120.0;160.0;217.4973891947951;h_s;;;;;0;36;36;36;;;;;;;511.5752954999916;None;513.6251213999931;513.9417618000007;515.0669465999963;515.083572100004;517.0751352999941;None;8;0;0.9226401000050828;517.0751352999941;None;;;;;;;;5;;;;;;518.6167656000034;None;None;None;[];518.6167656000034;None;None;;518.6167656000034;None;;;S10982;2021_Oct_14_1412;VideoMask;2021.1.2;119.89545115911106;
4.0;m;004_o_m_h_a.jpg;happy;9.0;happy_25.1ns.avi;happy;9.0;congruent;120.0;150.0;216.63044503818386;h_h;;;;;0;37;37;37;;;;;;;521.6331701000017;None;523.6748398000054;523.9916645000048;525.1499136999919;525.1665472000022;528.8166490000003;None;8;0;0.652806199999759;528.8166490000003;None;;;;;;;;6;;;;;;530.3664545999927;None;None;None;[];530.3664545999927;None;['9'];[0.5351587000041036];530.3664545999927;None;;;S10982;2021_Oct_14_1412;VideoMask;2021.1.2;119.89545115911106;
4.0;m;004_o_m_s_a.jpg;sad;7.0;happy_131.2.wmv;happy;9.0;incongruent;130.0;150.0;181.38407540847405;s_h;;;;;0;38;38;38;;;;;;;533.3663596999977;None;535.1078305999981;535.4245418999926;536.5577501999942;536.5745825999911;538.557833999992;None;9;0;0.43153020000318065;538.557833999992;None;;;;;;;;6;;;;;;540.1077799999912;None;None;None;[];540.1077799999912;None;['9'];[0.5137433999916539];540.1077799999912;None;;;S10982;2021_Oct_14_1412;VideoMask;2021.1.2;119.89545115911106;
0.0;f;040_y_f_h_a.jpg;happy;9.0;happy_24.3ns.avi;happy;9.0;congruent;120.0;150.0;213.25460698950434;h_h;;;;;0;39;39;39;;;;;;;543.1162159999949;None;545.0992020999984;545.4159175999957;546.5492239000014;546.5659548999975;548.474223199999;None;9;0;0.4352507000003243;548.474223199999;None;;;;;;;;6;;;;;;550.0241483999998;None;None;None;[];550.0241483999998;None;['9'];[0.5094198000006145];550.0241483999998;None;;;S10982;2021_Oct_14_1412;VideoMask;2021.1.2;119.89545115911106;
2.0;f;012_o_f_s_a.jpg;sad;7.0;happy_139.1.wmv;happy;9.0;incongruent;130.0;150.0;162.31500468041804;s_h;;;;;0;40;40;40;;;;;;;553.0326805999939;None;554.5989061;554.9157530999946;556.0490178000036;556.0657161999989;558.0490616000025;None;8;0;0.6126151999924332;558.0490616000025;None;;;;;;;;6;;;;;;559.6321637999936;None;None;None;[];559.6321637999936;None;['9'];[0.8211618000059389];559.6321637999936;None;;;S10982;2021_Oct_14_1412;VideoMask;2021.1.2;119.89545115911106;
0.0;f;030_o_f_h_a.jpg;happy;9.0;happy_24.1ns.avi;happy;9.0;congruent;120.0;150.0;168.36256624020774;h_h;;;;;0;41;41;41;;;;;;;562.6321209000016;None;564.2652634999977;564.5820071000053;565.7241469;565.7486956999928;569.0570890999952;None;9;0;0.9243755999923451;569.0570890999952;None;;;;;;;;6;;;;;;570.6152269000013;None;None;None;[];570.6152269000013;None;['9'];[0.6142247999960091];570.6152269000013;None;;;S10982;2021_Oct_14_1412;VideoMask;2021.1.2;119.89545115911106;
2.0;f;012_o_f_h_a.jpg;happy;9.0;sad_113.1.wmv;sad;7.0;incongruent;120.0;160.0;177.44551734737394;h_s;;;;;0;42;42;42;;;;;;;573.6151941999997;None;575.3232973999984;575.6399531999923;576.7731875000027;576.7900399999926;578.7733015999984;None;7;0;0.3760417999874335;578.7733015999984;None;;;;;;;;4;;;;;;580.3233027999959;None;None;None;[];580.3233027999959;None;['7'];[1.1462196999927983];580.3233027999959;None;;;S10982;2021_Oct_14_1412;VideoMask;2021.1.2;119.89545115911106;
3.0;m;033_o_m_s_a.jpg;sad;7.0;sad_64.5ns.avi;sad;7.0;congruent;130.0;160.0;130.55717223801247;s_s;;;;;0;43;43;43;;;;;;;583.323181300002;None;584.656322099996;584.9729727999947;586.1398228999897;586.156436300007;592.6898413000017;None;7;0;0.4674014000047464;592.6898413000017;None;;;;;;;;1;;;;;;594.2394917000056;None;None;None;[];594.2394917000056;None;"['7', '7', '7', '7', '7']";"[0.270026299986057, 0.48584109998773783, 0.8137509000080172, 0.989958399994066, 1.1817407000053208]";594.2394917000056;None;;;S10982;2021_Oct_14_1412;VideoMask;2021.1.2;119.89545115911106;
7.0;m;027_o_m_h_a.jpg;happy;9.0;sad_117.1.wmv;sad;7.0;incongruent;120.0;160.0;181.28665202824095;h_s;;;;;0;44;44;44;;;;;;;597.2479387000058;None;598.9892545000039;599.3061796999973;600.4398331999982;600.4643498000078;602.4477681999997;None;8;0;1.2218355000077281;602.4477681999997;None;;;;;;;;4;;;;;;603.9975896999968;None;None;None;[];603.9975896999968;None;['7'];[0.5680673999886494];603.9975896999968;None;;;S10982;2021_Oct_14_1412;VideoMask;2021.1.2;119.89545115911106;
3.0;m;033_o_m_s_a.jpg;sad;7.0;happy_126.3.wmv;happy;9.0;incongruent;130.0;150.0;198.85252030535366;s_h;;;;;0;45;45;45;;;;;;;607.0059627999872;None;608.8976471999922;609.2140811999998;610.3471972000116;610.3724043000111;612.3473571000068;None;8;0;1.0498052000184543;612.3473571000068;None;;;;;;;;5;;;;;;613.897256399985;None;None;None;[];613.897256399985;None;"['9', '7']";"[0.8444089000113308, 1.5003032000095118]";613.897256399985;None;;;S10982;2021_Oct_14_1412;VideoMask;2021.1.2;119.89545115911106;
3.0;m;033_o_m_h_a.jpg;happy;9.0;sad_136.1.wmv;sad;7.0;incongruent;120.0;160.0;176.97002883463455;h_s;;;;;0;46;46;46;;;;;;;616.8973705000099;None;618.597007599994;618.9138094000082;620.0388162000017;620.0554357000074;622.0470311000099;None;None;0;;622.0470311000099;None;;;;;;;;5;;;;;;623.5970231999963;None;None;None;[];623.5970231999963;None;None;;623.5970231999963;None;;;S10982;2021_Oct_14_1412;VideoMask;2021.1.2;119.89545115911106;
9.0;f;019_m_f_h_a.jpg;happy;9.0;happy_10.1ns.avi;happy;9.0;congruent;120.0;150.0;157.2463435658512;h_h;;;;;0;47;47;47;;;;;;;626.6217370999948;None;628.1967474999983;628.513615799995;629.6634063999954;629.6801437999966;637.088365699994;None;9;0;0.5010214999783784;637.088365699994;None;;;;;;;;8;;;;;;638.6382404999895;None;None;None;[];638.6382404999895;None;"['9', '9', '9']";"[0.30338349999510683, 0.5590265000064392, 1.8313420999911614]";638.6382404999895;None;;;S10982;2021_Oct_14_1412;VideoMask;2021.1.2;119.89545115911106;
2.0;f;012_o_f_h_a.jpg;happy;9.0;happy_2.2ns.avi;happy;9.0;congruent;120.0;150.0;206.34800317295262;h_h;;;;;0;48;48;48;;;;;;;641.6382550000126;None;643.6294956999918;643.9463448999886;645.1381423999992;645.1547272000025;657.2877735000075;None;9;0;1.0062558999925386;657.2877735000075;None;;;;;;;;6;;;;;;658.8375770999846;None;None;None;[];658.8375770999846;None;['9'];[0.4159458000212908];658.8375770999846;None;;;S10982;2021_Oct_14_1412;VideoMask;2021.1.2;119.89545115911106;
3.0;m;033_o_m_h_a.jpg;happy;9.0;happy_24.2ns.avi;happy;9.0;congruent;120.0;150.0;167.9423847659953;h_h;;;;;0;49;49;49;;;;;;;661.8459961000044;None;663.4623728000006;663.7791360000119;664.9296115999896;664.9458034999989;668.6374222999875;None;9;0;0.9278934999892954;668.6374222999875;None;;;;;;;;6;;;;;;670.1872179999918;None;None;None;[];670.1872179999918;None;"['9', '9', '7']";"[0.5542986000073142, 0.850128100020811, 2.5621341000078246]";670.1872179999918;None;;;S10982;2021_Oct_14_1412;VideoMask;2021.1.2;119.89545115911106;
1.0;f;021_o_f_s_a.jpg;sad;7.0;happy_61.2ns.avi;happy;9.0;incongruent;130.0;150.0;210.94664004826666;s_h;;;;;0;50;50;50;;;;;;;673.1873463000084;None;675.1954154999839;675.5120496000018;676.6875938000012;676.7119310999842;681.1702441999951;None;9;0;0.6673243999830447;681.1702441999951;None;;;;;;;;6;;;;;;682.7202479000116;None;None;None;[];682.7202479000116;None;"['9', '9']";"[0.27730019998853095, 0.4850266000139527]";682.7202479000116;None;;;S10982;2021_Oct_14_1412;VideoMask;2021.1.2;119.89545115911106;
4.0;m;004_o_m_s_a.jpg;sad;7.0;sad_2.4ns.avi;sad;7.0;congruent;130.0;160.0;153.02079367163634;s_s;;;;;0;51;51;51;;;;;;;685.7287159999978;None;687.2367995999957;687.5532423000113;688.7284376000025;688.7450535000098;696.6451259000023;None;7;0;0.7042303999769501;696.6451259000023;None;;;;;;;;2;;;;;;698.2029779000004;None;None;None;[];698.2029779000004;None;"['7', '7', '7']";"[0.44258189998799935, 0.7142345999891404, 1.6746554999845102]";698.2029779000004;None;;;S10982;2021_Oct_14_1412;VideoMask;2021.1.2;119.89545115911106;
8.0;m;008_y_m_h_a.jpg;happy;9.0;happy_1.2ns.avi;happy;9.0;congruent;120.0;150.0;210.98946429383824;h_h;;;;;0;52;52;52;;;;;;;701.2030072999914;None;703.2612922999979;703.5782282999862;704.7195686999912;704.7362740000099;717.5025722999853;None;9;0;0.6627660999947693;717.5025722999853;None;;;;;;;;5;;;;;;719.0524730000034;None;None;None;[];719.0524730000034;None;"['9', '7']";"[0.9129483999859076, 1.7372022999916226]";719.0524730000034;None;;;S10982;2021_Oct_14_1412;VideoMask;2021.1.2;119.89545115911106;
2.0;f;012_o_f_s_a.jpg;sad;7.0;happy_52.2ns.avi;happy;9.0;incongruent;130.0;150.0;172.57202848318138;s_h;;;;;0;53;53;53;;;;;;;722.060945499994;None;723.7356597999897;724.05227130001;725.2277553999884;725.2522428000084;728.7355726999958;None;9;0;1.133950300019933;728.7355726999958;None;;;;;;;;6;;;;;;730.5937059999997;None;None;None;[];730.5937059999997;None;['9'];[1.6999381000059657];730.5937059999997;None;;;S10982;2021_Oct_14_1412;VideoMask;2021.1.2;119.89545115911106;
9.0;f;019_m_f_s_a.jpg;sad;7.0;happy_61.1ns.avi;happy;9.0;incongruent;130.0;150.0;181.3003220572762;s_h;;;;;0;54;54;54;;;;;;;733.5937832000054;None;735.377015799997;735.6935577000113;736.8684275999985;736.8850979999843;744.2184025999886;None;9;0;0.7870862999989185;744.2184025999886;None;;;;;;;;5;;;;;;745.7599880999915;None;None;None;[];745.7599880999915;None;None;;745.7599880999915;None;;;S10982;2021_Oct_14_1412;VideoMask;2021.1.2;119.89545115911106;
0.0;f;030_o_f_h_a.jpg;happy;9.0;sad_133.1.wmv;sad;7.0;incongruent;120.0;160.0;198.86251500867985;h_s;;;;;0;55;55;55;;;;;;;748.7847574000043;None;750.6763925000123;750.9930433000118;752.1265854000085;752.1430430000037;754.1269945000095;None;None;0;;754.1269945000095;None;;;;;;;;5;;;;;;755.6769482999953;None;None;None;[];755.6769482999953;None;None;;755.6769482999953;None;;;S10982;2021_Oct_14_1412;VideoMask;2021.1.2;119.89545115911106;
0.0;f;040_y_f_h_a.jpg;happy;9.0;sad_128.2.wmv;sad;7.0;incongruent;120.0;160.0;206.10005857915363;h_s;;;;;0;56;56;56;;;;;;;758.7011581999977;None;760.6344376999914;760.9511130000028;762.0843987999979;762.1012025000091;764.084483300001;None;7;0;0.4247859000170138;764.084483300001;None;;;;;;;;3;;;;;;765.8429388000077;None;None;None;[];765.8429388000077;None;"['7', '7']";"[0.7704701999900863, 1.7544035000028089]";765.8429388000077;None;;;S10982;2021_Oct_14_1412;VideoMask;2021.1.2;119.89545115911106;
1.0;f;021_o_f_s_a.jpg;sad;7.0;sad_9.5ns.avi;sad;7.0;congruent;130.0;160.0;206.16642757875042;s_s;;;;;0;57;57;57;;;;;;;768.8427941000118;None;770.7924512000027;771.1098875999887;772.2758587999997;772.2940362999943;777.9675076999847;None;7;0;1.3982571999949869;777.9675076999847;None;;;;;;;;5;;;;;;779.6590581000055;None;None;None;[];779.6590581000055;None;None;;779.6590581000055;None;;;S10982;2021_Oct_14_1412;VideoMask;2021.1.2;119.89545115911106;
1.0;f;021_o_f_h_a.jpg;happy;9.0;happy_12.1ns.avi;happy;9.0;congruent;120.0;150.0;132.59080005900228;h_h;;;;;0;58;58;58;;;;;;;782.6839210000035;None;784.0505339999945;784.3671267999889;785.5672329999943;785.5837810000085;793.1171463999926;None;9;0;1.3842942000192124;793.1171463999926;None;;;;;;;;7;;;;;;794.6751487000001;None;None;None;[];794.6751487000001;None;"['9', '9', '9']";"[0.9943872999865562, 1.4024305999919306, 1.778389499988407]";794.6751487000001;None;;;S10982;2021_Oct_14_1412;VideoMask;2021.1.2;119.89545115911106;
3.0;m;013_y_m_s_a.jpg;sad;7.0;happy_56.2ns.avi;happy;9.0;incongruent;130.0;150.0;163.39234110935848;s_h;;;;;0;59;59;59;;;;;;;797.683588800006;None;799.2749515999894;799.5916422000009;800.7331078999996;800.7498497000051;805.76673019999;None;9;0;1.0868111999880057;805.76673019999;None;;;;;;;;6;;;;;;807.3165335999947;None;None;None;[];807.3165335999947;None;['9'];[0.7130144000111613];807.3165335999947;None;;;S10982;2021_Oct_14_1412;VideoMask;2021.1.2;119.89545115911106;
;;;;;;;;;;;;;;;;;;;;;;;;;;;;;;;;;;;;;;;;;;;;;;;;;;;;;;;;;;;;;;;;810.3165525999939;None;;;;;;
