primePerson;primeGender;prime;primeEmotion;corrAnsPrime;target;targetEmotion;corrAnsTar;Cond;ID_Primer;ID_Target;JitterTime;example.thisRepN;example.thisTrialN;example.thisN;example.thisIndex;study.thisRepN;study.thisTrialN;study.thisN;study.thisIndex;MR_trigger_time;MR_trigger_number;text_intro.started;text_intro.stopped;text_probe.started;text_probe.stopped;polygon_ISI.started;polygon_ISI.stopped;polygon.started;polygon.stopped;primerImage.started;primerImage.stopped;response.started;response.stopped;key_resp.keys;key_resp.corr;key_resp.started;key_resp.stopped;slider_Text.started;slider_Text.stopped;slider_ex.response;slider_ex.rt;slider_ex.history;slider_ex.started;slider_ex.stopped;Rating;slider_resp_response.keys;slider_resp_response.started;slider_resp_response.stopped;text_start.started;text_start.stopped;key_resp.rt;text_slider.started;text_slider.stopped;slider_stud.response;slider_stud.rt;slider_stud.history;slider_stud.started;slider_stud.stopped;slider_resp_study.keys;slider_resp_study.rt;slider_resp_study.started;slider_resp_study.stopped;text_ende.started;text_ende.stopped;participant;date;expName;psychopyVersion;frameRate;
1111;m;1111_m_m_h_a.jpg;happy;9;example_30.4ns.avi;neutral;7;incongruent;120.0;170.0;189.5874364012288;0;0;0;0;;;;;74.15751599997748;1;74.23489229998086;76.23511760000838;76.23511760000838;None;78.25221249996684;None;80.45141520001926;80.7766236999887;81.90149359998759;81.91823870001826;86.25965630001156;None;None;0;86.25965630001156;None;87.80968020000728;None;None;None;[];87.80968020000728;None;5;None;87.80968020000728;None;;;;;;;;;;;;;;;;;S10775;2021_Jul_26_1439;VideoMask;2021.1.2;120.0230924232041;
1113;f;1113_y_f_s_a.jpg;sad;7;example_30.3ns.avi;neutral;7;incongruent;130.0;170.0;229.02432995836998;0;1;1;1;;;;;;;;;;;90.84298529999796;None;92.95126020000316;93.26786939997692;94.41785919998074;94.43450929998653;96.40148890001001;None;None;0;96.40148890001001;None;97.95146000001114;None;None;None;[];97.95146000001114;None;5;None;97.95146000001114;None;;;;;;;;;;;;;;;;;S10775;2021_Jul_26_1439;VideoMask;2021.1.2;120.0230924232041;
3.0;m;033_o_m_s_a.jpg;sad;7.0;sad_94.2ns.avi;sad;7.0;congruent;130.0;160.0;228.63582583242618;;;;;0;0;0;0;;;;;;;101.98434249998536;None;104.10076719999779;104.41751349996775;105.60897240001941;105.62569119996624;108.2425615999964;None;7;0;108.2425615999964;None;;;;;;;;3;;;;100.97662400000263;None;1.010783799982164;109.80083439999726;None;None;None;[];109.80083439999726;None;"['7', '7']";"[0.49263629998313263, 1.5167501000105403]";109.80083439999726;None;;;S10775;2021_Jul_26_1439;VideoMask;2021.1.2;120.0230924232041;
0.0;f;030_o_f_s_a.jpg;sad;7.0;sad_68.1ns.avi;sad;7.0;congruent;130.0;160.0;163.14738846961149;;;;;0;1;1;1;;;;;;;112.80086710001342;None;114.37544969998999;114.69220429996494;115.85882349999156;115.87561930000084;123.25030249997508;None;None;0;123.25030249997508;None;;;;;;;;3;;;;;;;124.80037259997334;None;None;None;[];124.80037259997334;None;"['7', '7']";"[0.36499560001539066, 0.7169616000028327]";124.80037259997334;None;;;S10775;2021_Jul_26_1439;VideoMask;2021.1.2;120.0230924232041;
8.0;m;008_y_m_h_a.jpg;happy;9.0;happy_26.1ns.avi;happy;9.0;congruent;140.0;150.0;184.58211837191982;;;;;0;2;2;2;;;;;;;127.80863039998803;None;129.5333620000165;129.85042659996543;131.00016489997506;131.0167972999625;132.97506249998696;None;None;0;132.97506249998696;None;;;;;;;;5;;;;;;;134.52489170001354;None;None;None;[];134.52489170001354;None;None;;134.52489170001354;None;;;S10775;2021_Jul_26_1439;VideoMask;2021.1.2;120.0230924232041;
0.0;f;030_o_f_s_a.jpg;sad;7.0;happy_125.3.wmv;happy;9.0;incongruent;130.0;150.0;189.50417957278896;;;;;0;3;3;3;;;;;;;137.5589472000138;None;139.36643449997064;139.68319909996353;140.8165808999911;140.83307359996252;142.81647099996917;None;None;0;142.81647099996917;None;;;;;;;;7;;;;;;;144.36686429998372;None;None;None;[];144.36686429998372;None;"['9', '9']";"[1.2307085000211373, 2.078329299984034]";144.36686429998372;None;;;S10775;2021_Jul_26_1439;VideoMask;2021.1.2;120.0230924232041;
1.0;f;021_o_f_s_a.jpg;sad;7.0;sad_9.5ns.avi;sad;7.0;congruent;130.0;160.0;156.55128602613038;;;;;0;4;4;4;;;;;;;147.3663319000043;None;148.87450649996754;149.19133750000037;150.3995252000168;150.41623929998605;156.04943909996655;None;None;0;156.04943909996655;None;;;;;;;;3;;;;;;;157.59958229999756;None;None;None;[];157.59958229999756;None;"['7', '7']";"[0.6777115999720991, 2.1497132999938913]";157.59958229999756;None;;;S10775;2021_Jul_26_1439;VideoMask;2021.1.2;120.0230924232041;
4.0;m;004_o_m_s_a.jpg;sad;7.0;happy_28.1ns.avi;happy;9.0;incongruent;130.0;150.0;219.83540383939274;;;;;0;5;5;5;;;;;;;160.59934169996995;None;162.63246019999497;162.94914719997905;164.09130550001282;164.1159155999776;168.4741591999773;None;None;0;168.4741591999773;None;;;;;;;;8;;;;;;;170.02438139996957;None;None;None;[];170.02438139996957;None;"['9', '9', '9']";"[0.2768445000401698, 0.5811702000210062, 0.8929704999900423]";170.02438139996957;None;;;S10775;2021_Jul_26_1439;VideoMask;2021.1.2;120.0230924232041;
2.0;f;012_o_f_s_a.jpg;sad;7.0;sad_7.5ns.avi;sad;7.0;congruent;130.0;160.0;147.95125229894379;;;;;0;6;6;6;;;;;;;173.02419419999933;None;174.44877259997884;174.76549449999584;175.92369839997264;175.9403645999846;178.69075919996249;None;None;0;178.69075919996249;None;;;;;;;;3;;;;;;;180.40698129998054;None;None;None;[];180.40698129998054;None;"['7', '7', '7', '7']";"[0.014397700026165694, 0.30245560000184923, 0.6703931000083685, 1.0304061999777332]";180.40698129998054;None;;;S10775;2021_Jul_26_1439;VideoMask;2021.1.2;120.0230924232041;
2.0;f;012_o_f_s_a.jpg;sad;7.0;happy_52.2ns.avi;happy;9.0;incongruent;130.0;150.0;144.3898903070799;;;;;0;7;7;7;;;;;;;183.4154252000153;None;184.81517939997138;185.13183329999447;186.30686349997995;186.3236322000157;189.8153230000171;None;None;0;189.8153230000171;None;;;;;;;;4;;;;;;;191.35660970001481;None;None;None;[];191.35660970001481;None;['7'];[1.6810148999793455];191.35660970001481;None;;;S10775;2021_Jul_26_1439;VideoMask;2021.1.2;120.0230924232041;
0.0;f;040_y_f_s_a.jpg;sad;7.0;sad_67.2ns.avi;sad;7.0;congruent;130.0;160.0;192.80086779892653;;;;;0;8;8;8;;;;;;;194.37336339999456;None;196.19822799996473;196.51508199999807;197.71498069999507;197.73162699997192;206.8731439000112;None;None;0;206.8731439000112;None;;;;;;;;5;;;;;;;208.42367889999878;None;None;None;[];208.42367889999878;None;None;;208.42367889999878;None;;;S10775;2021_Jul_26_1439;VideoMask;2021.1.2;120.0230924232041;
3.0;m;013_y_m_s_a.jpg;sad;7.0;happy_56.2ns.avi;happy;9.0;incongruent;130.0;150.0;134.62621969351147;;;;;0;9;9;9;;;;;;;211.43957849999424;None;212.76438110001618;213.08102599997073;214.3061635000049;214.32278330001282;219.23930020001717;None;None;0;219.23930020001717;None;;;;;;;;6;;;;;;;220.78923699998995;None;None;None;[];220.78923699998995;None;['9'];[0.3202975000021979];220.78923699998995;None;;;S10775;2021_Jul_26_1439;VideoMask;2021.1.2;120.0230924232041;
0.0;f;030_o_f_h_a.jpg;happy;9.0;sad_133.1.wmv;sad;7.0;incongruent;120.0;160.0;238.4103736452693;;;;;0;10;10;10;;;;;;;223.78939970000647;None;225.99737280001864;226.31409539998276;227.4555445999722;227.47249580000062;229.44745540001895;None;None;0;229.44745540001895;None;;;;;;;;4;;;;;;;230.9971544999862;None;None;None;[];230.9971544999862;None;['7'];[1.648173100023996];230.9971544999862;None;;;S10775;2021_Jul_26_1439;VideoMask;2021.1.2;120.0230924232041;
2.0;f;012_o_f_h_a.jpg;happy;9.0;happy_2.2ns.avi;happy;9.0;congruent;140.0;150.0;120.08648649110712;;;;;0;11;11;11;;;;;;;234.00568920001388;None;235.24700139998458;235.56385450001108;236.7638442000025;236.780575199984;248.89704419998452;None;None;0;248.89704419998452;None;;;;;;;;3;;;;;;;250.45498719997704;None;None;None;[];250.45498719997704;None;"['7', '7']";"[0.6546655999845825, 2.8306842999882065]";250.45498719997704;None;;;S10775;2021_Jul_26_1439;VideoMask;2021.1.2;120.0230924232041;
9.0;f;019_m_f_s_a.jpg;sad;7.0;sad_8.4ns.avi;sad;7.0;congruent;130.0;160.0;169.3395974323834;;;;;0;12;12;12;;;;;;;253.45508210000116;None;255.09649650001666;255.4133646999835;256.59700229996815;256.62160919996677;264.6798535999842;None;None;0;264.6798535999842;None;;;;;;;;3;;;;;;;266.22960939997574;None;None;None;[];266.22960939997574;None;"['7', '7']";"[0.5281165999476798, 0.8960148000041954]";266.22960939997574;None;;;S10775;2021_Jul_26_1439;VideoMask;2021.1.2;120.0230924232041;
8.0;m;008_y_m_s_a.jpg;sad;7.0;sad_6.5ns.avi;sad;7.0;congruent;130.0;160.0;124.24628091899196;;;;;0;13;13;13;;;;;;;269.229628400004;None;270.49608100001933;270.81278189999284;271.9377865999704;271.9545050999732;276.9461030999664;None;None;0;276.9461030999664;None;;;;;;;;4;;;;;;;278.49584240000695;None;None;None;[];278.49584240000695;None;['7'];[0.4057436999864876];278.49584240000695;None;;;S10775;2021_Jul_26_1439;VideoMask;2021.1.2;120.0230924232041;
1.0;f;021_o_f_h_a.jpg;happy;9.0;happy_12.1ns.avi;happy;9.0;congruent;140.0;150.0;236.6487020138435;;;;;0;14;14;14;;;;;;;281.4960259000072;None;283.68738959997427;284.0041643999866;285.13757710001664;285.1541222999804;292.7539828000008;None;None;0;292.7539828000008;None;;;;;;;;7;;;;;;;294.30417399998987;None;None;None;[];294.30417399998987;None;"['9', '9', '9', '9', '7']";"[0.41347739996854216, 0.8695526999654248, 1.4375389000051655, 1.8292883000103757, 2.9655644000158645]";294.30417399998987;None;;;S10775;2021_Jul_26_1439;VideoMask;2021.1.2;120.0230924232041;
8.0;f;028_y_f_s_a.jpg;sad;7.0;sad_64.2ns.avi;sad;7.0;congruent;130.0;160.0;238.8507440172915;;;;;0;15;15;15;;;;;;;297.3121900999686;None;299.5370557999704;299.85376259998884;301.07012950000353;301.08704909996595;311.9868223000085;None;None;0;311.9868223000085;None;;;;;;;;3;;;;;;;313.52820459997747;None;None;None;[];313.52820459997747;None;"['7', '7']";"[0.49349419999634847, 1.9655348000233062]";313.52820459997747;None;;;S10775;2021_Jul_26_1439;VideoMask;2021.1.2;120.0230924232041;
2.0;f;012_o_f_s_a.jpg;sad;7.0;happy_139.1.wmv;happy;9.0;incongruent;130.0;150.0;185.59030554143408;;;;;0;16;16;16;;;;;;;316.5365902999765;None;318.3035126000177;318.61976349999895;319.7530102999881;319.7696455999976;321.7537176000187;None;None;0;321.7537176000187;None;;;;;;;;6;;;;;;;323.30366199999116;None;None;None;[];323.30366199999116;None;['9'];[0.5499421000131406];323.30366199999116;None;;;S10775;2021_Jul_26_1439;VideoMask;2021.1.2;120.0230924232041;
3.0;m;033_o_m_s_a.jpg;sad;7.0;sad_64.5ns.avi;sad;7.0;congruent;130.0;160.0;159.52646627166388;;;;;0;17;17;17;;;;;;;326.30305039999075;None;327.8361275999923;328.1528566000052;329.30290319997584;329.31952770001953;335.8693698999705;None;None;0;335.8693698999705;None;;;;;;;;3;;;;;;;337.41931239998667;None;None;None;[];337.41931239998667;None;"['7', '7']";"[0.39474359998712316, 0.7221197999897413]";337.41931239998667;None;;;S10775;2021_Jul_26_1439;VideoMask;2021.1.2;120.0230924232041;
0.0;f;040_y_f_s_a.jpg;sad;7.0;happy_127.3.wmv;happy;9.0;incongruent;130.0;150.0;131.0431594605889;;;;;0;18;18;18;;;;;;;340.41915999999037;None;341.71908750000875;342.0358053999953;343.16918799997075;343.1858426000108;345.23596089996863;None;None;0;345.23596089996863;None;;;;;;;;7;;;;;;;346.78556589997606;None;None;None;[];346.78556589997606;None;"['9', '9']";"[0.4838879000162706, 0.7880872000241652]";346.78556589997606;None;;;S10775;2021_Jul_26_1439;VideoMask;2021.1.2;120.0230924232041;
3.0;m;033_o_m_h_a.jpg;happy;9.0;sad_128.1.wmv;sad;7.0;incongruent;120.0;160.0;168.97426303437265;;;;;0;19;19;19;;;;;;;349.78576719999546;None;351.40217820002;351.71898639999563;352.85220869997283;352.86902899999404;354.85214059997816;None;None;0;354.85214059997816;None;;;;;;;;4;;;;;;;356.4019974999828;None;None;None;[];356.4019974999828;None;['7'];[0.843931799987331];356.4019974999828;None;;;S10775;2021_Jul_26_1439;VideoMask;2021.1.2;120.0230924232041;
9.0;f;019_m_f_h_a.jpg;happy;9.0;sad_115.1.wmv;sad;7.0;incongruent;120.0;160.0;202.13700247699333;;;;;0;20;20;20;;;;;;;359.4105038999696;None;361.30190159997437;361.6186750999768;362.74375009996584;362.76029299997026;364.7520316999871;None;None;0;364.7520316999871;None;;;;;;;;4;;;;;;;366.3016932000173;None;None;None;[];366.3016932000173;None;['7'];[0.5200513000017963];366.3016932000173;None;;;S10775;2021_Jul_26_1439;VideoMask;2021.1.2;120.0230924232041;
8.0;m;008_y_m_h_a.jpg;happy;9.0;happy_1.2ns.avi;happy;9.0;congruent;140.0;150.0;155.22310421045015;;;;;0;21;21;21;;;;;;;369.3019121999969;None;370.83485300000757;371.15208769997116;372.310052899993;372.3266508000088;385.0764406999806;None;None;0;385.0764406999806;None;;;;;;;;4;;;;;;;386.62637600000016;None;None;None;[];386.62637600000016;None;['7'];[1.8033516999566928];386.62637600000016;None;;;S10775;2021_Jul_26_1439;VideoMask;2021.1.2;120.0230924232041;
0.0;f;040_y_f_s_a.jpg;sad;7.0;sad_94.3ns.avi;sad;7.0;congruent;130.0;160.0;157.18644691248227;;;;;0;22;22;22;;;;;;;389.62625490000937;None;391.12592969997786;391.4427168999682;392.60115379997296;392.6177820999874;395.2011730999802;None;None;0;395.2011730999802;None;;;;;;;;4;;;;;;;396.7508328999975;None;None;None;[];396.7508328999975;None;['7'];[2.159055099997204];396.7508328999975;None;;;S10775;2021_Jul_26_1439;VideoMask;2021.1.2;120.0230924232041;
6.0;m;016_y_m_s_a.jpg;sad;7.0;happy_60.4ns.avi;happy;9.0;incongruent;130.0;150.0;135.96622391936876;;;;;0;23;23;23;;;;;;;399.75931200000923;None;401.10080690000905;401.41758259997005;402.56753830000525;402.5841983999708;408.34245860000374;None;None;0;408.34245860000374;None;;;;;;;;6;;;;;;;409.8928047000081;None;None;None;[];409.8928047000081;None;['9'];[0.33687810000265017];409.8928047000081;None;;;S10775;2021_Jul_26_1439;VideoMask;2021.1.2;120.0230924232041;
0.0;f;030_o_f_h_a.jpg;happy;9.0;happy_24.1ns.avi;happy;9.0;congruent;140.0;150.0;187.2363405679046;;;;;0;24;24;24;;;;;;;412.8922400000156;None;414.6587314999779;414.975416900008;416.11708210001234;416.1337240000139;419.45035679999273;None;None;0;419.45035679999273;None;;;;;;;;6;;;;;;;421.000762199983;None;None;None;[];421.000762199983;None;['9'];[2.1810600999742746];421.000762199983;None;;;S10775;2021_Jul_26_1439;VideoMask;2021.1.2;120.0230924232041;
8.0;m;008_y_m_s_a.jpg;sad;7.0;happy_133.3.wmv;happy;9.0;incongruent;130.0;150.0;151.65964880545846;;;;;0;25;25;25;;;;;;;424.00034969998524;None;425.4666390999919;425.783469899965;426.9087544999784;426.92505620000884;428.91673220001394;None;None;0;428.91673220001394;None;;;;;;;;6;;;;;;;430.4665619999869;None;None;None;[];430.4665619999869;None;"['9', '9']";"[1.6514212000183761, 2.2031981000327505]";430.4665619999869;None;;;S10775;2021_Jul_26_1439;VideoMask;2021.1.2;120.0230924232041;
1.0;f;021_o_f_s_a.jpg;sad;7.0;happy_61.2ns.avi;happy;9.0;incongruent;130.0;150.0;146.79956415721207;;;;;0;26;26;26;;;;;;;433.46680449997075;None;434.88311280001653;435.19988540001214;436.35799839999527;436.37488449999364;440.86644020001404;None;None;0;440.86644020001404;None;;;;;;;;6;;;;;;;442.41647080000257;None;None;None;[];442.41647080000257;None;['9'];[2.149299799988512];442.41647080000257;None;;;S10775;2021_Jul_26_1439;VideoMask;2021.1.2;120.0230924232041;
1.0;f;021_o_f_h_a.jpg;happy;9.0;sad_116.1.wmv;sad;7.0;incongruent;120.0;160.0;205.93899364307754;;;;;0;27;27;27;;;;;;;445.42482329998165;None;447.3494574999786;447.66616919997614;448.8328731000074;448.8495185999782;450.80783090001205;None;None;0;450.80783090001205;None;;;;;;;;3;;;;;;;452.3582441000035;None;None;None;[];452.3582441000035;None;"['7', '7', '9', '7']";"[0.3836270999745466, 1.3119025999912992, 2.1995707000023685, 2.695587099995464]";452.3582441000035;None;;;S10775;2021_Jul_26_1439;VideoMask;2021.1.2;120.0230924232041;
7.0;m;027_o_m_h_a.jpg;happy;9.0;happy_20.1ns.avi;happy;9.0;congruent;140.0;150.0;145.4488529976734;;;;;0;28;28;28;;;;;;;455.3577746999799;None;456.76576219999697;457.0826454000198;458.21597740001744;458.2325843999861;461.23318189999554;None;None;0;461.23318189999554;None;;;;;;;;6;;;;;;;462.7823313999688;None;None;None;[];462.7823313999688;None;['9'];[0.4315206999890506];462.7823313999688;None;;;S10775;2021_Jul_26_1439;VideoMask;2021.1.2;120.0230924232041;
3.0;m;033_o_m_s_a.jpg;sad;7.0;happy_126.3.wmv;happy;9.0;incongruent;130.0;150.0;220.47504181707743;;;;;0;29;29;29;;;;;;;465.78260819998104;None;467.8405350999674;468.157330899965;469.29037669999525;469.3071368999663;471.28240530000767;None;None;0;471.28240530000767;None;;;;;;;;7;;;;;;;472.83295630000066;None;None;None;[];472.83295630000066;None;"['9', '9']";"[0.5092409999924712, 1.6451016999781132]";472.83295630000066;None;;;S10775;2021_Jul_26_1439;VideoMask;2021.1.2;120.0230924232041;
4.0;m;004_o_m_s_a.jpg;sad;7.0;sad_2.4ns.avi;sad;7.0;congruent;130.0;160.0;153.9424691910033;;;;;0;30;30;30;;;;;;;475.84052610001527;None;477.3319373999839;477.6486651999876;478.80709089996526;478.8236239000107;486.74040730000706;None;None;0;486.74040730000706;None;;;;;;;;3;;;;;;;488.2983760999632;None;None;None;[];488.2983760999632;None;"['7', '7', '7']";"[0.34756179997930303, 0.635501499986276, 1.0195748999831267]";488.2983760999632;None;;;S10775;2021_Jul_26_1439;VideoMask;2021.1.2;120.0230924232041;
8.0;m;008_y_m_h_a.jpg;happy;9.0;sad_111.1.wmv;sad;7.0;incongruent;120.0;160.0;182.0123397825363;;;;;0;31;31;31;;;;;;;491.3068806999945;None;493.0315308999852;493.34816320001846;494.4733530000085;494.48997960001;496.4816636000178;None;None;0;496.4816636000178;None;;;;;;;;3;;;;;;;498.031345699972;None;None;None;[];498.031345699972;None;"['7', '7']";"[1.038733699999284, 1.7745746000437066]";498.031345699972;None;;;S10775;2021_Jul_26_1439;VideoMask;2021.1.2;120.0230924232041;
4.0;m;004_o_m_h_a.jpg;happy;9.0;happy_1.1ns.avi;happy;9.0;congruent;140.0;150.0;145.41905773865074;;;;;0;32;32;32;;;;;;;501.03972080000676;None;502.50617639999837;502.8229429000057;504.0061553000123;504.0227972000139;518.4393350000028;None;None;0;518.4393350000028;None;;;;;;;;6;;;;;;;519.9890797999687;None;None;None;[];519.9890797999687;None;['9'];[0.36885650001931936];519.9890797999687;None;;;S10775;2021_Jul_26_1439;VideoMask;2021.1.2;120.0230924232041;
4.0;m;004_o_m_s_a.jpg;sad;7.0;happy_131.2.wmv;happy;9.0;incongruent;130.0;150.0;163.9874412082805;;;;;0;33;33;33;;;;;;;522.9890194999753;None;524.5972585999989;524.9141921999981;526.0472971000127;526.0640614000149;528.0474693999859;None;None;0;528.0474693999859;None;;;;;;;;6;;;;;;;529.5971046999912;None;None;None;[];529.5971046999912;None;['9'];[2.680633799987845];529.5971046999912;None;;;S10775;2021_Jul_26_1439;VideoMask;2021.1.2;120.0230924232041;
2.0;f;012_o_f_h_a.jpg;happy;9.0;happy_27.1ns.avi;happy;9.0;congruent;140.0;150.0;207.9053492649655;;;;;0;34;34;34;;;;;;;532.5973566999892;None;534.51367939997;534.8304056999623;535.9636621999671;535.98070309998;538.4553691999754;None;None;0;538.4553691999754;None;;;;;;;;4;;;;;;;540.0052848000196;None;None;None;[];540.0052848000196;None;['7'];[1.2249451999668963];540.0052848000196;None;;;S10775;2021_Jul_26_1439;VideoMask;2021.1.2;120.0230924232041;
7.0;m;027_o_m_s_a.jpg;sad;7.0;happy_117.3.wmv;happy;9.0;incongruent;130.0;150.0;218.0520785974414;;;;;0;35;35;35;;;;;;;543.0053401999758;None;545.0383626999683;545.3551775999949;546.4884561999934;546.5054672000115;548.4886479999986;None;None;0;548.4886479999986;None;;;;;;;;7;;;;;;;550.0383319999673;None;None;None;[];550.0383319999673;None;"['9', '9']";"[0.42370690003735945, 1.287735000019893]";550.0383319999673;None;;;S10775;2021_Jul_26_1439;VideoMask;2021.1.2;120.0230924232041;
2.0;f;012_o_f_h_a.jpg;happy;9.0;sad_113.1.wmv;sad;7.0;incongruent;120.0;160.0;192.53137802384992;;;;;0;36;36;36;;;;;;;553.0384400999756;None;554.8464424000122;555.1632082000142;556.2881742999889;556.3047592999646;558.2966044999775;None;None;0;558.2966044999775;None;;;;;;;;3;;;;;;;559.8465331000043;None;None;None;[];559.8465331000043;None;"['7', '7']";"[0.4390720999799669, 1.2875416000024416]";559.8465331000043;None;;;S10775;2021_Jul_26_1439;VideoMask;2021.1.2;120.0230924232041;
8.0;f;028_y_f_h_a.jpg;happy;9.0;happy_23.1ns.avi;happy;9.0;congruent;140.0;150.0;159.76384515822056;;;;;0;37;37;37;;;;;;;562.8465030000079;None;564.3711461999919;564.6878720999812;565.8294969999697;565.8462321999832;570.3968654999626;None;None;0;570.3968654999626;None;;;;;;;;7;;;;;;;572.3131550999824;None;None;None;[];572.3131550999824;None;"['9', '9']";"[0.412805899977684, 0.8128622000222094]";572.3131550999824;None;;;S10775;2021_Jul_26_1439;VideoMask;2021.1.2;120.0230924232041;
0.0;f;030_o_f_s_a.jpg;sad;7.0;sad_64.3ns.avi;sad;7.0;congruent;130.0;160.0;172.91738127163183;;;;;0;38;38;38;;;;;;;575.3211633000174;None;576.9708316000178;577.2875605999725;578.4456493000034;578.4623925000196;583.4209159999737;None;None;0;583.4209159999737;None;;;;;;;;3;;;;;;;584.9707898999914;None;None;None;[];584.9707898999914;None;"['7', '7']";"[0.8833056999719702, 1.5631309999735095]";584.9707898999914;None;;;S10775;2021_Jul_26_1439;VideoMask;2021.1.2;120.0230924232041;
6.0;m;016_y_m_h_a.jpg;happy;9.0;sad_114.1.wmv;sad;7.0;incongruent;120.0;160.0;196.03539454983184;;;;;0;39;39;39;;;;;;;587.9706348999753;None;589.8121826999704;590.1287988999975;591.2619748999714;591.2788209000137;593.2622183999629;None;None;0;593.2622183999629;None;;;;;;;;5;;;;;;;594.812681099982;None;None;None;[];594.812681099982;None;None;;594.812681099982;None;;;S10775;2021_Jul_26_1439;VideoMask;2021.1.2;120.0230924232041;
6.0;m;016_y_m_s_a.jpg;sad;7.0;sad_8.3ns.avi;sad;7.0;congruent;130.0;160.0;139.87174075953956;;;;;0;40;40;40;;;;;;;597.845576199994;None;599.2287171999924;599.5452906999853;600.7037269999855;600.7202857999946;608.436795799993;None;None;0;608.436795799993;None;;;;;;;;3;;;;;;;609.9865366999875;None;None;None;[];609.9865366999875;None;"['7', '7', '7', '7']";"[0.41959040000801906, 0.8194819000200368, 1.1714728000224568, 1.7156822999822907]";609.9865366999875;None;;;S10775;2021_Jul_26_1439;VideoMask;2021.1.2;120.0230924232041;
7.0;m;027_o_m_s_a.jpg;sad;7.0;sad_10.4ns.avi;sad;7.0;congruent;130.0;160.0;163.89298117292617;;;;;0;41;41;41;;;;;;;612.9867286999943;None;614.5697725999635;614.8865375000169;616.036596299964;616.0531837000162;619.1865723999799;None;None;0;619.1865723999799;None;;;;;;;;2;;;;;;;620.7364668999799;None;None;None;[];620.7364668999799;None;"['7', '7', '7']";"[0.31753520003985614, 0.7176498000044376, 1.4055756999878213]";620.7364668999799;None;;;S10775;2021_Jul_26_1439;VideoMask;2021.1.2;120.0230924232041;
3.0;m;013_y_m_h_a.jpg;happy;9.0;happy_9.1ns.avi;happy;9.0;congruent;140.0;150.0;128.37211756912527;;;;;0;42;42;42;;;;;;;623.7364990999922;None;625.0199726999854;625.3362191999913;626.4779651999706;626.4946272000088;629.702795499994;None;None;0;629.702795499994;None;;;;;;;;6;;;;;;;631.2528192999889;None;None;None;[];631.2528192999889;None;['9'];[0.5051463000127114];631.2528192999889;None;;;S10775;2021_Jul_26_1439;VideoMask;2021.1.2;120.0230924232041;
7.0;m;027_o_m_h_a.jpg;happy;9.0;sad_117.1.wmv;sad;7.0;incongruent;120.0;160.0;163.19466748508617;;;;;0;43;43;43;;;;;;;634.2526689000078;None;635.8274977999972;636.1442473999923;637.269294800004;637.2859470999683;639.2859182999819;None;None;0;639.2859182999819;None;;;;;;;;5;;;;;;;640.8356531999889;None;None;None;[];640.8356531999889;None;None;;640.8356531999889;None;;;S10775;2021_Jul_26_1439;VideoMask;2021.1.2;120.0230924232041;
4.0;m;004_o_m_h_a.jpg;happy;9.0;sad_95.1ns.avi;sad;7.0;incongruent;120.0;160.0;162.95060606286506;;;;;0;44;44;44;;;;;;;643.8691624999628;None;645.452539699967;645.7689380999655;646.9106900999905;646.9272923999815;655.6938572999788;None;None;0;655.6938572999788;None;;;;;;;;2;;;;;;;657.2523431999725;None;None;None;[];657.2523431999725;None;"['7', '7', '7', '7']";"[0.3857906000339426, 0.7137917000218295, 1.3938119999947958, 1.833789500000421]";657.2523431999725;None;;;S10775;2021_Jul_26_1439;VideoMask;2021.1.2;120.0230924232041;
0.0;f;040_y_f_h_a.jpg;happy;9.0;sad_128.2.wmv;sad;7.0;incongruent;120.0;160.0;121.98396994352893;;;;;0;45;45;45;;;;;;;660.2519544999814;None;661.4684536000132;661.7851911999751;662.9184250999824;662.9352515999926;664.918623399979;None;None;0;664.918623399979;None;;;;;;;;3;;;;;;;666.4768560999655;None;None;None;[];666.4768560999655;None;"['7', '7', '7']";"[0.4011981000076048, 1.1692472000140697, 1.9213288000319153]";666.4768560999655;None;;;S10775;2021_Jul_26_1439;VideoMask;2021.1.2;120.0230924232041;
0.0;f;040_y_f_h_a.jpg;happy;9.0;sad_138.1.wmv;sad;7.0;incongruent;120.0;160.0;195.60264978061832;;;;;0;46;46;46;;;;;;;669.4852185999625;None;671.3181253999937;671.6348698000074;672.7682367999805;672.7849215000169;674.7681425000192;None;None;0;674.7681425000192;None;;;;;;;;4;;;;;;;676.3182020999957;None;None;None;[];676.3182020999957;None;['7'];[1.3998811999917962];676.3182020999957;None;;;S10775;2021_Jul_26_1439;VideoMask;2021.1.2;120.0230924232041;
8.0;m;008_y_m_s_a.jpg;sad;7.0;happy_29.1ns.avi;happy;9.0;incongruent;130.0;150.0;212.92407054126133;;;;;0;47;47;47;;;;;;;679.3265541999717;None;681.2928873999626;681.6095971000032;682.7680148999789;682.7846183999791;685.4348216999788;None;None;0;685.4348216999788;None;;;;;;;;7;;;;;;;686.9846263999934;None;None;None;[];686.9846263999934;None;"['9', '9']";"[0.5416909999912605, 0.9656695000012405]";686.9846263999934;None;;;S10775;2021_Jul_26_1439;VideoMask;2021.1.2;120.0230924232041;
0.0;f;040_y_f_h_a.jpg;happy;9.0;happy_24.3ns.avi;happy;9.0;congruent;140.0;150.0;190.23859628619445;;;;;0;48;48;48;;;;;;;689.9929257999756;None;691.7675676000072;692.0843936000019;693.259181100002;693.2760194999864;695.1426460999646;None;None;0;695.1426460999646;None;;;;;;;;5;;;;;;;696.6928833000129;None;None;None;[];696.6928833000129;None;None;;696.6928833000129;None;;;S10775;2021_Jul_26_1439;VideoMask;2021.1.2;120.0230924232041;
3.0;m;033_o_m_h_a.jpg;happy;9.0;happy_24.2ns.avi;happy;9.0;congruent;140.0;150.0;127.28107088671867;;;;;0;49;49;49;;;;;;;699.7256644999725;None;700.9923252000008;701.3090746999951;702.4591433000169;702.4757169999648;706.1674333999981;None;None;0;706.1674333999981;None;;;;;;;;4;;;;;;;707.7171277999878;None;None;None;[];707.7171277999878;None;['7'];[1.0172026000218466];707.7171277999878;None;;;S10775;2021_Jul_26_1439;VideoMask;2021.1.2;120.0230924232041;
9.0;f;019_m_f_s_a.jpg;sad;7.0;happy_61.1ns.avi;happy;9.0;incongruent;130.0;150.0;190.9434091532566;;;;;0;50;50;50;;;;;;;710.7262067999691;None;712.5336377999629;712.8503903999808;713.9918968999991;714.0085374999908;721.3753332999768;None;None;0;721.3753332999768;None;;;;;;;;5;;;;;;;722.9253548000124;None;None;None;[];722.9253548000124;None;None;;722.9253548000124;None;;;S10775;2021_Jul_26_1439;VideoMask;2021.1.2;120.0230924232041;
8.0;f;028_y_f_h_a.jpg;happy;9.0;sad_119.1.wmv;sad;7.0;incongruent;120.0;160.0;178.10396226647933;;;;;0;51;51;51;;;;;;;725.9583576999721;None;727.6498913000105;727.9666206999682;729.0997908000136;729.1165986999986;731.1672919999692;None;None;0;731.1672919999692;None;;;;;;;;3;;;;;;;732.7164519999642;None;None;None;[];732.7164519999642;None;"['7', '7', '7']";"[0.5059280000277795, 1.5776052000001073, 2.2498349000234157]";732.7164519999642;None;;;S10775;2021_Jul_26_1439;VideoMask;2021.1.2;120.0230924232041;
3.0;m;033_o_m_h_a.jpg;happy;9.0;sad_136.1.wmv;sad;7.0;incongruent;120.0;160.0;206.04367658109783;;;;;0;52;52;52;;;;;;;735.7165581000154;None;737.6413045999943;737.958394300018;739.0913853999809;739.1080461000092;741.0997059000074;None;None;0;741.0997059000074;None;;;;;;;;2;;;;;;;742.6498802999849;None;None;None;[];742.6498802999849;None;"['7', '7', '7', '7']";"[0.4522415000246838, 0.7963132000295445, 1.1884324999991804, 1.5405023000203073]";742.6498802999849;None;;;S10775;2021_Jul_26_1439;VideoMask;2021.1.2;120.0230924232041;
6.0;m;016_y_m_h_a.jpg;happy;9.0;happy_9.2ns.avi;happy;9.0;congruent;140.0;150.0;136.52220806776708;;;;;0;53;53;53;;;;;;;745.6580208999803;None;746.9993592000101;747.3161079999991;748.466227900004;748.4828013000078;754.3743256999878;None;None;0;754.3743256999878;None;;;;;;;;6;;;;;;;755.9245548999752;None;None;None;[];755.9245548999752;None;['9'];[0.4176482000038959];755.9245548999752;None;;;S10775;2021_Jul_26_1439;VideoMask;2021.1.2;120.0230924232041;
9.0;f;019_m_f_h_a.jpg;happy;9.0;happy_10.1ns.avi;happy;9.0;congruent;140.0;150.0;180.35091595488527;;;;;0;54;54;54;;;;;;;758.9242700000177;None;760.64057519997;760.9574315999635;762.0826575999963;762.0990401000017;769.5405040999758;None;None;0;769.5405040999758;None;;;;;;;;6;;;;;;;771.0905392999994;None;None;None;[];771.0905392999994;None;['9'];[0.32364610000513494];771.0905392999994;None;;;S10775;2021_Jul_26_1439;VideoMask;2021.1.2;120.0230924232041;
8.0;f;028_y_f_s_a.jpg;sad;7.0;happy_122.3.wmv;happy;9.0;incongruent;130.0;150.0;204.27932588393085;;;;;0;55;55;55;;;;;;;774.0905897999764;None;776.006879499997;776.3236073000007;777.4574017999694;777.4819394999649;779.4569555000053;None;None;0;779.4569555000053;None;;;;;;;;7;;;;;;;781.0067093999824;None;None;None;[];781.0067093999824;None;"['9', '9']";"[0.5913076000288129, 1.1996044000261463]";781.0067093999824;None;;;S10775;2021_Jul_26_1439;VideoMask;2021.1.2;120.0230924232041;
3.0;m;013_y_m_s_a.jpg;sad;7.0;sad_7.7ns.avi;sad;7.0;congruent;130.0;160.0;192.40728800739942;;;;;0;56;56;56;;;;;;;784.0152988000191;None;785.8316702999873;786.1484376000008;787.3150898999884;787.3316559999948;793.2815076999832;None;None;0;793.2815076999832;None;;;;;;;;3;;;;;;;794.8397201999906;None;None;None;[];794.8397201999906;None;"['7', '7']";"[0.3986153000150807, 0.7823037999914959]";794.8397201999906;None;;;S10775;2021_Jul_26_1439;VideoMask;2021.1.2;120.0230924232041;
3.0;m;013_y_m_h_a.jpg;happy;9.0;sad_113.2.wmv;sad;7.0;incongruent;120.0;160.0;219.6544115751568;;;;;0;57;57;57;;;;;;;797.8399163999711;None;799.8895275999676;800.2063099999796;801.3397031999775;801.3563309999881;803.3313910000143;None;None;0;803.3313910000143;None;;;;;;;;3;;;;;;;804.8812786000199;None;None;None;[];804.8812786000199;None;"['7', '7']";"[0.661022900021635, 1.3968608000432141]";804.8812786000199;None;;;S10775;2021_Jul_26_1439;VideoMask;2021.1.2;120.0230924232041;
4.0;m;004_o_m_h_a.jpg;happy;9.0;happy_25.1ns.avi;happy;9.0;congruent;140.0;150.0;237.98255695511958;;;;;0;58;58;58;;;;;;;807.8813538000104;None;810.064262299973;810.3810830999864;811.5061336999643;811.5227574000019;815.2064534999663;None;None;0;815.2064534999663;None;;;;;;;;4;;;;;;;817.0974266999983;None;None;None;[];817.0974266999983;None;"['9', '7']";"[2.0288990000262856, 2.6208252999931574]";817.0974266999983;None;;;S10775;2021_Jul_26_1439;VideoMask;2021.1.2;120.0230924232041;
0.0;f;030_o_f_h_a.jpg;happy;9.0;sad_127.1.wmv;sad;7.0;incongruent;120.0;160.0;231.85538291836468;;;;;0;59;59;59;;;;;;;820.1059232999687;None;822.2474028000142;822.5639912000042;823.6978897000081;823.7148420999874;825.697285000002;None;None;0;825.697285000002;None;;;;;;;;4;;;;;;;827.2554271999979;None;None;None;[];827.2554271999979;None;['7'];[1.1029852000065148];827.2554271999979;None;;;S10775;2021_Jul_26_1439;VideoMask;2021.1.2;120.0230924232041;
;;;;;;;;;;;;;;;;;;;;;;;;;;;;;;;;;;;;;;;;;;;;;;;;;;;;;;;;;;;;;;;830.2554879999952;None;;;;;;
