primePerson;primeGender;prime;primeEmotion;corrAnsPrime;target;targetEmotion;corrAnsTar;Cond;ID_Primer;ID_Target;JitterTime;Condition;example.thisRepN;example.thisTrialN;example.thisN;example.thisIndex;study.thisRepN;study.thisTrialN;study.thisN;study.thisIndex;MR_trigger_time;MR_trigger_number;text_intro.started;text_intro.stopped;text_probe.started;text_probe.stopped;polygon_ISI.started;polygon_ISI.stopped;polygon.started;polygon.stopped;primerImage.started;primerImage.stopped;response.started;response.stopped;key_resp.keys;key_resp.corr;key_resp.rt;key_resp.started;key_resp.stopped;slider_Text.started;slider_Text.stopped;slider_ex.response;slider_ex.rt;slider_ex.history;slider_ex.started;slider_ex.stopped;Rating;slider_resp_response.keys;slider_resp_response.rt;slider_resp_response.started;slider_resp_response.stopped;text_start.started;text_start.stopped;text_slider.started;text_slider.stopped;slider_stud.response;slider_stud.rt;slider_stud.history;slider_stud.started;slider_stud.stopped;slider_resp_study.keys;slider_resp_study.rt;slider_resp_study.started;slider_resp_study.stopped;text_ende.started;text_ende.stopped;participant;date;expName;psychopyVersion;frameRate;
1111;m;1111_m_m_h_a.jpg;happy;9;example_30.4ns.avi;neutral;7;incongruent;120.0;170.0;189.5874364012288;;0;0;0;0;;;;;155.1572636999772;1;155.23485349997645;157.23504829994636;157.23504829994636;None;159.26829859998543;None;161.56831609999062;161.89319189998787;163.068502399954;163.0930728999665;167.36811769998167;None;9;0;0.9663374000228941;167.36811769998167;None;168.92606059997343;None;None;None;[];168.92606059997343;None;7;"['9', '9']";"[1.232340699993074, 1.5765521000139415]";168.92606059997343;None;;;;;;;;;;;;;;;;S10915;2021_Sep_20_1128;VideoMask;2021.1.2;120.02683800971528;
1113;f;1113_y_f_s_a.jpg;sad;7;example_30.3ns.avi;neutral;7;incongruent;130.0;170.0;229.02432995836998;;0;1;1;1;;;;;;;;;;;171.9179976999876;None;174.05926219996763;174.37634579994483;175.5177102999878;175.53440329997102;177.51764289999846;None;None;0;;177.51764289999846;None;179.0676255999715;None;None;None;[];179.0676255999715;None;6;['9'];[2.9305481999763288];179.0676255999715;None;;;;;;;;;;;;;;;;S10915;2021_Sep_20_1128;VideoMask;2021.1.2;120.02683800971528;
9.0;f;019_m_f_h_a.jpg;happy;9.0;sad_115.1.wmv;sad;7.0;incongruent;120.0;160.0;128.09063432376465;h_s;;;;;0;0;0;0;;;;;;;183.10083539999323;None;184.40065539994976;184.71734699996887;185.8589431999717;185.8756423999439;187.86735269997735;None;7;0;0.35497500002384186;187.86735269997735;None;;;;;;;;2;;;;;182.0677603999502;None;189.42571149999276;None;None;None;[];189.42571149999276;None;"['7', '7', '7', '7', '9']";"[0.49310939997667447, 0.7085291999974288, 0.9086779999779537, 1.0925138000166044, 1.9725878000026569]";189.42571149999276;None;;;S10915;2021_Sep_20_1128;VideoMask;2021.1.2;120.02683800971528;
3.0;m;033_o_m_s_a.jpg;sad;7.0;sad_94.2ns.avi;sad;7.0;congruent;130.0;160.0;182.29120173647655;s_s;;;;;0;1;1;1;;;;;;;192.41722999996273;None;194.14197649998823;194.45884449995356;195.5844665999757;195.60882139997557;198.2837207999546;None;None;0;;198.2837207999546;None;;;;;;;;2;;;;;;;199.83367199997883;None;None;None;[];199.83367199997883;None;"['7', '7', '7']";"[0.24457929999334738, 0.49273979995632544, 1.2366896999883465]";199.83367199997883;None;;;S10915;2021_Sep_20_1128;VideoMask;2021.1.2;120.02683800971528;
8.0;m;008_y_m_h_a.jpg;happy;9.0;happy_26.1ns.avi;happy;9.0;congruent;120.0;150.0;155.9437854594882;h_h;;;;;0;2;2;2;;;;;;;202.83363149996148;None;204.32512059999863;204.64179719996173;205.8251322999713;205.84174419997726;207.76664249994792;None;None;0;;207.76664249994792;None;;;;;;;;9;;;;;;;209.3166333999834;None;None;None;[];209.3166333999834;None;"['9', '9', '9', '9']";"[0.2577968999976292, 0.4975713999592699, 0.6977670000051148, 0.8977336999960244]";209.3166333999834;None;;;S10915;2021_Sep_20_1128;VideoMask;2021.1.2;120.02683800971528;
0.0;f;040_y_f_h_a.jpg;happy;9.0;sad_138.1.wmv;sad;7.0;incongruent;120.0;160.0;133.99071306426532;h_s;;;;;0;3;3;3;;;;;;;212.3166584999999;None;213.64137599995593;213.95816019998165;215.08330949995434;215.0997901999508;217.09139679995133;None;7;0;0.23475709999911487;217.09139679995133;None;;;;;;;;2;;;;;;;218.64138739998452;None;None;None;[];218.64138739998452;None;"['7', '7', '7']";"[0.3412930000340566, 0.5807552000042051, 0.8609108999953605]";218.64138739998452;None;;;S10915;2021_Sep_20_1128;VideoMask;2021.1.2;120.02683800971528;
8.0;f;028_y_f_s_a.jpg;sad;7.0;sad_64.2ns.avi;sad;7.0;congruent;130.0;160.0;229.88540597086478;s_s;;;;;0;4;4;4;;;;;;;221.64970129996073;None;223.84964229998877;224.16606869996758;225.35790449997876;225.3744452999672;236.2997651999467;None;None;0;;236.2997651999467;None;;;;;;;;1;;;;;;;237.84892739995848;None;None;None;[];237.84892739995848;None;"['7', '7', '7', '7', '7', '7']";"[0.31748460000380874, 0.5651281999889761, 0.8132634999928996, 1.0453092000097968, 1.4372851999942213, 1.7976223999867216]";237.84892739995848;None;;;S10915;2021_Sep_20_1128;VideoMask;2021.1.2;120.02683800971528;
7.0;m;027_o_m_s_a.jpg;sad;7.0;sad_10.4ns.avi;sad;7.0;congruent;130.0;160.0;185.20129417468752;s_s;;;;;0;5;5;5;;;;;;;240.84898729994893;None;242.62381309998455;242.94058669998776;244.13225279998733;244.14873769995756;247.24050019995775;None;None;0;;247.24050019995775;None;;;;;;;;2;;;;;;;248.78200969996396;None;None;None;[];248.78200969996396;None;"['7', '7', '7']";"[0.25654269999358803, 0.5281929000047967, 0.8001399000058882]";248.78200969996396;None;;;S10915;2021_Sep_20_1128;VideoMask;2021.1.2;120.02683800971528;
2.0;f;012_o_f_s_a.jpg;sad;7.0;sad_7.5ns.avi;sad;7.0;congruent;130.0;160.0;220.27842655424388;s_s;;;;;0;6;6;6;;;;;;;251.7988060999778;None;253.831805099966;254.14863779995358;255.29858289996628;255.3152548999642;258.0738751999452;None;None;0;;258.0738751999452;None;;;;;;;;3;;;;;;;259.65662269998575;None;None;None;[];259.65662269998575;None;"['7', '7', '7', '7', '7', '9']";"[0.2937825999688357, 0.5816009999834932, 0.8215772999683395, 1.0935766999609768, 1.749687899951823, 2.5977143999771215]";259.65662269998575;None;;;S10915;2021_Sep_20_1128;VideoMask;2021.1.2;120.02683800971528;
2.0;f;012_o_f_h_a.jpg;happy;9.0;happy_27.1ns.avi;happy;9.0;congruent;120.0;150.0;146.44967055810616;h_h;;;;;0;7;7;7;;;;;;;262.6650349999545;None;264.089817399974;264.4065648999531;265.54801889997907;265.56494269997347;268.03146749996813;None;None;0;;268.03146749996813;None;;;;;;;;9;;;;;;;269.6646238999674;None;None;None;[];269.6646238999674;None;"['9', '9', '9', '9']";"[0.2778014999930747, 0.5659743000287563, 0.8055365000036545, 1.02945329999784]";269.6646238999674;None;;;S10915;2021_Sep_20_1128;VideoMask;2021.1.2;120.02683800971528;
8.0;f;028_y_f_h_a.jpg;happy;9.0;sad_119.1.wmv;sad;7.0;incongruent;120.0;160.0;148.71526953572538;h_s;;;;;0;8;8;8;;;;;;;272.66476999997394;None;274.1311767999432;274.448088599951;275.5810839999467;275.5977705999976;277.64785449998453;None;None;0;;277.64785449998453;None;;;;;;;;1;;;;;;;279.19763549999334;None;None;None;[];279.19763549999334;None;"['7', '7', '7', '7', '7']";"[0.28081279998878017, 0.5366811999701895, 0.7684077000012621, 0.992606199986767, 1.248708400002215]";279.19763549999334;None;;;S10915;2021_Sep_20_1128;VideoMask;2021.1.2;120.02683800971528;
6.0;m;016_y_m_s_a.jpg;sad;7.0;happy_60.4ns.avi;happy;9.0;incongruent;130.0;150.0;126.02367393611817;s_h;;;;;0;9;9;9;;;;;;;282.2059600999928;None;283.52262079995126;283.83927619998576;285.01432219997514;285.03082119999453;290.7808215999976;None;None;0;;290.7808215999976;None;;;;;;;;6;;;;;;;292.3221134999767;None;None;None;[];292.3221134999767;None;['9'];[0.2999614999862388];292.3221134999767;None;;;S10915;2021_Sep_20_1128;VideoMask;2021.1.2;120.02683800971528;
9.0;f;019_m_f_s_a.jpg;sad;7.0;sad_8.4ns.avi;sad;7.0;congruent;130.0;160.0;171.6633093155257;s_s;;;;;0;10;10;10;;;;;;;295.3307753999834;None;297.0054953999934;297.32217849994777;298.53092849999666;298.5554941999726;306.5887357999454;None;7;0;0.28949529997771606;306.5887357999454;None;;;;;;;;2;;;;;;;308.1385743999854;None;None;None;[];308.1385743999854;None;"['7', '7', '7']";"[0.20377810002537444, 0.4595866000163369, 0.7319933000253513]";308.1385743999854;None;;;S10915;2021_Sep_20_1128;VideoMask;2021.1.2;120.02683800971528;
4.0;m;004_o_m_h_a.jpg;happy;9.0;happy_1.1ns.avi;happy;9.0;congruent;120.0;150.0;203.50057144619865;h_h;;;;;0;11;11;11;;;;;;;311.1385644999682;None;313.12161209998885;313.4384500999586;314.5717719999957;314.5883448999957;329.0545572999981;None;None;0;;329.0545572999981;None;;;;;;;;9;;;;;;;330.97170009999536;None;None;None;[];330.97170009999536;None;"['9', '9', '9', '9', '7']";"[0.5143265999504365, 0.8423202999983914, 1.1063783999998122, 1.586643299960997, 1.986284999991767]";330.97170009999536;None;;;S10915;2021_Sep_20_1128;VideoMask;2021.1.2;120.02683800971528;
7.0;m;027_o_m_h_a.jpg;happy;9.0;happy_20.1ns.avi;happy;9.0;congruent;120.0;150.0;152.91127178874285;h_h;;;;;0;12;12;12;;;;;;;333.97944969998207;None;335.47935219999636;335.79609949997393;336.9710373999551;336.9876747999806;339.94596069998806;None;None;0;;339.94596069998806;None;;;;;;;;9;;;;;;;341.49572099995567;None;None;None;[];341.49572099995567;None;"['9', '9', '9', '9']";"[0.39044069999363273, 0.6786123000201769, 1.6142932000220753, 1.8544585999916308]";341.49572099995567;None;;;S10915;2021_Sep_20_1128;VideoMask;2021.1.2;120.02683800971528;
0.0;f;040_y_f_s_a.jpg;sad;7.0;sad_94.3ns.avi;sad;7.0;congruent;130.0;160.0;155.27414203894395;s_s;;;;;0;13;13;13;;;;;;;344.50405829999363;None;346.012371299963;346.329033099988;347.4704647999606;347.4872126999544;350.0873736999929;None;None;0;;350.0873736999929;None;;;;;;;;2;;;;;;;351.63704169995617;None;None;None;[];351.63704169995617;None;"['7', '7', '7']";"[0.20930270000826567, 0.5133165000006557, 0.7930557000217959]";351.63704169995617;None;;;S10915;2021_Sep_20_1128;VideoMask;2021.1.2;120.02683800971528;
0.0;f;030_o_f_s_a.jpg;sad;7.0;sad_68.1ns.avi;sad;7.0;congruent;130.0;160.0;158.9411396037211;s_s;;;;;0;14;14;14;;;;;;;354.63719849998597;None;356.21195259998785;356.52873119997093;357.72877779998817;357.74540229997365;365.08697299996857;None;None;0;;365.08697299996857;None;;;;;;;;1;;;;;;;366.63665859994944;None;None;None;[];366.63665859994944;None;"['7', '7', '7', '7', '7']";"[0.26566440000897273, 0.5213445000117645, 0.7373041000100784, 0.9692144000437111, 1.337504800001625]";366.63665859994944;None;;;S10915;2021_Sep_20_1128;VideoMask;2021.1.2;120.02683800971528;
0.0;f;030_o_f_h_a.jpg;happy;9.0;sad_127.1.wmv;sad;7.0;incongruent;120.0;160.0;180.59976631384873;h_s;;;;;0;15;15;15;;;;;;;369.63660939998226;None;371.3698148999829;371.6865405999706;372.819949799974;372.83643829997163;374.8198130999808;None;None;0;;374.8198130999808;None;;;;;;;;2;;;;;;;376.36977259995183;None;None;None;[];376.36977259995183;None;"['7', '7', '7', '7']";"[0.30833239998901263, 0.556432000012137, 0.8282797000138089, 1.2683838999946602]";376.36977259995183;None;;;S10915;2021_Sep_20_1128;VideoMask;2021.1.2;120.02683800971528;
8.0;m;008_y_m_s_a.jpg;sad;7.0;happy_133.3.wmv;happy;9.0;incongruent;130.0;150.0;152.577966552593;s_h;;;;;0;16;16;16;;;;;;;379.36967989994446;None;380.87839739996707;381.19454519997817;382.319656299951;382.3362787999795;384.3278962999466;None;None;0;;384.3278962999466;None;;;;;;;;8;;;;;;;385.8783607999794;None;None;None;[];385.8783607999794;None;"['9', '9', '9']";"[0.6314645999809727, 0.911711499968078, 1.1757500999956392]";385.8783607999794;None;;;S10915;2021_Sep_20_1128;VideoMask;2021.1.2;120.02683800971528;
3.0;m;033_o_m_h_a.jpg;happy;9.0;sad_128.1.wmv;sad;7.0;incongruent;120.0;160.0;171.0492454518585;h_s;;;;;0;17;17;17;;;;;;;388.8778254999779;None;390.52753919997485;390.8442736999714;391.9776084999903;391.99434559996007;393.97769149998203;None;7;0;0.3405568999587558;393.97769149998203;None;;;;;;;;3;;;;;;;395.78583679994335;None;None;None;[];395.78583679994335;None;"['7', '7']";"[0.2283365000039339, 0.5082956000114791]";395.78583679994335;None;;;S10915;2021_Sep_20_1128;VideoMask;2021.1.2;120.02683800971528;
1.0;f;021_o_f_h_a.jpg;happy;9.0;sad_116.1.wmv;sad;7.0;incongruent;120.0;160.0;184.06847610053055;h_s;;;;;0;18;18;18;;;;;;;398.78583449998405;None;400.5522086999845;400.8689343999722;402.01034809998237;402.0272849999601;404.0022332999506;None;None;0;;404.0022332999506;None;;;;;;;;3;;;;;;;405.5520465999725;None;None;None;[];405.5520465999725;None;"['7', '7', '7']";"[0.3260989999980666, 0.5098732999758795, 0.9260882000089623]";405.5520465999725;None;;;S10915;2021_Sep_20_1128;VideoMask;2021.1.2;120.02683800971528;
4.0;m;004_o_m_s_a.jpg;sad;7.0;happy_28.1ns.avi;happy;9.0;incongruent;130.0;150.0;157.40741103039684;s_h;;;;;0;19;19;19;;;;;;;408.56054569996195;None;410.1103045999771;410.42697099997895;411.61015079997014;411.62678839999717;415.951866999967;None;None;0;;415.951866999967;None;;;;;;;;7;;;;;;;417.5016622999683;None;None;None;[];417.5016622999683;None;"['9', '9']";"[1.4085355999995954, 1.6325194000382908]";417.5016622999683;None;;;S10915;2021_Sep_20_1128;VideoMask;2021.1.2;120.02683800971528;
8.0;f;028_y_f_s_a.jpg;sad;7.0;happy_122.3.wmv;happy;9.0;incongruent;130.0;150.0;171.8670540936116;s_h;;;;;0;20;20;20;;;;;;;420.5018720999942;None;422.1681208999944;422.484922499978;423.6183941999916;423.63492179999594;425.61835109995445;None;None;0;;425.61835109995445;None;;;;;;;;8;;;;;;;427.16839289997006;None;None;None;[];427.16839289997006;None;"['9', '9', '9']";"[0.26975139998830855, 0.5418524999986403, 0.8298300000024028]";427.16839289997006;None;;;S10915;2021_Sep_20_1128;VideoMask;2021.1.2;120.02683800971528;
8.0;m;008_y_m_s_a.jpg;sad;7.0;sad_6.5ns.avi;sad;7.0;congruent;130.0;160.0;170.39333839271438;s_s;;;;;0;21;21;21;;;;;;;430.16828479996184;None;431.8181052999571;432.13467359996866;433.2680248999968;433.28470699995523;438.26848459994653;None;None;0;;438.26848459994653;None;;;;;;;;2;;;;;;;439.8178478999762;None;None;None;[];439.8178478999762;None;"['7', '7', '7', '7']";"[0.23632979998365045, 0.4761562999919988, 0.7159999000141397, 0.9720687000080943]";439.8178478999762;None;;;S10915;2021_Sep_20_1128;VideoMask;2021.1.2;120.02683800971528;
8.0;f;028_y_f_h_a.jpg;happy;9.0;happy_23.1ns.avi;happy;9.0;congruent;120.0;150.0;225.70986890587952;h_h;;;;;0;22;22;22;;;;;;;442.82615519996034;None;444.9257376999594;445.24269699997967;446.3840269999928;446.40092919999734;450.9506810999592;None;None;0;;450.9506810999592;None;;;;;;;;8;;;;;;;452.50083759997506;None;None;None;[];452.50083759997506;None;"['9', '9', '9']";"[0.34520749998046085, 0.9931823000079021, 2.441378200019244]";452.50083759997506;None;;;S10915;2021_Sep_20_1128;VideoMask;2021.1.2;120.02683800971528;
8.0;m;008_y_m_h_a.jpg;happy;9.0;sad_111.1.wmv;sad;7.0;incongruent;120.0;160.0;152.63076835312847;h_s;;;;;0;23;23;23;;;;;;;455.508947299968;None;457.0004636999802;457.31722679996165;458.450960999995;458.47550699999556;460.45057509996695;None;None;0;;460.45057509996695;None;;;;;;;;2;;;;;;;462.0008762999787;None;None;None;[];462.0008762999787;None;"['7', '7', '7', '7']";"[0.36483059998136014, 0.6449529000092298, 0.9171395999728702, 1.173113299999386]";462.0008762999787;None;;;S10915;2021_Sep_20_1128;VideoMask;2021.1.2;120.02683800971528;
0.0;f;040_y_f_s_a.jpg;sad;7.0;sad_67.2ns.avi;sad;7.0;congruent;130.0;160.0;220.9892697323079;s_s;;;;;0;24;24;24;;;;;;;465.000833099999;None;467.10014759999467;467.4169474999653;468.5839750999585;468.60050799994497;477.77503269998124;None;None;0;;477.77503269998124;None;;;;;;;;1;;;;;;;479.32478439999977;None;None;None;[];479.32478439999977;None;"['7', '7', '7', '7']";"[0.26510840002447367, 0.4650386000284925, 0.6493077000486664, 0.8571604000171646]";479.32478439999977;None;;;S10915;2021_Sep_20_1128;VideoMask;2021.1.2;120.02683800971528;
8.0;m;008_y_m_s_a.jpg;sad;7.0;happy_29.1ns.avi;happy;9.0;incongruent;130.0;150.0;120.0316142834122;s_h;;;;;0;25;25;25;;;;;;;482.3249540999532;None;483.549600999977;483.86671159998514;485.04140849999385;485.0580418999889;487.69145529996604;None;None;0;;487.69145529996604;None;;;;;;;;9;;;;;;;489.24127529998077;None;None;None;[];489.24127529998077;None;"['9', '9', '9', '9', '9', '9', '9']";"[0.23689070000546053, 0.46855250000953674, 0.6764713000156917, 0.8526275000185706, 1.0366151999915019, 1.2286016999860294, 1.9565233999746852]";489.24127529998077;None;;;S10915;2021_Sep_20_1128;VideoMask;2021.1.2;120.02683800971528;
6.0;m;016_y_m_s_a.jpg;sad;7.0;sad_8.3ns.avi;sad;7.0;congruent;130.0;160.0;152.85371098242734;s_s;;;;;0;26;26;26;;;;;;;492.24124199996004;None;493.7744457999943;494.09098999999696;495.2576421999838;495.27513149997685;502.9824890999589;None;None;0;;502.9824890999589;None;;;;;;;;1;;;;;;;504.53295949997846;None;None;None;[];504.53295949997846;None;"['7', '7', '7', '7', '7']";"[0.24089269997784868, 0.4728029000107199, 0.7208350999862887, 0.9771603000117466, 1.3371789999655448]";504.53295949997846;None;;;S10915;2021_Sep_20_1128;VideoMask;2021.1.2;120.02683800971528;
6.0;m;016_y_m_h_a.jpg;happy;9.0;sad_114.1.wmv;sad;7.0;incongruent;120.0;160.0;136.20550699298644;h_s;;;;;0;27;27;27;;;;;;;507.54067239997676;None;508.898841599992;509.2155601999839;510.3656911999569;510.38223409996135;512.3488661999581;None;None;0;;512.3488661999581;None;;;;;;;;1;;;;;;;513.8986659999937;None;None;None;[];513.8986659999937;None;"['7', '7', '7', '7']";"[0.29132739995839074, 0.5315315999905579, 0.7872450999566354, 1.0435244999825954]";513.8986659999937;None;;;S10915;2021_Sep_20_1128;VideoMask;2021.1.2;120.02683800971528;
7.0;m;027_o_m_s_a.jpg;sad;7.0;happy_117.3.wmv;happy;9.0;incongruent;130.0;150.0;215.61964028550614;s_h;;;;;0;28;28;28;;;;;;;516.8990262999432;None;518.9152772999951;519.2318759999471;520.3819779999903;520.398618599982;522.3652032999671;None;9;0;1.2729091999935918;522.3652032999671;None;;;;;;;;8;;;;;;;523.9151470999932;None;None;None;[];523.9151470999932;None;"['9', '9', '9']";"[0.2588345999829471, 0.4987679999903776, 0.7388382999924943]";523.9151470999932;None;;;S10915;2021_Sep_20_1128;VideoMask;2021.1.2;120.02683800971528;
6.0;m;016_y_m_h_a.jpg;happy;9.0;happy_9.2ns.avi;happy;9.0;congruent;120.0;150.0;130.52042428082717;h_h;;;;;0;29;29;29;;;;;;;526.9235360999592;None;528.2482684999704;528.5650734999799;529.6983083999949;529.7149832999567;535.6232816999545;None;9;0;0.35871330002555624;535.6232816999545;None;;;;;;;;9;;;;;;;537.1731116999872;None;None;None;[];537.1731116999872;None;"['9', '9', '9', '9', '9']";"[0.22496459999820217, 0.46458850003546104, 0.696723600034602, 0.92849349998869, 2.6329069000203162]";537.1731116999872;None;;;S10915;2021_Sep_20_1128;VideoMask;2021.1.2;120.02683800971528;
0.0;f;040_y_f_s_a.jpg;sad;7.0;happy_127.3.wmv;happy;9.0;incongruent;130.0;150.0;131.7195455720239;s_h;;;;;0;30;30;30;;;;;;;540.1729774999549;None;541.4727834999794;541.7896102999803;542.9146110999864;542.9312511999742;544.989562999981;None;None;0;;544.989562999981;None;;;;;;;;9;;;;;;;546.540068799979;None;None;None;[];546.540068799979;None;"['9', '9', '9', '9']";"[0.23392209998564795, 0.5218012999976054, 0.7456462999689393, 0.9536287999944761]";546.540068799979;None;;;S10915;2021_Sep_20_1128;VideoMask;2021.1.2;120.02683800971528;
0.0;f;030_o_f_s_a.jpg;sad;7.0;happy_125.3.wmv;happy;9.0;incongruent;130.0;150.0;220.51454909128134;s_h;;;;;0;31;31;31;;;;;;;549.5395134999999;None;551.5975038999459;551.9142492999672;553.047545199981;553.0642275999999;555.0474842999829;None;None;0;;555.0474842999829;None;;;;;;;;9;;;;;;;556.5976158999838;None;None;None;[];556.5976158999838;None;"['9', '9', '9', '9', '9', '9']";"[0.30424199998378754, 0.5600284999818541, 0.7600573999807239, 0.9842570999753661, 1.232194799988065, 1.4642172000021674]";556.5976158999838;None;;;S10915;2021_Sep_20_1128;VideoMask;2021.1.2;120.02683800971528;
0.0;f;030_o_f_s_a.jpg;sad;7.0;sad_64.3ns.avi;sad;7.0;congruent;130.0;160.0;165.78667874766072;s_s;;;;;0;32;32;32;;;;;;;559.6057667999994;None;561.2221038999851;561.5389623999945;562.6806881999946;562.6974388999515;567.6720648999908;None;7;0;0.35786620003636926;567.6720648999908;None;;;;;;;;2;;;;;;;569.2220194999827;None;None;None;[];569.2220194999827;None;"['7', '7', '7', '9', '7']";"[0.10397850000299513, 0.3037124000256881, 0.5117237999802455, 1.047972199972719, 1.5760318000102416]";569.2220194999827;None;;;S10915;2021_Sep_20_1128;VideoMask;2021.1.2;120.02683800971528;
3.0;m;013_y_m_s_a.jpg;sad;7.0;sad_7.7ns.avi;sad;7.0;congruent;130.0;160.0;196.24182255763262;s_s;;;;;0;33;33;33;;;;;;;572.2304364999873;None;574.0886039999896;574.4052133999649;575.5882631999557;575.6051915999851;581.5473590999609;None;None;0;;581.5473590999609;None;;;;;;;;2;;;;;;;583.3051794999628;None;None;None;[];583.3051794999628;None;"['7', '7', '7']";"[0.3887100000283681, 0.628512600029353, 0.9168751999968663]";583.3051794999628;None;;;S10915;2021_Sep_20_1128;VideoMask;2021.1.2;120.02683800971528;
3.0;m;013_y_m_h_a.jpg;happy;9.0;happy_9.1ns.avi;happy;9.0;congruent;120.0;150.0;165.1890303600433;h_h;;;;;0;34;34;34;;;;;;;586.3050131999771;None;587.9296897999593;588.2464690999477;589.3804016999784;589.4048131999443;592.6047459999681;None;None;0;;592.6047459999681;None;;;;;;;;8;;;;;;;594.1548395999707;None;None;None;[];594.1548395999707;None;"['9', '9', '9', '9']";"[0.2191109000123106, 0.5068582000094466, 0.7791530999820679, 1.1070068000117317]";594.1548395999707;None;;;S10915;2021_Sep_20_1128;VideoMask;2021.1.2;120.02683800971528;
4.0;m;004_o_m_h_a.jpg;happy;9.0;sad_95.1ns.avi;sad;7.0;incongruent;120.0;160.0;152.68270002069931;h_s;;;;;0;35;35;35;;;;;;;597.1546886999859;None;598.6959570999607;599.012800699973;600.1461867999751;600.1628220999846;608.937729199999;None;None;0;;608.937729199999;None;;;;;;;;1;;;;;;;610.5039203999913;None;None;None;[];610.5039203999913;None;"['7', '7', '7', '7', '7']";"[0.4058623000164516, 0.6458029999630526, 0.8777297000051476, 1.1339225000119768, 1.3656583999982104]";610.5039203999913;None;;;S10915;2021_Sep_20_1128;VideoMask;2021.1.2;120.02683800971528;
3.0;m;013_y_m_h_a.jpg;happy;9.0;sad_113.2.wmv;sad;7.0;incongruent;120.0;160.0;217.4973891947951;h_s;;;;;0;36;36;36;;;;;;;613.5125417999807;None;615.5622456999845;615.8789372999454;617.0373058999539;617.0538074999931;619.0121874999604;None;None;0;;619.0121874999604;None;;;;;;;;2;;;;;;;620.5622597999754;None;None;None;[];620.5622597999754;None;"['7', '7', '7', '7', '7']";"[0.26758599997265264, 0.5156971999676898, 0.8275145000079647, 1.2277727000182495, 1.6356374999741092]";620.5622597999754;None;;;S10915;2021_Sep_20_1128;VideoMask;2021.1.2;120.02683800971528;
4.0;m;004_o_m_h_a.jpg;happy;9.0;happy_25.1ns.avi;happy;9.0;congruent;120.0;150.0;216.63044503818386;h_h;;;;;0;37;37;37;;;;;;;623.5621696999879;None;625.5951547999866;625.911996299983;627.2035886999802;627.2202754999744;630.7369308999623;None;None;0;;630.7369308999623;None;;;;;;;;9;;;;;;;632.2952369999839;None;None;None;[];632.2952369999839;None;"['9', '9', '9', '9']";"[0.35070279997307807, 0.5824818999972194, 0.7904218999901786, 0.9825237999903038]";632.2952369999839;None;;;S10915;2021_Sep_20_1128;VideoMask;2021.1.2;120.02683800971528;
4.0;m;004_o_m_s_a.jpg;sad;7.0;happy_131.2.wmv;happy;9.0;incongruent;130.0;150.0;181.38407540847405;s_h;;;;;0;38;38;38;;;;;;;635.295010599948;None;637.0280387999956;637.344889;638.4869329999783;638.511567199952;640.4782980999444;None;None;0;;640.4782980999444;None;;;;;;;;8;;;;;;;642.0281781999511;None;None;None;[];642.0281781999511;None;"['9', '9', '9']";"[0.23377709998749197, 0.4656107000191696, 0.6895000000367872]";642.0281781999511;None;;;S10915;2021_Sep_20_1128;VideoMask;2021.1.2;120.02683800971528;
0.0;f;040_y_f_h_a.jpg;happy;9.0;happy_24.3ns.avi;happy;9.0;congruent;120.0;150.0;213.25460698950434;h_h;;;;;0;39;39;39;;;;;;;645.0280367999803;None;647.0278570999508;647.3445729999803;648.4778544000001;648.4945092999842;650.4199627999915;None;None;0;;650.4199627999915;None;;;;;;;;8;;;;;;;652.2029439999606;None;None;None;[];652.2029439999606;None;"['9', '9', '9']";"[0.2348479999927804, 0.4748342999955639, 0.7149059000075795]";652.2029439999606;None;;;S10915;2021_Sep_20_1128;VideoMask;2021.1.2;120.02683800971528;
2.0;f;012_o_f_s_a.jpg;sad;7.0;happy_139.1.wmv;happy;9.0;incongruent;130.0;150.0;162.31500468041804;s_h;;;;;0;40;40;40;;;;;;;655.2027552999789;None;656.7775319999782;657.0942967999727;658.2276658999617;658.2443225999596;660.2278127999743;None;None;0;;660.2278127999743;None;;;;;;;;9;;;;;;;661.7774209999479;None;None;None;[];661.7774209999479;None;"['9', '9', '9', '9']";"[0.25233620003564283, 0.5002081000129692, 0.8204920000280254, 1.0281798000214621]";661.7774209999479;None;;;S10915;2021_Sep_20_1128;VideoMask;2021.1.2;120.02683800971528;
0.0;f;030_o_f_h_a.jpg;happy;9.0;happy_24.1ns.avi;happy;9.0;congruent;120.0;150.0;168.36256624020774;h_h;;;;;0;41;41;41;;;;;;;664.7858985999483;None;666.4274228999857;666.74403849995;667.9439519000007;667.9605268999585;671.2022320999531;None;None;0;;671.2022320999531;None;;;;;;;;9;;;;;;;672.752161499986;None;None;None;[];672.752161499986;None;"['9', '9', '9', '9']";"[0.20557819999521598, 0.4293667000019923, 0.6373610000009649, 0.8615388000034727]";672.752161499986;None;;;S10915;2021_Sep_20_1128;VideoMask;2021.1.2;120.02683800971528;
2.0;f;012_o_f_h_a.jpg;happy;9.0;sad_113.1.wmv;sad;7.0;incongruent;120.0;160.0;177.44551734737394;h_s;;;;;0;42;42;42;;;;;;;675.7605908999685;None;677.4519308999879;677.7685870999703;678.9019185999641;678.918719499954;680.9020079999464;None;None;0;;680.9020079999464;None;;;;;;;;3;;;;;;;682.4517094999901;None;None;None;[];682.4517094999901;None;"['7', '7']";"[0.4338562000193633, 0.6660392999765463]";682.4517094999901;None;;;S10915;2021_Sep_20_1128;VideoMask;2021.1.2;120.02683800971528;
3.0;m;033_o_m_s_a.jpg;sad;7.0;sad_64.5ns.avi;sad;7.0;congruent;130.0;160.0;130.55717223801247;s_s;;;;;0;43;43;43;;;;;;;685.4519160999916;None;686.8018161999644;687.1182913999655;688.2850229999749;688.3016615999513;694.8350031999871;None;None;0;;694.8350031999871;None;;;;;;;;1;;;;;;;696.3845803999575;None;None;None;[];696.3845803999575;None;"['7', '7', '7', '7', '7', '7', '7', '7']";"[0.23722189996624365, 0.48518749995855615, 0.8290527999633923, 1.085015199962072, 1.4610437999945134, 1.7488610000000335, 2.020974599989131, 2.2449245000025257]";696.3845803999575;None;;;S10915;2021_Sep_20_1128;VideoMask;2021.1.2;120.02683800971528;
7.0;m;027_o_m_h_a.jpg;happy;9.0;sad_117.1.wmv;sad;7.0;incongruent;120.0;160.0;181.28665202824095;h_s;;;;;0;44;44;44;;;;;;;699.3848444999894;None;701.109407699958;701.426248899952;702.5600534999976;702.584581299976;704.567977699975;None;None;0;;704.567977699975;None;;;;;;;;2;;;;;;;706.1267376999604;None;None;None;[];706.1267376999604;None;"['7', '7', '7']";"[0.2390047999797389, 0.4786801000009291, 0.7509185000089929]";706.1267376999604;None;;;S10915;2021_Sep_20_1128;VideoMask;2021.1.2;120.02683800971528;
3.0;m;033_o_m_s_a.jpg;sad;7.0;happy_126.3.wmv;happy;9.0;incongruent;130.0;150.0;198.85252030535366;s_h;;;;;0;45;45;45;;;;;;;709.1261748999823;None;711.0092487999937;711.3258508999716;712.4591355999582;712.475712399988;714.4594371999847;None;None;0;;714.4594371999847;None;;;;;;;;8;;;;;;;716.0092231999733;None;None;None;[];716.0092231999733;None;"['9', '9', '9']";"[0.2362903999746777, 0.5086071999976411, 1.3886353999841958]";716.0092231999733;None;;;S10915;2021_Sep_20_1128;VideoMask;2021.1.2;120.02683800971528;
3.0;m;033_o_m_h_a.jpg;happy;9.0;sad_136.1.wmv;sad;7.0;incongruent;120.0;160.0;176.97002883463455;h_s;;;;;0;46;46;46;;;;;;;719.009190599958;None;720.6922715999535;721.0089349999907;722.1339918999583;722.1504735999624;724.1423058999935;None;None;0;;724.1423058999935;None;;;;;;;;3;;;;;;;725.692336499982;None;None;None;[];725.692336499982;None;"['7', '7']";"[0.24941270000999793, 0.45717720000538975]";725.692336499982;None;;;S10915;2021_Sep_20_1128;VideoMask;2021.1.2;120.02683800971528;
9.0;f;019_m_f_h_a.jpg;happy;9.0;happy_10.1ns.avi;happy;9.0;congruent;120.0;150.0;157.2463435658512;h_h;;;;;0;47;47;47;;;;;;;728.6921931999968;None;730.2585695999442;730.57545449998;731.7254174999543;731.7420005999738;739.1501285999548;None;None;0;;739.1501285999548;None;;;;;;;;6;;;;;;;740.6999026999692;None;None;None;[];740.6999026999692;None;['9'];[0.28976660000626];740.6999026999692;None;;;S10915;2021_Sep_20_1128;VideoMask;2021.1.2;120.02683800971528;
2.0;f;012_o_f_h_a.jpg;happy;9.0;happy_2.2ns.avi;happy;9.0;congruent;120.0;150.0;206.34800317295262;h_h;;;;;0;48;48;48;;;;;;;743.7083940999582;None;745.6918156999745;746.0081682999735;747.1498642999795;747.1668757000007;759.3412171999807;None;None;0;;759.3412171999807;None;;;;;;;;6;;;;;;;760.8993198999669;None;None;None;[];760.8993198999669;None;['9'];[0.3702422000351362];760.8993198999669;None;;;S10915;2021_Sep_20_1128;VideoMask;2021.1.2;120.02683800971528;
3.0;m;033_o_m_h_a.jpg;happy;9.0;happy_24.2ns.avi;happy;9.0;congruent;120.0;150.0;167.9423847659953;h_h;;;;;0;49;49;49;;;;;;;763.8994887999725;None;765.5240156999789;765.8494375999435;767.0409305999638;767.0579126999946;770.7158031999716;None;None;0;;770.7158031999716;None;;;;;;;;8;;;;;;;772.2739011999802;None;None;None;[];772.2739011999802;None;"['9', '9', '9']";"[0.2677731000003405, 0.5078916999627836, 0.7797833000076935]";772.2739011999802;None;;;S10915;2021_Sep_20_1128;VideoMask;2021.1.2;120.02683800971528;
1.0;f;021_o_f_s_a.jpg;sad;7.0;happy_61.2ns.avi;happy;9.0;incongruent;130.0;150.0;210.94664004826666;s_h;;;;;0;50;50;50;;;;;;;775.2740256999969;None;777.2737575999927;777.5905102999532;778.7238606999745;778.7405717999791;783.2661296000006;None;None;0;;783.2661296000006;None;;;;;;;;6;;;;;;;784.815146799956;None;None;None;[];784.815146799956;None;['9'];[0.25450400001136586];784.815146799956;None;;;S10915;2021_Sep_20_1128;VideoMask;2021.1.2;120.02683800971528;
4.0;m;004_o_m_s_a.jpg;sad;7.0;sad_2.4ns.avi;sad;7.0;congruent;130.0;160.0;153.02079367163634;s_s;;;;;0;51;51;51;;;;;;;787.8320984999882;None;789.3568301999476;789.6734273999464;790.873489999969;790.8900911999517;798.7734894999885;None;None;0;;798.7734894999885;None;;;;;;;;1;;;;;;;800.3397335999762;None;None;None;[];800.3397335999762;None;"['7', '7', '7', '7', '7']";"[0.26607790001435205, 0.593799099966418, 0.953652800002601, 1.2898529999656603, 1.5619060000171885]";800.3397335999762;None;;;S10915;2021_Sep_20_1128;VideoMask;2021.1.2;120.02683800971528;
8.0;m;008_y_m_h_a.jpg;happy;9.0;happy_1.2ns.avi;happy;9.0;congruent;120.0;150.0;210.98946429383824;h_h;;;;;0;52;52;52;;;;;;;803.3398667000001;None;805.3896995999967;805.70631769998;806.9395110999467;806.9561663999921;819.6310681999894;None;None;0;;819.6310681999894;None;;;;;;;;9;;;;;;;821.1892432999448;None;None;None;[];821.1892432999448;None;"['9', '9', '9', '9']";"[0.35221349995117635, 0.6001014999928884, 0.9363861999590881, 1.1922469999990426]";821.1892432999448;None;;;S10915;2021_Sep_20_1128;VideoMask;2021.1.2;120.02683800971528;
2.0;f;012_o_f_s_a.jpg;sad;7.0;happy_52.2ns.avi;happy;9.0;incongruent;130.0;150.0;172.57202848318138;s_h;;;;;0;53;53;53;;;;;;;824.1892300999607;None;825.83893909998;826.1555814999738;827.3390573999495;827.3556354999891;830.8389654999482;None;None;0;;830.8389654999482;None;;;;;;;;8;;;;;;;832.6473284999956;None;None;None;[];832.6473284999956;None;"['9', '9', '9']";"[0.23030969995306805, 0.46238879999145865, 0.7422561999992467]";832.6473284999956;None;;;S10915;2021_Sep_20_1128;VideoMask;2021.1.2;120.02683800971528;
9.0;f;019_m_f_s_a.jpg;sad;7.0;happy_61.1ns.avi;happy;9.0;incongruent;130.0;150.0;181.3003220572762;s_h;;;;;0;54;54;54;;;;;;;835.6555942999548;None;837.447020099964;837.7635600999929;838.8973751000012;838.9219670999446;846.2885904999566;None;None;0;;846.2885904999566;None;;;;;;;;6;;;;;;;848.4882236999692;None;None;None;[];848.4882236999692;None;['9'];[0.38907859998289496];848.4882236999692;None;;;S10915;2021_Sep_20_1128;VideoMask;2021.1.2;120.02683800971528;
0.0;f;030_o_f_h_a.jpg;happy;9.0;sad_133.1.wmv;sad;7.0;incongruent;120.0;160.0;198.86251500867985;h_s;;;;;0;55;55;55;;;;;;;851.4882566999877;None;853.3713633999578;853.6888335999683;854.8131860999856;854.8297052999842;856.8214377999539;None;None;0;;856.8214377999539;None;;;;;;;;2;;;;;;;858.371359599987;None;None;None;[];858.371359599987;None;"['7', '7', '7']";"[0.2421934999874793, 0.4340457999496721, 0.6500096999807283]";858.371359599987;None;;;S10915;2021_Sep_20_1128;VideoMask;2021.1.2;120.02683800971528;
0.0;f;040_y_f_h_a.jpg;happy;9.0;sad_128.2.wmv;sad;7.0;incongruent;120.0;160.0;206.10005857915363;h_s;;;;;0;56;56;56;;;;;;;861.3714020999614;None;863.3127599;863.629529399972;864.7626707999734;864.7795564999687;866.7627266999916;None;None;0;;866.7627266999916;None;;;;;;;;3;;;;;;;868.3125584999798;None;None;None;[];868.3125584999798;None;"['7', '7', '7']";"[0.22890049999114126, 0.41282510000746697, 0.6126286999788135]";868.3125584999798;None;;;S10915;2021_Sep_20_1128;VideoMask;2021.1.2;120.02683800971528;
1.0;f;021_o_f_s_a.jpg;sad;7.0;sad_9.5ns.avi;sad;7.0;congruent;130.0;160.0;206.16642757875042;s_s;;;;;0;57;57;57;;;;;;;871.321140999964;None;873.2540376999532;873.5708882999606;874.7460065999767;874.7622985999915;880.4291376999463;None;7;0;0.3443842999986373;880.4291376999463;None;;;;;;;;2;;;;;;;881.9789791999501;None;None;None;[];881.9789791999501;None;"['7', '7', '7']";"[0.21888449997641146, 0.44233180000446737, 0.6906220999662764]";881.9789791999501;None;;;S10915;2021_Sep_20_1128;VideoMask;2021.1.2;120.02683800971528;
1.0;f;021_o_f_h_a.jpg;happy;9.0;happy_12.1ns.avi;happy;9.0;congruent;120.0;150.0;132.59080005900228;h_h;;;;;0;58;58;58;;;;;;;884.9789106999524;None;886.3455046999734;886.6620825999998;887.829517999955;887.8541047999752;895.4120264999801;None;None;0;;895.4120264999801;None;;;;;;;;7;;;;;;;896.9700246999855;None;None;None;[];896.9700246999855;None;"['9', '9']";"[0.26728789997287095, 0.515432599990163]";896.9700246999855;None;;;S10915;2021_Sep_20_1128;VideoMask;2021.1.2;120.02683800971528;
3.0;m;013_y_m_s_a.jpg;sad;7.0;happy_56.2ns.avi;happy;9.0;incongruent;130.0;150.0;163.39234110935848;s_h;;;;;0;59;59;59;;;;;;;899.9700657999492;None;901.5532225999632;901.8700803999673;903.0199092999683;903.0367130999803;908.0282779999543;None;None;0;;908.0282779999543;None;;;;;;;;6;;;;;;;909.57835169998;None;None;None;[];909.57835169998;None;['9'];[0.3632000000216067];909.57835169998;None;;;S10915;2021_Sep_20_1128;VideoMask;2021.1.2;120.02683800971528;
;;;;;;;;;;;;;;;;;;;;;;;;;;;;;;;;;;;;;;;;;;;;;;;;;;;;;;;;;;;;;;;;;912.5781233999878;None;;;;;;
