primePerson;primeGender;prime;primeEmotion;corrAnsPrime;target;targetEmotion;corrAnsTar;Cond;ID_Primer;ID_Target;JitterTime;Condition;example.thisRepN;example.thisTrialN;example.thisN;example.thisIndex;study.thisRepN;study.thisTrialN;study.thisN;study.thisIndex;MR_trigger_time;MR_trigger_number;text_intro.started;text_intro.stopped;text_probe.started;text_probe.stopped;polygon_ISI.started;polygon_ISI.stopped;polygon.started;polygon.stopped;primerImage.started;primerImage.stopped;response.started;response.stopped;key_resp.keys;key_resp.corr;key_resp.started;key_resp.stopped;slider_Text.started;slider_Text.stopped;slider_ex.response;slider_ex.rt;slider_ex.history;slider_ex.started;slider_ex.stopped;Rating;slider_resp_response.keys;slider_resp_response.rt;slider_resp_response.started;slider_resp_response.stopped;key_resp.rt;text_start.started;text_start.stopped;text_slider.started;text_slider.stopped;slider_stud.response;slider_stud.rt;slider_stud.history;slider_stud.started;slider_stud.stopped;slider_resp_study.keys;slider_resp_study.started;slider_resp_study.stopped;slider_resp_study.rt;text_ende.started;text_ende.stopped;participant;date;expName;psychopyVersion;frameRate;
1111;m;1111_m_m_h_a.jpg;happy;9;example_30.4ns.avi;neutral;7;incongruent;120.0;170.0;189.5874364012288;;0;0;0;0;;;;;74.95820540003479;1;75.03554149996489;77.03575940011069;77.03575940011069;None;79.06061709998176;None;81.04444329999387;81.36035380000249;82.50247099995613;82.52776740002446;86.8356872999575;None;None;0;86.8356872999575;None;88.38518540002406;None;None;None;[];88.38518540002406;None;6;['9'];[2.3529900000430644];88.38518540002406;None;;;;;;;;;;;;;;;;;S10847;2021_Aug_26_1236;VideoMask;2021.1.2;119.97211832326438;
1113;f;1113_y_f_s_a.jpg;sad;7;example_30.3ns.avi;neutral;7;incongruent;130.0;170.0;229.02432995836998;;0;1;1;1;;;;;;;;;;;91.38529970007949;None;93.51000429992564;93.82675130013376;94.95181980007328;94.96840519993566;96.96018059994094;None;8;0;96.96018059994094;None;98.50998899992555;None;None;None;[];98.50998899992555;None;5;None;;98.50998899992555;None;0.786082600010559;;;;;;;;;;;;;;;;S10847;2021_Aug_26_1236;VideoMask;2021.1.2;119.97211832326438;
9.0;f;019_m_f_h_a.jpg;happy;9.0;sad_115.1.wmv;sad;7.0;incongruent;120.0;160.0;128.09063432376465;h_s;;;;;0;0;0;0;;;;;;;102.54323760000989;None;103.82631970010698;104.14319139998406;105.27626479999162;105.29289859998971;107.27675700001419;None;None;0;107.27675700001419;None;;;;;;;;5;;;;;;101.54305170010775;None;108.82612040010281;None;None;None;[];108.82612040010281;None;None;108.82612040010281;None;;;;S10847;2021_Aug_26_1236;VideoMask;2021.1.2;119.97211832326438;
3.0;m;033_o_m_s_a.jpg;sad;7.0;sad_94.2ns.avi;sad;7.0;congruent;130.0;160.0;182.29120173647655;s_s;;;;;0;1;1;1;;;;;;;111.85129670007154;None;113.57600719993934;113.8927080000285;115.02607599995099;115.04286739998497;117.7178839999251;None;7;0;117.7178839999251;None;;;;;;;;4;;;;;1.1323200000915676;;;119.26769810006954;None;None;None;[];119.26769810006954;None;['7'];119.26769810006954;None;[1.8145634999964386];;;S10847;2021_Aug_26_1236;VideoMask;2021.1.2;119.97211832326438;
8.0;m;008_y_m_h_a.jpg;happy;9.0;happy_26.1ns.avi;happy;9.0;congruent;120.0;150.0;155.9437854594882;h_h;;;;;0;2;2;2;;;;;;;122.2760280999355;None;123.76738879992627;124.08411019993946;125.2175314000342;125.23413460003212;127.20890980004333;None;9;0;127.20890980004333;None;;;;;;;;6;;;;;0.6490409001708031;;;128.75882120011374;None;None;None;[];128.75882120011374;None;['9'];128.75882120011374;None;[0.7790932999923825];;;S10847;2021_Aug_26_1236;VideoMask;2021.1.2;119.97211832326438;
0.0;f;040_y_f_h_a.jpg;happy;9.0;sad_138.1.wmv;sad;7.0;incongruent;120.0;160.0;133.99071306426532;h_s;;;;;0;3;3;3;;;;;;;131.7588464000728;None;133.09211289999075;133.40889690001495;134.53391709993593;134.55045210011303;136.54207159997895;None;None;0;136.54207159997895;None;;;;;;;;5;;;;;;;;138.0920696000103;None;None;None;[];138.0920696000103;None;None;138.0920696000103;None;;;;S10847;2021_Aug_26_1236;VideoMask;2021.1.2;119.97211832326438;
8.0;f;028_y_f_s_a.jpg;sad;7.0;sad_64.2ns.avi;sad;7.0;congruent;130.0;160.0;229.88540597086478;s_s;;;;;0;4;4;4;;;;;;;141.10840780008584;None;143.2585831999313;143.57512799999677;144.70849970006384;144.72507339995354;155.70843779994175;None;7;0;155.70843779994175;None;;;;;;;;3;;;;;0.5976630998775363;;;157.2581295000855;None;None;None;[];157.2581295000855;None;"['7', '7']";157.2581295000855;None;"[0.4640538999810815, 0.9996917000971735]";;;S10847;2021_Aug_26_1236;VideoMask;2021.1.2;119.97211832326438;
7.0;m;027_o_m_s_a.jpg;sad;7.0;sad_10.4ns.avi;sad;7.0;congruent;130.0;160.0;185.20129417468752;s_s;;;;;0;5;5;5;;;;;;;160.26648460002616;None;162.29137829993851;162.60790350008756;163.7580675999634;163.77525290008634;166.90794790000655;None;7;0;166.90794790000655;None;;;;;;;;3;;;;;0.5101801001001149;;;168.45781549997628;None;None;None;[];168.45781549997628;None;"['7', '7']";168.45781549997628;None;"[0.5041066000703722, 0.8883976000361145]";;;S10847;2021_Aug_26_1236;VideoMask;2021.1.2;119.97211832326438;
2.0;f;012_o_f_s_a.jpg;sad;7.0;sad_7.5ns.avi;sad;7.0;congruent;130.0;160.0;220.27842655424388;s_s;;;;;0;6;6;6;;;;;;;171.45762609993108;None;173.49085599998944;173.80767909996212;174.957519199932;174.97425410011783;177.73271299991757;None;7;0;177.73271299991757;None;;;;;;;;5;;;;;0.6214137000497431;;;179.29078650008887;None;None;None;[];179.29078650008887;None;None;179.29078650008887;None;;;;S10847;2021_Aug_26_1236;VideoMask;2021.1.2;119.97211832326438;
2.0;f;012_o_f_h_a.jpg;happy;9.0;happy_27.1ns.avi;happy;9.0;congruent;120.0;150.0;146.44967055810616;h_h;;;;;0;7;7;7;;;;;;;182.3240533999633;None;183.73217420000583;184.0489855001215;185.2319255999755;185.24902489990927;187.67392199998721;None;9;0;187.67392199998721;None;;;;;;;;6;;;;;0.4560285999905318;;;189.22383069992065;None;None;None;[];189.22383069992065;None;['9'];189.22383069992065;None;[0.36232220008969307];;;S10847;2021_Aug_26_1236;VideoMask;2021.1.2;119.97211832326438;
8.0;f;028_y_f_h_a.jpg;happy;9.0;sad_119.1.wmv;sad;7.0;incongruent;120.0;160.0;148.71526953572538;h_s;;;;;0;8;8;8;;;;;;;192.2320580999367;None;193.69022860005498;194.00715030007996;195.14037270005792;195.15703319991007;197.20694760000333;None;7;0;197.20694760000333;None;;;;;;;;4;;;;;0.5471606999635696;;;198.75687170005403;None;None;None;[];198.75687170005403;None;['7'];198.75687170005403;None;[1.701535200001672];;;S10847;2021_Aug_26_1236;VideoMask;2021.1.2;119.97211832326438;
6.0;m;016_y_m_s_a.jpg;sad;7.0;happy_60.4ns.avi;happy;9.0;incongruent;130.0;150.0;126.02367393611817;s_h;;;;;0;9;9;9;;;;;;;201.75691150012426;None;203.02331830002367;203.34006120008416;204.540025500115;204.55671350006014;210.2648567999713;None;9;0;210.2648567999713;None;;;;;;;;6;;;;;0.47316709998995066;;;211.81475159991533;None;None;None;[];211.81475159991533;None;['9'];211.81475159991533;None;[0.3392451999243349];;;S10847;2021_Aug_26_1236;VideoMask;2021.1.2;119.97211832326438;
9.0;f;019_m_f_s_a.jpg;sad;7.0;sad_8.4ns.avi;sad;7.0;congruent;130.0;160.0;171.6633093155257;s_s;;;;;0;10;10;10;;;;;;;214.82307790010236;None;216.4895391999744;216.80628299992532;217.94831910007633;217.97292260010727;226.07282379991375;None;7;0;226.07282379991375;None;;;;;;;;3;;;;;0.6012275000102818;;;227.6225543001201;None;None;None;[];227.6225543001201;None;"['7', '7']";227.6225543001201;None;"[0.9394735000096262, 1.9637076000217348]";;;S10847;2021_Aug_26_1236;VideoMask;2021.1.2;119.97211832326438;
4.0;m;004_o_m_h_a.jpg;happy;9.0;happy_1.1ns.avi;happy;9.0;congruent;120.0;150.0;203.50057144619865;h_h;;;;;0;11;11;11;;;;;;;230.63089710008353;None;232.58891679998487;232.90568999992684;234.09738970012404;234.114048599964;248.53098729997873;None;8;0;248.53098729997873;None;;;;;;;;5;;;;;2.1513555001001805;;;251.11357349995524;None;None;None;[];251.11357349995524;None;None;251.11357349995524;None;;;;S10847;2021_Aug_26_1236;VideoMask;2021.1.2;119.97211832326438;
7.0;m;027_o_m_h_a.jpg;happy;9.0;happy_20.1ns.avi;happy;9.0;congruent;120.0;150.0;152.91127178874285;h_h;;;;;0;12;12;12;;;;;;;254.14682479994372;None;255.62995290011168;255.9465684001334;257.0966652999632;257.1133916999679;260.0967204000335;None;8;0;260.0967204000335;None;;;;;;;;5;;;;;1.5293960999697447;;;261.9965761001222;None;None;None;[];261.9965761001222;None;None;261.9965761001222;None;;;;S10847;2021_Aug_26_1236;VideoMask;2021.1.2;119.97211832326438;
0.0;f;040_y_f_s_a.jpg;sad;7.0;sad_94.3ns.avi;sad;7.0;congruent;130.0;160.0;155.27414203894395;s_s;;;;;0;13;13;13;;;;;;;265.02985900011845;None;266.52951980009675;266.8464379000943;268.0212278000545;268.04614059999585;270.6045655000489;None;7;0;270.6045655000489;None;;;;;;;;4;;;;;0.5814227000810206;;;272.2879129999783;None;None;None;[];272.2879129999783;None;"['7', '7']";272.2879129999783;None;"[1.4100250001065433, 2.8664998000022024]";;;S10847;2021_Aug_26_1236;VideoMask;2021.1.2;119.97211832326438;
0.0;f;030_o_f_s_a.jpg;sad;7.0;sad_68.1ns.avi;sad;7.0;congruent;130.0;160.0;158.9411396037211;s_s;;;;;0;14;14;14;;;;;;;275.28782720002346;None;276.83822269993834;277.15437559993006;278.3547934999224;278.3793560001068;285.71253990009427;None;7;0;285.71253990009427;None;;;;;;;;3;;;;;0.7055594001431018;;;287.26243020012043;None;None;None;[];287.26243020012043;None;"['7', '7', '7']";287.26243020012043;None;"[0.42731459997594357, 0.8754216998349875, 2.0113832999486476]";;;S10847;2021_Aug_26_1236;VideoMask;2021.1.2;119.97211832326438;
0.0;f;030_o_f_h_a.jpg;happy;9.0;sad_127.1.wmv;sad;7.0;incongruent;120.0;160.0;180.59976631384873;h_s;;;;;0;15;15;15;;;;;;;290.2624377000611;None;291.97881560004316;292.29558070003986;293.4206101000309;293.4371994000394;295.42889069998637;None;None;0;295.42889069998637;None;;;;;;;;5;;;;;;;;296.9788981999736;None;None;None;[];296.9788981999736;None;None;296.9788981999736;None;;;;S10847;2021_Aug_26_1236;VideoMask;2021.1.2;119.97211832326438;
8.0;m;008_y_m_s_a.jpg;sad;7.0;happy_133.3.wmv;happy;9.0;incongruent;130.0;150.0;152.577966552593;s_h;;;;;0;16;16;16;;;;;;;300.0035453001037;None;301.4951796999667;301.81193590001203;302.9371412000619;302.95352460001595;304.9452615000773;None;9;0;304.9452615000773;None;;;;;;;;6;;;;;0.4408227999228984;;;306.48668839992024;None;None;None;[];306.48668839992024;None;['9'];306.48668839992024;None;[1.0831406000070274];;;S10847;2021_Aug_26_1236;VideoMask;2021.1.2;119.97211832326438;
3.0;m;033_o_m_h_a.jpg;happy;9.0;sad_128.1.wmv;sad;7.0;incongruent;120.0;160.0;171.0492454518585;h_s;;;;;0;17;17;17;;;;;;;309.48676600004546;None;311.128202999942;311.4449426999781;312.57805870007724;312.59495820011944;314.5782497001346;None;7;0;314.5782497001346;None;;;;;;;;2;;;;;0.4873820999637246;;;316.1282186000608;None;None;None;[];316.1282186000608;None;"['7', '7', '7']";316.1282186000608;None;"[0.3777630999684334, 0.7933175000362098, 1.2574920000042766]";;;S10847;2021_Aug_26_1236;VideoMask;2021.1.2;119.97211832326438;
1.0;f;021_o_f_h_a.jpg;happy;9.0;sad_116.1.wmv;sad;7.0;incongruent;120.0;160.0;184.06847610053055;h_s;;;;;0;18;18;18;;;;;;;319.1281208000146;None;320.88624000013806;321.20294230012223;322.33638270013034;322.3530574000906;324.33637039992027;None;7;0;324.33637039992027;None;;;;;;;;4;;;;;0.6975334000308067;;;326.2695418000221;None;None;None;[];326.2695418000221;None;"['7', '7', '7']";326.2695418000221;None;"[0.4523108000867069, 0.924218500033021, 1.6442086000461131]";;;S10847;2021_Aug_26_1236;VideoMask;2021.1.2;119.97211832326438;
4.0;m;004_o_m_s_a.jpg;sad;7.0;happy_28.1ns.avi;happy;9.0;incongruent;130.0;150.0;157.40741103039684;s_h;;;;;0;19;19;19;;;;;;;329.26951509993523;None;330.79428709996864;331.110946000088;332.2609701999463;332.2775125000626;336.63593340013176;None;9;0;336.63593340013176;None;;;;;;;;5;;;;;1.0060664000920951;;;338.18576869997196;None;None;None;[];338.18576869997196;None;None;338.18576869997196;None;;;;S10847;2021_Aug_26_1236;VideoMask;2021.1.2;119.97211832326438;
8.0;f;028_y_f_s_a.jpg;sad;7.0;happy_122.3.wmv;happy;9.0;incongruent;130.0;150.0;171.8670540936116;s_h;;;;;0;20;20;20;;;;;;;341.21061920002103;None;342.8605639000889;343.1772583001293;344.31060030008666;344.3272539000027;346.31094190012664;None;9;0;346.31094190012664;None;;;;;;;;6;;;;;0.41083869989961386;;;347.8521925001405;None;None;None;[];347.8521925001405;None;['9'];347.8521925001405;None;[1.2294094001408666];;;S10847;2021_Aug_26_1236;VideoMask;2021.1.2;119.97211832326438;
8.0;m;008_y_m_s_a.jpg;sad;7.0;sad_6.5ns.avi;sad;7.0;congruent;130.0;160.0;170.39333839271438;s_s;;;;;0;21;21;21;;;;;;;350.86051269993186;None;352.49372419994324;352.8102569999173;354.0186103999149;354.03539730003104;358.94366089999676;None;7;0;358.94366089999676;None;;;;;;;;4;;;;;0.6980452998541296;;;360.4934714001138;None;None;None;[];360.4934714001138;None;['7'];360.4934714001138;None;[0.7644632998853922];;;S10847;2021_Aug_26_1236;VideoMask;2021.1.2;119.97211832326438;
8.0;f;028_y_f_h_a.jpg;happy;9.0;happy_23.1ns.avi;happy;9.0;congruent;120.0;150.0;225.70986890587952;h_h;;;;;0;22;22;22;;;;;;;363.4934970000759;None;365.5765349001158;365.8932710001245;367.05138650001027;367.06828480004333;371.60154590010643;None;9;0;371.60154590010643;None;;;;;;;;5;;;;;0.5121957000810653;;;373.3346488000825;None;None;None;[];373.3346488000825;None;None;373.3346488000825;None;;;;S10847;2021_Aug_26_1236;VideoMask;2021.1.2;119.97211832326438;
8.0;m;008_y_m_h_a.jpg;happy;9.0;sad_111.1.wmv;sad;7.0;incongruent;120.0;160.0;152.63076835312847;h_s;;;;;0;23;23;23;;;;;;;376.3679844001308;None;377.84275970002636;378.15956960013136;379.3009528000839;379.317862899974;381.30123650003225;None;7;0;381.30123650003225;None;;;;;;;;4;;;;;0.5563759000506252;;;383.28437889995985;None;None;None;[];383.28437889995985;None;['7'];383.28437889995985;None;[1.1493079999927431];;;S10847;2021_Aug_26_1236;VideoMask;2021.1.2;119.97211832326438;
0.0;f;040_y_f_s_a.jpg;sad;7.0;sad_67.2ns.avi;sad;7.0;congruent;130.0;160.0;220.9892697323079;s_s;;;;;0;24;24;24;;;;;;;386.2843667000998;None;388.367780999979;388.6841583000496;389.88422759994864;389.9008788000792;399.0424760999158;None;7;0;399.0424760999158;None;;;;;;;;3;;;;;0.43939509987831116;;;400.59222290012985;None;None;None;[];400.59222290012985;None;"['7', '7', '7']";400.59222290012985;None;"[0.3612613999284804, 1.0736302000004798, 2.0733624999411404]";;;S10847;2021_Aug_26_1236;VideoMask;2021.1.2;119.97211832326438;
8.0;m;008_y_m_s_a.jpg;sad;7.0;happy_29.1ns.avi;happy;9.0;incongruent;130.0;150.0;120.0316142834122;s_h;;;;;0;25;25;25;;;;;;;403.6005722999107;None;404.8086449999828;405.1252000001259;406.28367909998633;406.30037420010194;408.950326600112;None;8;0;408.950326600112;None;;;;;;;;5;;;;;0.4672189000993967;;;410.50025049992837;None;None;None;[];410.50025049992837;None;None;410.50025049992837;None;;;;S10847;2021_Aug_26_1236;VideoMask;2021.1.2;119.97211832326438;
6.0;m;016_y_m_s_a.jpg;sad;7.0;sad_8.3ns.avi;sad;7.0;congruent;130.0;160.0;152.85371098242734;s_s;;;;;0;26;26;26;;;;;;;413.5252261001151;None;415.01663880003616;415.3333934000693;416.46645290008746;416.4833877000492;424.22477740002796;None;7;0;424.22477740002796;None;;;;;;;;5;;;;;1.1608331999741495;;;425.8330020001158;None;None;None;[];425.8330020001158;None;None;425.8330020001158;None;;;;S10847;2021_Aug_26_1236;VideoMask;2021.1.2;119.97211832326438;
6.0;m;016_y_m_h_a.jpg;happy;9.0;sad_114.1.wmv;sad;7.0;incongruent;120.0;160.0;136.20550699298644;h_s;;;;;0;27;27;27;;;;;;;428.84949670010246;None;430.1994962000754;430.516430699965;431.64133769995533;431.65792999998666;433.65007880004123;None;7;0;433.65007880004123;None;;;;;;;;4;;;;;0.5994903999380767;;;435.19944790005684;None;None;None;[];435.19944790005684;None;['7'];435.19944790005684;None;[0.8901848001405597];;;S10847;2021_Aug_26_1236;VideoMask;2021.1.2;119.97211832326438;
7.0;m;027_o_m_s_a.jpg;sad;7.0;happy_117.3.wmv;happy;9.0;incongruent;130.0;150.0;215.61964028550614;s_h;;;;;0;28;28;28;;;;;;;438.20784769998863;None;440.20751240011305;440.52432029997;441.6493361000903;441.6658640000969;443.65778929996304;None;None;0;443.65778929996304;None;;;;;;;;5;;;;;;;;445.24956799997017;None;None;None;[];445.24956799997017;None;None;445.24956799997017;None;;;;S10847;2021_Aug_26_1236;VideoMask;2021.1.2;119.97211832326438;
6.0;m;016_y_m_h_a.jpg;happy;9.0;happy_9.2ns.avi;happy;9.0;congruent;120.0;150.0;130.52042428082717;h_h;;;;;0;29;29;29;;;;;;;448.2827153999824;None;449.58220160007477;449.8990520001389;451.0906700999476;451.10733280004933;456.96605790010653;None;9;0;456.96605790010653;None;;;;;;;;7;;;;;0.7555955001153052;;;458.54041060013697;None;None;None;[];458.54041060013697;None;"['9', '9']";458.54041060013697;None;"[0.7491884001065046, 1.5330330000724643]";;;S10847;2021_Aug_26_1236;VideoMask;2021.1.2;119.97211832326438;
0.0;f;040_y_f_s_a.jpg;sad;7.0;happy_127.3.wmv;happy;9.0;incongruent;130.0;150.0;131.7195455720239;s_h;;;;;0;30;30;30;;;;;;;461.54883809993044;None;462.865194800077;463.1819213000126;464.3068403999787;464.32346080010757;466.3821124001406;None;9;0;466.3821124001406;None;;;;;;;;6;;;;;0.9393595000728965;;;467.93177630007267;None;None;None;[];467.93177630007267;None;['9'];467.93177630007267;None;[1.3736898999195546];;;S10847;2021_Aug_26_1236;VideoMask;2021.1.2;119.97211832326438;
0.0;f;030_o_f_s_a.jpg;sad;7.0;happy_125.3.wmv;happy;9.0;incongruent;130.0;150.0;220.51454909128134;s_h;;;;;0;31;31;31;;;;;;;470.94010680005886;None;472.9898024001159;473.3065462000668;474.4399425999727;474.45655040000565;476.4487992001232;None;9;0;476.4487992001232;None;;;;;;;;6;;;;;0.7207711001392454;;;478.1981349000707;None;None;None;[];478.1981349000707;None;['9'];478.1981349000707;None;[0.5795624000020325];;;S10847;2021_Aug_26_1236;VideoMask;2021.1.2;119.97211832326438;
0.0;f;030_o_f_s_a.jpg;sad;7.0;sad_64.3ns.avi;sad;7.0;congruent;130.0;160.0;165.78667874766072;s_s;;;;;0;32;32;32;;;;;;;481.19801659998484;None;482.78947770013474;483.10611729999073;484.24803399993107;484.26462569995783;489.23953879997134;None;None;0;489.23953879997134;None;;;;;;;;5;;;;;;;;490.98982600006275;None;None;None;[];490.98982600006275;None;None;490.98982600006275;None;;;;S10847;2021_Aug_26_1236;VideoMask;2021.1.2;119.97211832326438;
3.0;m;013_y_m_s_a.jpg;sad;7.0;sad_7.7ns.avi;sad;7.0;congruent;130.0;160.0;196.24182255763262;s_s;;;;;0;33;33;33;;;;;;;494.00582610000856;None;495.85583400004543;496.17254759999923;497.3306903000921;497.34814100014046;503.30567439994775;None;7;0;503.30567439994775;None;;;;;;;;5;;;;;0.5756385000422597;;;504.8556097999681;None;None;None;[];504.8556097999681;None;['7'];504.8556097999681;None;[2.5860272999852896];;;S10847;2021_Aug_26_1236;VideoMask;2021.1.2;119.97211832326438;
3.0;m;013_y_m_h_a.jpg;happy;9.0;happy_9.1ns.avi;happy;9.0;congruent;120.0;150.0;165.1890303600433;h_h;;;;;0;34;34;34;;;;;;;507.8556286999956;None;509.4470357000828;509.76376929995604;510.89712530002;510.91376579995267;514.122076800093;None;9;0;514.122076800093;None;;;;;;;;6;;;;;0.455600299872458;;;515.6719472999685;None;None;None;[];515.6719472999685;None;['9'];515.6719472999685;None;[0.4734926999080926];;;S10847;2021_Aug_26_1236;VideoMask;2021.1.2;119.97211832326438;
4.0;m;004_o_m_h_a.jpg;happy;9.0;sad_95.1ns.avi;sad;7.0;incongruent;120.0;160.0;152.68270002069931;h_s;;;;;0;35;35;35;;;;;;;518.6718182999175;None;520.1800055000931;520.4967388000805;521.6801346000284;521.6967186999973;530.4215903999284;None;7;0;530.4215903999284;None;;;;;;;;3;;;;;0.43582369992509484;;;531.9797823000699;None;None;None;[];531.9797823000699;None;"['7', '7']";531.9797823000699;None;"[0.6215258999727666, 1.2617548000998795]";;;S10847;2021_Aug_26_1236;VideoMask;2021.1.2;119.97211832326438;
3.0;m;013_y_m_h_a.jpg;happy;9.0;sad_113.2.wmv;sad;7.0;incongruent;120.0;160.0;217.4973891947951;h_s;;;;;0;36;36;36;;;;;;;534.9881800999865;None;537.021633700002;537.337682900019;538.4629834999796;538.4795433001127;540.4713020999916;None;8;0;540.4713020999916;None;;;;;;;;5;;;;;1.1382160000503063;;;542.021130300127;None;None;None;[];542.021130300127;None;None;542.021130300127;None;;;;S10847;2021_Aug_26_1236;VideoMask;2021.1.2;119.97211832326438;
4.0;m;004_o_m_h_a.jpg;happy;9.0;happy_25.1ns.avi;happy;9.0;congruent;120.0;150.0;216.63044503818386;h_h;;;;;0;37;37;37;;;;;;;545.0375576999504;None;547.0541137000546;547.3709273000713;548.5376568001229;548.5542142000049;552.1965099999215;None;9;0;552.1965099999215;None;;;;;;;;6;;;;;0.4287942999508232;;;553.7457296999637;None;None;None;[];553.7457296999637;None;['9'];553.7457296999637;None;[0.39149060007184744];;;S10847;2021_Aug_26_1236;VideoMask;2021.1.2;119.97211832326438;
4.0;m;004_o_m_s_a.jpg;sad;7.0;happy_131.2.wmv;happy;9.0;incongruent;130.0;150.0;181.38407540847405;s_h;;;;;0;38;38;38;;;;;;;556.7458230000921;None;558.4705034999643;558.7871954999864;559.9204764000606;559.9372525000945;561.9205424000975;None;8;0;561.9205424000975;None;;;;;;;;5;;;;;0.8812637999653816;;;563.4704806001391;None;None;None;[];563.4704806001391;None;None;563.4704806001391;None;;;;S10847;2021_Aug_26_1236;VideoMask;2021.1.2;119.97211832326438;
0.0;f;040_y_f_h_a.jpg;happy;9.0;happy_24.3ns.avi;happy;9.0;congruent;120.0;150.0;213.25460698950434;h_h;;;;;0;39;39;39;;;;;;;566.4952617001254;None;568.4701825000811;568.7869937000796;569.9451752000023;569.9618283999152;571.8453613000456;None;9;0;571.8453613000456;None;;;;;;;;6;;;;;0.4599610997829586;;;573.3951199001167;None;None;None;[];573.3951199001167;None;['9'];573.3951199001167;None;[0.39017240004613996];;;S10847;2021_Aug_26_1236;VideoMask;2021.1.2;119.97211832326438;
2.0;f;012_o_f_s_a.jpg;sad;7.0;happy_139.1.wmv;happy;9.0;incongruent;130.0;150.0;162.31500468041804;s_h;;;;;0;40;40;40;;;;;;;576.3951938999817;None;577.9532199001405;578.2699534001295;579.4031229000539;579.4197897999547;581.4039417000022;None;None;0;581.4039417000022;None;;;;;;;;6;;;;;;;;582.9536514000501;None;None;None;[];582.9536514000501;None;['9'];582.9536514000501;None;[1.6476813999470323];;;S10847;2021_Aug_26_1236;VideoMask;2021.1.2;119.97211832326438;
0.0;f;030_o_f_h_a.jpg;happy;9.0;happy_24.1ns.avi;happy;9.0;congruent;120.0;150.0;168.36256624020774;h_h;;;;;0;41;41;41;;;;;;;585.9531704001129;None;587.5612367000431;587.8777857001405;589.0528416000307;589.069573600078;592.3361875999253;None;9;0;592.3361875999253;None;;;;;;;;6;;;;;0.52909000008367;;;593.886135699926;None;None;None;[];593.886135699926;None;['9'];593.886135699926;None;[0.3713022000156343];;;S10847;2021_Aug_26_1236;VideoMask;2021.1.2;119.97211832326438;
2.0;f;012_o_f_h_a.jpg;happy;9.0;sad_113.1.wmv;sad;7.0;incongruent;120.0;160.0;177.44551734737394;h_s;;;;;0;42;42;42;;;;;;;596.886220500106;None;598.5775615000166;598.8943018999416;600.0275121000595;600.044357100036;602.0276496999431;None;7;0;602.0276496999431;None;;;;;;;;3;;;;;0.965462300227955;;;603.577555899974;None;None;None;[];603.577555899974;None;"['7', '7']";603.577555899974;None;"[0.47130790003575385, 1.3913475000299513]";;;S10847;2021_Aug_26_1236;VideoMask;2021.1.2;119.97211832326438;
3.0;m;033_o_m_s_a.jpg;sad;7.0;sad_64.5ns.avi;sad;7.0;congruent;130.0;160.0;130.55717223801247;s_s;;;;;0;43;43;43;;;;;;;606.5775007000193;None;607.8772887999658;608.1940325999167;609.3273549999576;609.3446504999883;615.9271331999917;None;7;0;615.9271331999917;None;;;;;;;;2;;;;;0.6661119000054896;;;617.4771108999848;None;None;None;[];617.4771108999848;None;"['7', '7', '7', '7']";617.4771108999848;None;"[0.43609649990685284, 0.8521312000229955, 1.300277499947697, 1.7399899999145418]";;;S10847;2021_Aug_26_1236;VideoMask;2021.1.2;119.97211832326438;
7.0;m;027_o_m_h_a.jpg;happy;9.0;sad_117.1.wmv;sad;7.0;incongruent;120.0;160.0;181.28665202824095;h_s;;;;;0;44;44;44;;;;;;;620.4772151999641;None;622.201975800097;622.5185642999131;623.6599592000712;623.6768076999579;625.6518326001242;None;None;0;625.6518326001242;None;;;;;;;;5;;;;;;;;627.2019158001058;None;None;None;[];627.2019158001058;None;None;627.2019158001058;None;;;;S10847;2021_Aug_26_1236;VideoMask;2021.1.2;119.97211832326438;
3.0;m;033_o_m_s_a.jpg;sad;7.0;happy_126.3.wmv;happy;9.0;incongruent;130.0;150.0;198.85252030535366;s_h;;;;;0;45;45;45;;;;;;;630.2267001001164;None;632.093167199986;632.4100200000685;633.5430391000118;633.5599194001406;635.5437813000754;None;None;0;635.5437813000754;None;;;;;;;;5;;;;;;;;637.0934321000241;None;None;None;[];637.0934321000241;None;None;637.0934321000241;None;;;;S10847;2021_Aug_26_1236;VideoMask;2021.1.2;119.97211832326438;
3.0;m;033_o_m_h_a.jpg;happy;9.0;sad_136.1.wmv;sad;7.0;incongruent;120.0;160.0;176.97002883463455;h_s;;;;;0;46;46;46;;;;;;;640.1182852999773;None;641.8095410000533;642.1268798999954;643.2596859000623;643.2762895999476;645.2762001999654;None;7;0;645.2762001999654;None;;;;;;;;2;;;;;0.5409566001035273;;;646.826147200074;None;None;None;[];646.826147200074;None;"['7', '7', '7', '7']";646.826147200074;None;"[0.3110609999857843, 0.9832428998779505, 1.5513939999509603, 2.471176699968055]";;;S10847;2021_Aug_26_1236;VideoMask;2021.1.2;119.97211832326438;
9.0;f;019_m_f_h_a.jpg;happy;9.0;happy_10.1ns.avi;happy;9.0;congruent;120.0;150.0;157.2463435658512;h_h;;;;;0;47;47;47;;;;;;;649.8262579001021;None;651.3591158001218;651.6761604999192;652.8094367999583;652.8261378000025;660.2508994000964;None;9;0;660.2508994000964;None;;;;;;;;8;;;;;0.4543086001649499;;;661.8007766001392;None;None;None;[];661.8007766001392;None;"['9', '9', '9']";661.8007766001392;None;"[0.5687642998527735, 1.2241911999881268, 2.4245831998996437]";;;S10847;2021_Aug_26_1236;VideoMask;2021.1.2;119.97211832326438;
2.0;f;012_o_f_h_a.jpg;happy;9.0;happy_2.2ns.avi;happy;9.0;congruent;120.0;150.0;206.34800317295262;h_h;;;;;0;48;48;48;;;;;;;664.8007034000475;None;666.7670639001299;667.0838365999516;668.2338409000076;668.2505165000912;680.4171573000494;None;9;0;680.4171573000494;None;;;;;;;;6;;;;;0.43209530017338693;;;681.9750864999369;None;None;None;[];681.9750864999369;None;['9'];681.9750864999369;None;[0.35396900004707277];;;S10847;2021_Aug_26_1236;VideoMask;2021.1.2;119.97211832326438;
3.0;m;033_o_m_h_a.jpg;happy;9.0;happy_24.2ns.avi;happy;9.0;congruent;120.0;150.0;167.9423847659953;h_h;;;;;0;49;49;49;;;;;;;684.9751087001059;None;686.5748203999829;686.8915341999382;688.0164801001083;688.0332414999139;691.7588237000164;None;9;0;691.7588237000164;None;;;;;;;;6;;;;;0.43423200002871454;;;693.3663164000027;None;None;None;[];693.3663164000027;None;['9'];693.3663164000027;None;[0.6588516999036074];;;S10847;2021_Aug_26_1236;VideoMask;2021.1.2;119.97211832326438;
1.0;f;021_o_f_s_a.jpg;sad;7.0;happy_61.2ns.avi;happy;9.0;incongruent;130.0;150.0;210.94664004826666;s_h;;;;;0;50;50;50;;;;;;;696.3663415000774;None;698.3326753000729;698.6495425999165;699.8576956000179;699.8744912000839;704.3079850999638;None;9;0;704.3079850999638;None;;;;;;;;7;;;;;0.4290102000813931;;;705.8576649001334;None;None;None;[];705.8576649001334;None;"['9', '9']";705.8576649001334;None;"[0.4075682999100536, 0.8234608999919146]";;;S10847;2021_Aug_26_1236;VideoMask;2021.1.2;119.97211832326438;
4.0;m;004_o_m_s_a.jpg;sad;7.0;sad_2.4ns.avi;sad;7.0;congruent;130.0;160.0;153.02079367163634;s_s;;;;;0;51;51;51;;;;;;;708.8659636001103;None;710.3740439999383;710.6912887000944;711.9072456001304;711.9241414999124;719.7824429001193;None;7;0;719.7824429001193;None;;;;;;;;2;;;;;0.6027714000083506;;;721.3321702999528;None;None;None;[];721.3321702999528;None;"['7', '7', '7']";721.3321702999528;None;"[0.3571130000054836, 0.7730199000798166, 1.180984599981457]";;;S10847;2021_Aug_26_1236;VideoMask;2021.1.2;119.97211832326438;
8.0;m;008_y_m_h_a.jpg;happy;9.0;happy_1.2ns.avi;happy;9.0;congruent;120.0;150.0;210.98946429383824;h_h;;;;;0;52;52;52;;;;;;;724.3405627000611;None;726.3485417999327;726.6652891999111;727.8320812000893;727.8486430000048;740.5899348999374;None;None;0;740.5899348999374;None;;;;;;;;5;;;;;;;;742.1404268001206;None;None;None;[];742.1404268001206;None;None;742.1404268001206;None;;;;S10847;2021_Aug_26_1236;VideoMask;2021.1.2;119.97211832326438;
2.0;f;012_o_f_s_a.jpg;sad;7.0;happy_52.2ns.avi;happy;9.0;incongruent;130.0;150.0;172.57202848318138;s_h;;;;;0;53;53;53;;;;;;;745.1645842001308;None;746.806226799963;747.1230031999294;748.2646653000265;748.2813649999443;751.8063739999197;None;None;0;751.8063739999197;None;;;;;;;;5;;;;;;;;753.4226532001048;None;None;None;[];753.4226532001048;None;None;753.4226532001048;None;;;;S10847;2021_Aug_26_1236;VideoMask;2021.1.2;119.97211832326438;
9.0;f;019_m_f_s_a.jpg;sad;7.0;happy_61.1ns.avi;happy;9.0;incongruent;130.0;150.0;181.3003220572762;s_h;;;;;0;54;54;54;;;;;;;756.4393975001294;None;758.1808210001327;758.4976598999929;759.7314307000488;759.7559585999697;767.0224858000875;None;9;0;767.0224858000875;None;;;;;;;;6;;;;;0.42637729994021356;;;768.5806958000176;None;None;None;[];768.5806958000176;None;['9'];768.5806958000176;None;[0.29253949993290007];;;S10847;2021_Aug_26_1236;VideoMask;2021.1.2;119.97211832326438;
0.0;f;030_o_f_h_a.jpg;happy;9.0;sad_133.1.wmv;sad;7.0;incongruent;120.0;160.0;198.86251500867985;h_s;;;;;0;55;55;55;;;;;;;771.5806066999212;None;773.4470905000344;773.7637793999165;774.8971464000642;774.9139441999141;776.8977498000022;None;7;0;776.8977498000022;None;;;;;;;;5;;;;;1.0152284000068903;;;778.5720621999353;None;None;None;[];778.5720621999353;None;None;778.5720621999353;None;;;;S10847;2021_Aug_26_1236;VideoMask;2021.1.2;119.97211832326438;
0.0;f;040_y_f_h_a.jpg;happy;9.0;sad_128.2.wmv;sad;7.0;incongruent;120.0;160.0;206.10005857915363;h_s;;;;;0;56;56;56;;;;;;;781.5885471000802;None;783.5385183999315;783.8550629001111;784.9882930000313;785.0052372999489;786.9885673001409;None;7;0;786.9885673001409;None;;;;;;;;4;;;;;0.37237540003843606;;;788.6217551999725;None;None;None;[];788.6217551999725;None;['7'];788.6217551999725;None;[0.38704599998891354];;;S10847;2021_Aug_26_1236;VideoMask;2021.1.2;119.97211832326438;
1.0;f;021_o_f_s_a.jpg;sad;7.0;sad_9.5ns.avi;sad;7.0;congruent;130.0;160.0;206.16642757875042;s_s;;;;;0;57;57;57;;;;;;;791.6217662999406;None;793.554803899955;793.8716396000236;795.0296897999942;795.046343700029;800.7297120001167;None;7;0;800.7297120001167;None;;;;;;;;5;;;;;0.4791107000783086;;;802.2796694000717;None;None;None;[];802.2796694000717;None;None;802.2796694000717;None;;;;S10847;2021_Aug_26_1236;VideoMask;2021.1.2;119.97211832326438;
1.0;f;021_o_f_h_a.jpg;happy;9.0;happy_12.1ns.avi;happy;9.0;congruent;120.0;150.0;132.59080005900228;h_h;;;;;0;58;58;58;;;;;;;805.3130600000732;None;806.6460541000124;806.9633389001247;808.1208579000086;808.1376869999804;815.7127257999964;None;9;0;815.7127257999964;None;;;;;;;;5;;;;;0.3841718998737633;;;817.2707877000794;None;None;None;[];817.2707877000794;None;"['9', '9']";817.2707877000794;None;"[0.38591190008446574, 1.610134599963203]";;;S10847;2021_Aug_26_1236;VideoMask;2021.1.2;119.97211832326438;
3.0;m;013_y_m_s_a.jpg;sad;7.0;happy_56.2ns.avi;happy;9.0;incongruent;130.0;150.0;163.39234110935848;s_h;;;;;0;59;59;59;;;;;;;820.2791315000504;None;821.8455723000225;822.1622925999109;823.3121839999221;823.3288342999294;828.3206412000582;None;8;0;828.3206412000582;None;;;;;;;;5;;;;;1.2241519000381231;;;829.8788332999684;None;None;None;[];829.8788332999684;None;None;829.8788332999684;None;;;;S10847;2021_Aug_26_1236;VideoMask;2021.1.2;119.97211832326438;
;;;;;;;;;;;;;;;;;;;;;;;;;;;;;;;;;;;;;;;;;;;;;;;;;;;;;;;;;;;;;;;;;832.9037248999812;None;;;;;;
