primePerson;primeGender;prime;primeEmotion;corrAnsPrime;target;targetEmotion;corrAnsTar;Cond;ID_Primer;ID_Target;JitterTime;Condition;example.thisRepN;example.thisTrialN;example.thisN;example.thisIndex;study.thisRepN;study.thisTrialN;study.thisN;study.thisIndex;MR_trigger_time;MR_trigger_number;text_intro.started;text_intro.stopped;text_probe.started;text_probe.stopped;polygon_ISI.started;polygon_ISI.stopped;polygon.started;polygon.stopped;primerImage.started;primerImage.stopped;response.started;response.stopped;key_resp.keys;key_resp.corr;key_resp.rt;key_resp.started;key_resp.stopped;slider_Text.started;slider_Text.stopped;slider_ex.response;slider_ex.rt;slider_ex.history;slider_ex.started;slider_ex.stopped;Rating;slider_resp_response.keys;slider_resp_response.started;slider_resp_response.stopped;text_start.started;text_start.stopped;text_slider.started;text_slider.stopped;slider_stud.response;slider_stud.rt;slider_stud.history;slider_stud.started;slider_stud.stopped;slider_resp_study.keys;slider_resp_study.rt;slider_resp_study.started;slider_resp_study.stopped;text_ende.started;text_ende.stopped;participant;date;expName;psychopyVersion;frameRate;
1111;m;1111_m_m_h_a.jpg;happy;9;example_30.4ns.avi;neutral;7;incongruent;120.0;170.0;189.5874364012288;;0;0;0;0;;;;;29.959747200016864;1;30.046616700012237;32.04638049995992;32.04638049995992;None;34.06361409998499;None;36.33772700000554;36.66302390000783;37.81290480005555;37.82967500004452;42.129310599993914;None;8;0;0.8351733000017703;42.129310599993914;None;43.787783900042996;None;None;None;[];43.787783900042996;None;5;None;43.787783900042996;None;;;;;;;;;;;;;;;;S12038;2023_Feb_23_1754;VideoMask;2021.1.2;118.82115146858217;
1113;f;1113_y_f_s_a.jpg;sad;7;example_30.3ns.avi;neutral;7;incongruent;130.0;170.0;229.02432995836998;;0;1;1;1;;;;;;;;;;;46.81277089996729;None;48.92902879999019;49.245742900064215;50.38757250003982;50.40424219996203;52.39592190005351;None;8;0;0.8964957999996841;52.39592190005351;None;53.945695300004445;None;None;None;[];53.945695300004445;None;5;None;53.945695300004445;None;;;;;;;;;;;;;;;;S12038;2023_Feb_23_1754;VideoMask;2021.1.2;118.82115146858217;
9.0;f;019_m_f_h_a.jpg;happy;9.0;sad_115.1.wmv;sad;7.0;incongruent;120.0;160.0;128.09063432376465;h_s;;;;;0;0;0;0;;;;;;;57.99565319996327;None;59.27875239995774;59.595395100070164;60.74557370005641;60.76218169997446;62.73697980004363;None;7;0;0.41939819999970496;62.73697980004363;None;;;;;;;;1;;;;56.9706875999691;None;64.39531559997704;None;None;None;[];64.39531559997704;None;"['7', '7', '7', '7', '7', '7']";"[0.3853091000346467, 0.7295762000139803, 0.9932518000714481, 1.4011536000762135, 1.9051640999969095, 2.5372704000910744]";64.39531559997704;None;;;S12038;2023_Feb_23_1754;VideoMask;2021.1.2;118.82115146858217;
3.0;m;033_o_m_s_a.jpg;sad;7.0;sad_94.2ns.avi;sad;7.0;congruent;130.0;160.0;182.29120173647655;s_s;;;;;0;1;1;1;;;;;;;67.39530350000132;None;69.15335459995549;69.4702095000539;70.67018959997222;70.68687860004138;73.29502800002228;None;8;0;1.4535000000614673;73.29502800002228;None;;;;;;;;5;;;;;;74.84506029996555;None;None;None;[];74.84506029996555;None;None;;74.84506029996555;None;;;S12038;2023_Feb_23_1754;VideoMask;2021.1.2;118.82115146858217;
8.0;m;008_y_m_h_a.jpg;happy;9.0;happy_26.1ns.avi;happy;9.0;congruent;120.0;150.0;155.9437854594882;h_h;;;;;0;2;2;2;;;;;;;77.86145840003155;None;79.3780860999832;79.69476230000146;80.8782191000646;80.8948398999637;82.81978719995823;None;9;0;1.2244921000674367;82.81978719995823;None;;;;;;;;6;;;;;;84.57791590003762;None;None;None;[];84.57791590003762;None;['9'];[0.4747747000074014];84.57791590003762;None;;;S12038;2023_Feb_23_1754;VideoMask;2021.1.2;118.82115146858217;
0.0;f;040_y_f_h_a.jpg;happy;9.0;sad_138.1.wmv;sad;7.0;incongruent;120.0;160.0;133.99071306426532;h_s;;;;;0;3;3;3;;;;;;;87.58632440003566;None;88.91946590004954;89.23624650004786;90.36132520006504;90.37782589998096;92.37789550004527;None;None;0;;92.37789550004527;None;;;;;;;;4;;;;;;94.27779149997514;None;None;None;[];94.27779149997514;None;"['7', '7']";"[0.3909827000461519, 1.6865961999865249]";94.27779149997514;None;;;S12038;2023_Feb_23_1754;VideoMask;2021.1.2;118.82115146858217;
8.0;f;028_y_f_s_a.jpg;sad;7.0;sad_64.2ns.avi;sad;7.0;congruent;130.0;160.0;229.88540597086478;s_s;;;;;0;4;4;4;;;;;;;97.27784780005459;None;99.50266130000819;99.8191018999787;100.96916510001756;100.98564930004068;111.95216560002882;None;7;0;0.6524838999612257;111.95216560002882;None;;;;;;;;4;;;;;;113.50217130000237;None;None;None;[];113.50217130000237;None;['7'];[0.31829080008901656];113.50217130000237;None;;;S12038;2023_Feb_23_1754;VideoMask;2021.1.2;118.82115146858217;
7.0;m;027_o_m_s_a.jpg;sad;7.0;sad_10.4ns.avi;sad;7.0;congruent;130.0;160.0;185.20129417468752;s_s;;;;;0;5;5;5;;;;;;;116.50214690004941;None;118.26020050002262;118.57683210005052;119.73520250001457;119.75178569997661;122.87708360003307;None;8;0;0.6637698999838904;122.87708360003307;None;;;;;;;;5;;;;;;124.42678259999957;None;None;None;[];124.42678259999957;None;['7'];[1.7857618000125512];124.42678259999957;None;;;S12038;2023_Feb_23_1754;VideoMask;2021.1.2;118.82115146858217;
2.0;f;012_o_f_s_a.jpg;sad;7.0;sad_7.5ns.avi;sad;7.0;congruent;130.0;160.0;220.27842655424388;s_s;;;;;0;6;6;6;;;;;;;127.4351389000658;None;129.46813259995542;129.78490780002903;131.01820200006478;131.03493940003682;133.7099052000558;None;7;0;0.5587485000723973;133.7099052000558;None;;;;;;;;4;;;;;;135.27640370000154;None;None;None;[];135.27640370000154;None;"['7', '7']";"[0.36816800001543015, 1.232171899988316]";135.27640370000154;None;;;S12038;2023_Feb_23_1754;VideoMask;2021.1.2;118.82115146858217;
2.0;f;012_o_f_h_a.jpg;happy;9.0;happy_27.1ns.avi;happy;9.0;congruent;120.0;150.0;146.44967055810616;h_h;;;;;0;7;7;7;;;;;;;138.28467990003992;None;139.70949240005575;140.0261856999714;141.2933170000324;141.31785840005614;143.6511006000219;None;9;0;0.3291919999755919;143.6511006000219;None;;;;;;;;8;;;;;;145.22610189998522;None;None;None;[];145.22610189998522;None;"['9', '9', '9']";"[0.1306380000896752, 0.9304734000470489, 1.890661400044337]";145.22610189998522;None;;;S12038;2023_Feb_23_1754;VideoMask;2021.1.2;118.82115146858217;
8.0;f;028_y_f_h_a.jpg;happy;9.0;sad_119.1.wmv;sad;7.0;incongruent;120.0;160.0;148.71526953572538;h_s;;;;;0;8;8;8;;;;;;;148.2343975000549;None;149.6841596000595;150.0009195000166;151.1349632999627;151.1592655000277;153.20088739995845;None;7;0;0.27555739996023476;153.20088739995845;None;;;;;;;;3;;;;;;154.82575800002087;None;None;None;[];154.82575800002087;None;"['7', '7', '7']";"[0.22677660000044852, 0.618833800079301, 1.0829276000149548]";154.82575800002087;None;;;S12038;2023_Feb_23_1754;VideoMask;2021.1.2;118.82115146858217;
6.0;m;016_y_m_s_a.jpg;sad;7.0;happy_60.4ns.avi;happy;9.0;incongruent;130.0;150.0;126.02367393611817;s_h;;;;;0;9;9;9;;;;;;;157.82584970002063;None;159.11730070004705;159.43384229997173;160.59206779999658;160.6087414000649;166.35874920000788;None;9;0;0.2937604000326246;166.35874920000788;None;;;;;;;;6;;;;;;167.95030450006016;None;None;None;[];167.95030450006016;None;['9'];[0.5023158999392763];167.95030450006016;None;;;S12038;2023_Feb_23_1754;VideoMask;2021.1.2;118.82115146858217;
9.0;f;019_m_f_s_a.jpg;sad;7.0;sad_8.4ns.avi;sad;7.0;congruent;130.0;160.0;171.6633093155257;s_s;;;;;0;10;10;10;;;;;;;170.9585659999866;None;172.63357689999975;172.9501710999757;174.11685049999505;174.13352330005728;182.21651369996835;None;8;0;0.36416859994642437;182.21651369996835;None;;;;;;;;5;;;;;;183.76656969997566;None;None;None;[];183.76656969997566;None;None;;183.76656969997566;None;;;S12038;2023_Feb_23_1754;VideoMask;2021.1.2;118.82115146858217;
4.0;m;004_o_m_h_a.jpg;happy;9.0;happy_1.1ns.avi;happy;9.0;congruent;120.0;150.0;203.50057144619865;h_h;;;;;0;11;11;11;;;;;;;186.7912565000588;None;188.7661994000664;189.08305550005753;190.24124929995742;190.25781239999924;204.69912730006035;None;8;0;1.0093256999971345;204.69912730006035;None;;;;;;;;5;;;;;;206.26569000002928;None;None;None;[];206.26569000002928;None;None;;206.26569000002928;None;;;S12038;2023_Feb_23_1754;VideoMask;2021.1.2;118.82115146858217;
7.0;m;027_o_m_h_a.jpg;happy;9.0;happy_20.1ns.avi;happy;9.0;congruent;120.0;150.0;152.91127178874285;h_h;;;;;0;12;12;12;;;;;;;209.29052360006608;None;210.77382949995808;211.09048430004623;212.2490954999812;212.2655973000219;215.24053299997468;None;9;0;0.7319976999424398;215.24053299997468;None;;;;;;;;6;;;;;;216.79035719996318;None;None;None;[];216.79035719996318;None;['9'];[0.2701925999717787];216.79035719996318;None;;;S12038;2023_Feb_23_1754;VideoMask;2021.1.2;118.82115146858217;
0.0;f;040_y_f_s_a.jpg;sad;7.0;sad_94.3ns.avi;sad;7.0;congruent;130.0;160.0;155.27414203894395;s_s;;;;;0;13;13;13;;;;;;;219.79881060007028;None;221.298476499971;221.61524820001796;222.8399899000069;222.85675629996695;225.37365550000686;None;8;0;1.0228068999713287;225.37365550000686;None;;;;;;;;5;;;;;;226.93175200000405;None;None;None;[];226.93175200000405;None;None;;226.93175200000405;None;;;S12038;2023_Feb_23_1754;VideoMask;2021.1.2;118.82115146858217;
0.0;f;030_o_f_s_a.jpg;sad;7.0;sad_68.1ns.avi;sad;7.0;congruent;130.0;160.0;158.9411396037211;s_s;;;;;0;14;14;14;;;;;;;229.96507210005075;None;231.5233920000028;231.83994760003407;233.01475370000117;233.03145800007042;240.39813460002188;None;7;0;0.6225793999619782;240.39813460002188;None;;;;;;;;3;;;;;;241.94800019997638;None;None;None;[];241.94800019997638;None;"['7', '7', '7']";"[0.2805370999267325, 0.6002959999023005, 1.1364687999011949]";241.94800019997638;None;;;S12038;2023_Feb_23_1754;VideoMask;2021.1.2;118.82115146858217;
0.0;f;030_o_f_h_a.jpg;happy;9.0;sad_127.1.wmv;sad;7.0;incongruent;120.0;160.0;180.59976631384873;h_s;;;;;0;15;15;15;;;;;;;244.9479403999867;None;246.66444650001358;246.9810981999617;248.10617569996975;248.12351990002207;250.11438150005415;None;8;0;0.9540600000182167;250.11438150005415;None;;;;;;;;5;;;;;;251.66436850000173;None;None;None;[];251.66436850000173;None;None;;251.66436850000173;None;;;S12038;2023_Feb_23_1754;VideoMask;2021.1.2;118.82115146858217;
8.0;m;008_y_m_s_a.jpg;sad;7.0;happy_133.3.wmv;happy;9.0;incongruent;130.0;150.0;152.577966552593;s_h;;;;;0;16;16;16;;;;;;;254.68075960001443;None;256.1556431000354;256.4725629000459;257.59759869996924;257.61418220005;259.6057606000686;None;7;0;0.4628409999422729;259.6057606000686;None;;;;;;;;4;;;;;;261.147390200058;None;None;None;[];261.147390200058;None;['7'];[0.2250674000242725];261.147390200058;None;;;S12038;2023_Feb_23_1754;VideoMask;2021.1.2;118.82115146858217;
3.0;m;033_o_m_h_a.jpg;happy;9.0;sad_128.1.wmv;sad;7.0;incongruent;120.0;160.0;171.0492454518585;h_s;;;;;0;17;17;17;;;;;;;264.1556123000337;None;265.8054446000606;266.1221913000336;267.27220660005696;267.28891720005777;269.2555233000312;None;7;0;0.35718639998231083;269.2555233000312;None;;;;;;;;3;;;;;;270.87209880002774;None;None;None;[];270.87209880002774;None;"['7', '7', '7']";"[0.07646899996325374, 0.31668230006471276, 0.6527594999643043]";270.87209880002774;None;;;S12038;2023_Feb_23_1754;VideoMask;2021.1.2;118.82115146858217;
1.0;f;021_o_f_h_a.jpg;happy;9.0;sad_116.1.wmv;sad;7.0;incongruent;120.0;160.0;184.06847610053055;h_s;;;;;0;18;18;18;;;;;;;273.88048509997316;None;275.6300353000406;275.9468407999957;277.09733869996853;277.121777900029;279.0800567000406;None;7;0;0.6363826000597328;279.0800567000406;None;;;;;;;;3;;;;;;280.6550640000496;None;None;None;[];280.6550640000496;None;"['7', '7']";"[0.037650999962352216, 1.022150499979034]";280.6550640000496;None;;;S12038;2023_Feb_23_1754;VideoMask;2021.1.2;118.82115146858217;
4.0;m;004_o_m_s_a.jpg;sad;7.0;happy_28.1ns.avi;happy;9.0;incongruent;130.0;150.0;157.40741103039684;s_h;;;;;0;19;19;19;;;;;;;283.6635423999978;None;285.1964799000416;285.51323380006943;286.7720121999737;286.7965787999565;291.0381671000505;None;9;0;0.406636800034903;291.0381671000505;None;;;;;;;;8;;;;;;292.6544906999916;None;None;None;[];292.6544906999916;None;"['9', '9', '9']";"[11.965427199960686, 0.20584750000853091, 0.43772639997769147]";292.6544906999916;None;;;S12038;2023_Feb_23_1754;VideoMask;2021.1.2;118.82115146858217;
8.0;f;028_y_f_s_a.jpg;sad;7.0;happy_122.3.wmv;happy;9.0;incongruent;130.0;150.0;171.8670540936116;s_h;;;;;0;20;20;20;;;;;;;295.6464617999736;None;297.29609530000016;297.6129089000169;298.7466188999824;298.77109000005294;300.7461289999774;None;8;0;0.3784184999531135;300.7461289999774;None;;;;;;;;5;;;;;;302.79606640001293;None;None;None;[];302.79606640001293;None;None;;302.79606640001293;None;;;S12038;2023_Feb_23_1754;VideoMask;2021.1.2;118.82115146858217;
8.0;m;008_y_m_s_a.jpg;sad;7.0;sad_6.5ns.avi;sad;7.0;congruent;130.0;160.0;170.39333839271438;s_s;;;;;0;21;21;21;;;;;;;305.82926220004447;None;307.46242630004417;307.7791755000362;308.9291066000005;308.9458488000091;313.9206455000676;None;7;0;0.31593489996157587;313.9206455000676;None;;;;;;;;2;;;;;;315.5456437000539;None;None;None;[];315.5456437000539;None;"['7', '7', '7', '7']";"[0.018927199998870492, 0.24273219995666295, 0.46687470003962517, 1.155376199982129]";315.5456437000539;None;;;S12038;2023_Feb_23_1754;VideoMask;2021.1.2;118.82115146858217;
8.0;f;028_y_f_h_a.jpg;happy;9.0;happy_23.1ns.avi;happy;9.0;congruent;120.0;150.0;225.70986890587952;h_h;;;;;0;22;22;22;;;;;;;318.54563629999757;None;320.6369871000061;320.9537237000186;322.1035211000126;322.12031849997584;326.66205160005484;None;9;0;0.2784797999775037;326.66205160005484;None;;;;;;;;8;;;;;;328.2868957000319;None;None;None;[];328.2868957000319;None;"['9', '9', '9']";"[0.00558420002926141, 0.25352430006023496, 0.51757250004448]";328.2868957000319;None;;;S12038;2023_Feb_23_1754;VideoMask;2021.1.2;118.82115146858217;
8.0;m;008_y_m_h_a.jpg;happy;9.0;sad_111.1.wmv;sad;7.0;incongruent;120.0;160.0;152.63076835312847;h_s;;;;;0;23;23;23;;;;;;;331.28691979998257;None;332.7699668999994;333.08661140000913;334.2281512999907;334.24507549998816;336.2199225999648;None;7;0;0.47285139991436154;336.2199225999648;None;;;;;;;;2;;;;;;337.8449358000653;None;None;None;[];337.8449358000653;None;"['7', '7', '7', '7', '7']";"[0.09557959996163845, 0.3276556999189779, 0.5515436999266967, 0.7754160999320447, 0.9993625999195501]";337.8449358000653;None;;;S12038;2023_Feb_23_1754;VideoMask;2021.1.2;118.82115146858217;
0.0;f;040_y_f_s_a.jpg;sad;7.0;sad_67.2ns.avi;sad;7.0;congruent;130.0;160.0;220.9892697323079;s_s;;;;;0;24;24;24;;;;;;;340.84495269996114;None;342.93644299998414;343.2530268999981;344.41941670002416;344.4361914000474;353.61121909995563;None;7;0;0.881443899939768;353.61121909995563;None;;;;;;;;2;;;;;;355.26106120005716;None;None;None;[];355.26106120005716;None;"['7', '7', '7']";"[0.023389199981465936, 0.4392283000051975, 0.6713492999551818]";355.26106120005716;None;;;S12038;2023_Feb_23_1754;VideoMask;2021.1.2;118.82115146858217;
8.0;m;008_y_m_s_a.jpg;sad;7.0;happy_29.1ns.avi;happy;9.0;incongruent;130.0;150.0;120.0316142834122;s_h;;;;;0;25;25;25;;;;;;;358.26923360000364;None;359.47741299995687;359.7941635999596;360.92796090000775;360.95251219999045;363.6194990000222;None;8;0;0.2492002999642864;363.6194990000222;None;;;;;;;;5;;;;;;365.17738780006766;None;None;None;[];365.17738780006766;None;None;;365.17738780006766;None;;;S12038;2023_Feb_23_1754;VideoMask;2021.1.2;118.82115146858217;
6.0;m;016_y_m_s_a.jpg;sad;7.0;sad_8.3ns.avi;sad;7.0;congruent;130.0;160.0;152.85371098242734;s_s;;;;;0;26;26;26;;;;;;;368.2023367000511;None;369.7272680000169;370.043793000048;371.23537330003455;371.25229299999774;378.935444700066;None;7;0;0.42105120001360774;378.935444700066;None;;;;;;;;4;;;;;;380.48523250001017;None;None;None;[];380.48523250001017;None;['7'];[0.039307700004428625];380.48523250001017;None;;;S12038;2023_Feb_23_1754;VideoMask;2021.1.2;118.82115146858217;
6.0;m;016_y_m_h_a.jpg;happy;9.0;sad_114.1.wmv;sad;7.0;incongruent;120.0;160.0;136.20550699298644;h_s;;;;;0;27;27;27;;;;;;;383.4935803000117;None;384.85162339999806;385.1683284000028;386.30162100004964;386.3183020000579;388.30164680001326;None;8;0;1.0788543000817299;388.30164680001326;None;;;;;;;;5;;;;;;389.85162550001405;None;None;None;[];389.85162550001405;None;None;;389.85162550001405;None;;;S12038;2023_Feb_23_1754;VideoMask;2021.1.2;118.82115146858217;
7.0;m;027_o_m_s_a.jpg;sad;7.0;happy_117.3.wmv;happy;9.0;incongruent;130.0;150.0;215.61964028550614;s_h;;;;;0;28;28;28;;;;;;;392.87653020001017;None;394.8929698000429;395.20972629997414;396.3346747000469;396.35132929997053;398.3429948000703;None;9;0;1.1175105000147596;398.3429948000703;None;;;;;;;;6;;;;;;399.89297749998514;None;None;None;[];399.89297749998514;None;"['9', '9']";"[0.3436768000246957, 2.0238412000471726]";399.89297749998514;None;;;S12038;2023_Feb_23_1754;VideoMask;2021.1.2;118.82115146858217;
6.0;m;016_y_m_h_a.jpg;happy;9.0;happy_9.2ns.avi;happy;9.0;congruent;120.0;150.0;130.52042428082717;h_h;;;;;0;29;29;29;;;;;;;402.8929180999985;None;404.20930790004786;404.5344932000153;405.7261222000234;405.742772800033;411.5842271000147;None;8;0;0.3482308000093326;411.5842271000147;None;;;;;;;;5;;;;;;413.13425240002107;None;None;None;[];413.13425240002107;None;None;;413.13425240002107;None;;;S12038;2023_Feb_23_1754;VideoMask;2021.1.2;118.82115146858217;
0.0;f;040_y_f_s_a.jpg;sad;7.0;happy_127.3.wmv;happy;9.0;incongruent;130.0;150.0;131.7195455720239;s_h;;;;;0;30;30;30;;;;;;;416.15055170003325;None;417.45055099995807;417.7674256999744;418.8924045000458;418.90901439997833;420.96724020002875;None;8;0;0.38941010006237775;420.96724020002875;None;;;;;;;;5;;;;;;422.51721089996863;None;None;None;[];422.51721089996863;None;None;;422.51721089996863;None;;;S12038;2023_Feb_23_1754;VideoMask;2021.1.2;118.82115146858217;
0.0;f;030_o_f_s_a.jpg;sad;7.0;happy_125.3.wmv;happy;9.0;incongruent;130.0;150.0;220.51454909128134;s_h;;;;;0;31;31;31;;;;;;;425.54216610000003;None;427.60023720003664;427.91698910004925;429.05145440006163;429.0837305999594;431.0502676999895;None;9;0;0.32209489995148033;431.0502676999895;None;;;;;;;;6;;;;;;432.62513030006085;None;None;None;[];432.62513030006085;None;['9'];[0.08363400003872812];432.62513030006085;None;;;S12038;2023_Feb_23_1754;VideoMask;2021.1.2;118.82115146858217;
0.0;f;030_o_f_s_a.jpg;sad;7.0;sad_64.3ns.avi;sad;7.0;congruent;130.0;160.0;165.78667874766072;s_s;;;;;0;32;32;32;;;;;;;435.6251213999931;None;437.2334438000107;437.55019460001495;438.70837630005553;438.72505859995726;443.6833270000061;None;7;0;0.3931367000332102;443.6833270000061;None;;;;;;;;4;;;;;;445.25811639998574;None;None;None;[];445.25811639998574;None;"['7', '7']";"[0.018561200005933642, 0.3065300000598654]";445.25811639998574;None;;;S12038;2023_Feb_23_1754;VideoMask;2021.1.2;118.82115146858217;
3.0;m;013_y_m_s_a.jpg;sad;7.0;sad_7.7ns.avi;sad;7.0;congruent;130.0;160.0;196.24182255763262;s_s;;;;;0;33;33;33;;;;;;;448.2664548000321;None;450.1246918999823;450.44124309998006;451.6495781999547;451.6662892999593;457.57465279998723;None;7;0;0.30996970005799085;457.57465279998723;None;;;;;;;;2;;;;;;459.22437099996023;None;None;None;[];459.22437099996023;None;"['7', '7', '7']";"[0.09234410000499338, 0.2921800999902189, 0.5162650999845937]";459.22437099996023;None;;;S12038;2023_Feb_23_1754;VideoMask;2021.1.2;118.82115146858217;
3.0;m;013_y_m_h_a.jpg;happy;9.0;happy_9.1ns.avi;happy;9.0;congruent;120.0;150.0;165.1890303600433;h_h;;;;;0;34;34;34;;;;;;;462.2326455999864;None;463.83255940000527;464.1491298000328;465.31584030005615;465.33252809999976;468.50746100000106;None;9;0;0.6092106000287458;468.50746100000106;None;;;;;;;;9;;;;;;470.08236180001404;None;None;None;[];470.08236180001404;None;"['9', '9', '9', '9']";"[0.30612680001650006, 0.5385232999688014, 0.7540437000570819, 1.2821211999980733]";470.08236180001404;None;;;S12038;2023_Feb_23_1754;VideoMask;2021.1.2;118.82115146858217;
4.0;m;004_o_m_h_a.jpg;happy;9.0;sad_95.1ns.avi;sad;7.0;incongruent;120.0;160.0;152.68270002069931;h_s;;;;;0;35;35;35;;;;;;;473.09078700002283;None;474.6323325999547;474.94873890001327;476.10721759998705;476.1238719000248;484.8736343999626;None;7;0;0.3951141000725329;484.8736343999626;None;;;;;;;;1;;;;;;486.5568295000121;None;None;None;[];486.5568295000121;None;"['7', '7', '7', '7', '7']";"[0.039901999989524484, 0.24791550007648766, 0.44759880006313324, 0.639639800065197, 0.8076707000145689]";486.5568295000121;None;;;S12038;2023_Feb_23_1754;VideoMask;2021.1.2;118.82115146858217;
3.0;m;013_y_m_h_a.jpg;happy;9.0;sad_113.2.wmv;sad;7.0;incongruent;120.0;160.0;217.4973891947951;h_s;;;;;0;36;36;36;;;;;;;489.55691399995703;None;491.58985450002365;491.9066803000169;493.0315805999562;493.048276699963;495.03987630002666;None;8;0;0.9324884000234306;495.03987630002666;None;;;;;;;;5;;;;;;496.5815244000405;None;None;None;[];496.5815244000405;None;None;;496.5815244000405;None;;;S12038;2023_Feb_23_1754;VideoMask;2021.1.2;118.82115146858217;
4.0;m;004_o_m_h_a.jpg;happy;9.0;happy_25.1ns.avi;happy;9.0;congruent;120.0;150.0;216.63044503818386;h_h;;;;;0;37;37;37;;;;;;;499.6065134999808;None;501.63955009996425;501.9561915000668;503.2063135000644;503.2229989999905;506.7812361000106;None;9;0;0.3433332000859082;506.7812361000106;None;;;;;;;;9;;;;;;508.48095630004536;None;None;None;[];508.48095630004536;None;"['9', '9', '9', '9', '7']";"[0.17944069998338819, 0.42838870000559837, 0.6435011000139639, 0.8274109000340104, 2.03567120002117]";508.48095630004536;None;;;S12038;2023_Feb_23_1754;VideoMask;2021.1.2;118.82115146858217;
4.0;m;004_o_m_s_a.jpg;sad;7.0;happy_131.2.wmv;happy;9.0;incongruent;130.0;150.0;181.38407540847405;s_h;;;;;0;38;38;38;;;;;;;511.48947819997557;None;513.2141755999764;513.5308928999584;514.6640836000443;514.6809226999758;516.6642566999653;None;8;0;0.8602303999941796;516.6642566999653;None;;;;;;;;5;;;;;;518.2142080999911;None;None;None;[];518.2142080999911;None;None;;518.2142080999911;None;;;S12038;2023_Feb_23_1754;VideoMask;2021.1.2;118.82115146858217;
0.0;f;040_y_f_h_a.jpg;happy;9.0;happy_24.3ns.avi;happy;9.0;congruent;120.0;150.0;213.25460698950434;h_h;;;;;0;39;39;39;;;;;;;521.2473981999792;None;523.2223320000339;523.538791900035;524.7056165999966;524.7222724000458;526.5972835000139;None;9;0;0.3754550999728963;526.5972835000139;None;;;;;;;;6;;;;;;528.1721804999979;None;None;None;[];528.1721804999979;None;['9'];[0.7848035000497475];528.1721804999979;None;;;S12038;2023_Feb_23_1754;VideoMask;2021.1.2;118.82115146858217;
2.0;f;012_o_f_s_a.jpg;sad;7.0;happy_139.1.wmv;happy;9.0;incongruent;130.0;150.0;162.31500468041804;s_h;;;;;0;40;40;40;;;;;;;531.180585199967;None;532.7468594000675;533.0636321000056;534.197011900018;534.2136464000214;536.1970882000169;None;9;0;0.3674208000302315;536.1970882000169;None;;;;;;;;8;;;;;;537.880184300011;None;None;None;[];537.880184300011;None;"['9', '9', '9', '9', '9', '9']";"[0.10035700001753867, 0.26035270001739264, 0.45224960008636117, 0.6602057000854984, 0.8922799000283703, 1.1001917000394315]";537.880184300011;None;;;S12038;2023_Feb_23_1754;VideoMask;2021.1.2;118.82115146858217;
0.0;f;030_o_f_h_a.jpg;happy;9.0;happy_24.1ns.avi;happy;9.0;congruent;120.0;150.0;168.36256624020774;h_h;;;;;0;41;41;41;;;;;;;540.88019419997;None;542.5048226000508;542.8216130000073;544.0299678000156;544.0466396999545;547.2798685999587;None;8;0;0.9568355999654159;547.2798685999587;None;;;;;;;;5;;;;;;548.8298425000394;None;None;None;[];548.8298425000394;None;None;;548.8298425000394;None;;;S12038;2023_Feb_23_1754;VideoMask;2021.1.2;118.82115146858217;
2.0;f;012_o_f_h_a.jpg;happy;9.0;sad_113.1.wmv;sad;7.0;incongruent;120.0;160.0;177.44551734737394;h_s;;;;;0;42;42;42;;;;;;;551.8547638000455;None;553.5462333000032;553.8630188000388;554.9962149000494;555.012957100058;556.9962334999582;None;8;0;0.6483442999888211;556.9962334999582;None;;;;;;;;5;;;;;;558.5461909000296;None;None;None;[];558.5461909000296;None;None;;558.5461909000296;None;;;S12038;2023_Feb_23_1754;VideoMask;2021.1.2;118.82115146858217;
3.0;m;033_o_m_s_a.jpg;sad;7.0;sad_64.5ns.avi;sad;7.0;congruent;130.0;160.0;130.55717223801247;s_s;;;;;0;43;43;43;;;;;;;561.5711077000014;None;562.9128011000575;563.2293269999791;564.4040479999967;564.4207972000586;570.9459473000607;None;7;0;0.6266203999985009;570.9459473000607;None;;;;;;;;4;;;;;;572.5206603000406;None;None;None;[];572.5206603000406;None;['7'];[0.08374479995109141];572.5206603000406;None;;;S12038;2023_Feb_23_1754;VideoMask;2021.1.2;118.82115146858217;
7.0;m;027_o_m_h_a.jpg;happy;9.0;sad_117.1.wmv;sad;7.0;incongruent;120.0;160.0;181.28665202824095;h_s;;;;;0;44;44;44;;;;;;;575.5291498999577;None;577.2622506000334;577.5787816999946;578.737224200042;578.7537911999971;580.712160199997;None;8;0;0.6123927000444382;580.712160199997;None;;;;;;;;5;;;;;;582.26205879997;None;None;None;[];582.26205879997;None;None;;582.26205879997;None;;;S12038;2023_Feb_23_1754;VideoMask;2021.1.2;118.82115146858217;
3.0;m;033_o_m_s_a.jpg;sad;7.0;happy_126.3.wmv;happy;9.0;incongruent;130.0;150.0;198.85252030535366;s_h;;;;;0;45;45;45;;;;;;;585.2868054000428;None;587.1618014000123;587.4785182999913;588.6115587999811;588.6285645000171;590.6118505999912;None;8;0;0.7606272000120953;590.6118505999912;None;;;;;;;;5;;;;;;592.161794399959;None;None;None;[];592.161794399959;None;None;;592.161794399959;None;;;S12038;2023_Feb_23_1754;VideoMask;2021.1.2;118.82115146858217;
3.0;m;033_o_m_h_a.jpg;happy;9.0;sad_136.1.wmv;sad;7.0;incongruent;120.0;160.0;176.97002883463455;h_s;;;;;0;46;46;46;;;;;;;595.1781970000593;None;596.8614955999656;597.1781705999747;598.3033019000432;598.3198704000097;600.3115724000381;None;7;0;0.34891040006186813;600.3115724000381;None;;;;;;;;2;;;;;;602.0613168999553;None;None;None;[];602.0613168999553;None;"['7', '7', '7']";"[9.85059479996562, 0.23931510001420975, 1.023467699997127]";602.0613168999553;None;;;S12038;2023_Feb_23_1754;VideoMask;2021.1.2;118.82115146858217;
9.0;f;019_m_f_h_a.jpg;happy;9.0;happy_10.1ns.avi;happy;9.0;congruent;120.0;150.0;157.2463435658512;h_h;;;;;0;47;47;47;;;;;;;605.0365470000543;None;606.5946776999626;606.9112290999619;608.119629999972;608.1362668999936;615.4861180000007;None;9;0;0.35845220007468015;615.4861180000007;None;;;;;;;;6;;;;;;617.1776391000021;None;None;None;[];617.1776391000021;None;['9'];[0.09089210000820458];617.1776391000021;None;;;S12038;2023_Feb_23_1754;VideoMask;2021.1.2;118.82115146858217;
2.0;f;012_o_f_h_a.jpg;happy;9.0;happy_2.2ns.avi;happy;9.0;congruent;120.0;150.0;206.34800317295262;h_h;;;;;0;48;48;48;;;;;;;620.1775320000015;None;622.1689498999622;622.4857179999817;623.6524662000593;623.6691193999723;635.8188994000666;None;9;0;0.24156410002615303;635.8188994000666;None;;;;;;;;6;;;;;;637.4602420000592;None;None;None;[];637.4602420000592;None;['9'];[0.10450549994129688];637.4602420000592;None;;;S12038;2023_Feb_23_1754;VideoMask;2021.1.2;118.82115146858217;
3.0;m;033_o_m_h_a.jpg;happy;9.0;happy_24.2ns.avi;happy;9.0;congruent;120.0;150.0;167.9423847659953;h_h;;;;;0;49;49;49;;;;;;;640.4602993000299;None;642.0852033999981;642.4017572000157;643.5685151000507;643.5851331000449;647.2767203999683;None;9;0;0.3680555000901222;647.2767203999683;None;;;;;;;;7;;;;;;648.9266267999774;None;None;None;[];648.9266267999774;None;"['9', '9']";"[0.14976399997249246, 0.5742212999612093]";648.9266267999774;None;;;S12038;2023_Feb_23_1754;VideoMask;2021.1.2;118.82115146858217;
1.0;f;021_o_f_s_a.jpg;sad;7.0;happy_61.2ns.avi;happy;9.0;incongruent;130.0;150.0;210.94664004826666;s_h;;;;;0;50;50;50;;;;;;;651.9264930000063;None;653.9097372000106;654.2263090000488;655.4677640000591;655.4847696999786;659.8847428000299;None;9;0;0.3278347000014037;659.8847428000299;None;;;;;;;;8;;;;;;661.459546500002;None;None;None;[];661.459546500002;None;"['9', '9', '9']";"[12.477889199974015, 0.3932556000072509, 0.7448996000457555]";661.459546500002;None;;;S12038;2023_Feb_23_1754;VideoMask;2021.1.2;118.82115146858217;
4.0;m;004_o_m_s_a.jpg;sad;7.0;sad_2.4ns.avi;sad;7.0;congruent;130.0;160.0;153.02079367163634;s_s;;;;;0;51;51;51;;;;;;;664.4427766000153;None;665.9592702999944;666.2845557000255;667.5258186999708;667.5424570000032;675.3677110000281;None;8;0;1.1568954000249505;675.3677110000281;None;;;;;;;;5;;;;;;677.0174193000421;None;None;None;[];677.0174193000421;None;None;;677.0174193000421;None;;;S12038;2023_Feb_23_1754;VideoMask;2021.1.2;118.82115146858217;
8.0;m;008_y_m_h_a.jpg;happy;9.0;happy_1.2ns.avi;happy;9.0;congruent;120.0;150.0;210.98946429383824;h_h;;;;;0;52;52;52;;;;;;;680.0339064999716;None;682.1004548000637;682.4171521000098;683.5504956999794;683.5671688000439;696.3418285000371;None;9;0;0.374544300022535;696.3418285000371;None;;;;;;;;6;;;;;;697.9167302000569;None;None;None;[];697.9167302000569;None;['9'];[0.3200228000059724];697.9167302000569;None;;;S12038;2023_Feb_23_1754;VideoMask;2021.1.2;118.82115146858217;
2.0;f;012_o_f_s_a.jpg;sad;7.0;happy_52.2ns.avi;happy;9.0;incongruent;130.0;150.0;172.57202848318138;s_h;;;;;0;53;53;53;;;;;;;700.9168028000277;None;702.5664715999737;702.8830575000029;704.0166114000604;704.0332577000372;707.5664144000039;None;8;0;0.3020117999985814;707.5664144000039;None;;;;;;;;5;;;;;;709.1163457999937;None;None;None;[];709.1163457999937;None;None;;709.1163457999937;None;;;S12038;2023_Feb_23_1754;VideoMask;2021.1.2;118.82115146858217;
9.0;f;019_m_f_s_a.jpg;sad;7.0;happy_61.1ns.avi;happy;9.0;incongruent;130.0;150.0;181.3003220572762;s_h;;;;;0;54;54;54;;;;;;;712.1329573000548;None;713.9162202000152;714.2329127000412;715.3915892000077;715.4162263000617;722.757648000028;None;9;0;0.6148461999837309;722.757648000028;None;;;;;;;;6;;;;;;724.3076118000317;None;None;None;[];724.3076118000317;None;['9'];[0.20903120003640652];724.3076118000317;None;;;S12038;2023_Feb_23_1754;VideoMask;2021.1.2;118.82115146858217;
0.0;f;030_o_f_h_a.jpg;happy;9.0;sad_133.1.wmv;sad;7.0;incongruent;120.0;160.0;198.86251500867985;h_s;;;;;0;55;55;55;;;;;;;727.3158356000204;None;729.1821426000679;729.4989209000487;730.6322444999823;730.6489764000289;732.6323740000371;None;7;0;0.4842983999988064;732.6323740000371;None;;;;;;;;3;;;;;;734.2072659999831;None;None;None;[];734.2072659999831;None;"['7', '7', '7']";"[0.08550130005460232, 0.3014310001162812, 1.1974417000310495]";734.2072659999831;None;;;S12038;2023_Feb_23_1754;VideoMask;2021.1.2;118.82115146858217;
0.0;f;040_y_f_h_a.jpg;happy;9.0;sad_128.2.wmv;sad;7.0;incongruent;120.0;160.0;206.10005857915363;h_s;;;;;0;56;56;56;;;;;;;737.2072248000186;None;739.1485885999864;739.4652193000074;740.6068574000383;740.6236907000421;742.5985711000394;None;7;0;0.37399330001790076;742.5985711000394;None;;;;;;;;3;;;;;;744.2235683000181;None;None;None;[];744.2235683000181;None;"['7', '7']";"[0.10873910004738718, 2.3971278000390157]";744.2235683000181;None;;;S12038;2023_Feb_23_1754;VideoMask;2021.1.2;118.82115146858217;
1.0;f;021_o_f_s_a.jpg;sad;7.0;sad_9.5ns.avi;sad;7.0;congruent;130.0;160.0;206.16642757875042;s_s;;;;;0;57;57;57;;;;;;;747.2318701000186;None;749.1649278000696;749.4815692000557;750.6912374000531;750.7317045000382;756.3399644000456;None;7;0;0.6564838000340387;756.3399644000456;None;;;;;;;;1;;;;;;757.9898261000635;None;None;None;[];757.9898261000635;None;"['7', '7', '7', '7', '7']";"[0.09458219993393868, 0.28676279995124787, 0.47858519991859794, 0.6865536000113934, 1.358816499938257]";757.9898261000635;None;;;S12038;2023_Feb_23_1754;VideoMask;2021.1.2;118.82115146858217;
1.0;f;021_o_f_h_a.jpg;happy;9.0;happy_12.1ns.avi;happy;9.0;congruent;120.0;150.0;132.59080005900228;h_h;;;;;0;58;58;58;;;;;;;760.9981992000248;None;762.3563035000116;762.6730073000072;763.8312967000529;763.8477555999998;771.4228479999583;None;9;0;0.38190109992865473;771.4228479999583;None;;;;;;;;9;;;;;;773.0726794999791;None;None;None;[];773.0726794999791;None;"['9', '9', '9', '9', '9']";"[0.06783800001721829, 0.283609600039199, 0.45979210000950843, 0.6679497000295669, 1.7476809000363573]";773.0726794999791;None;;;S12038;2023_Feb_23_1754;VideoMask;2021.1.2;118.82115146858217;
3.0;m;013_y_m_s_a.jpg;sad;7.0;happy_56.2ns.avi;happy;9.0;incongruent;130.0;150.0;163.39234110935848;s_h;;;;;0;59;59;59;;;;;;;776.0726783999708;None;777.655743899988;777.9724405000452;779.1472595999949;779.1639502999606;784.1305354000069;None;8;0;0.9141635000705719;784.1305354000069;None;;;;;;;;5;;;;;;785.6972527999897;None;None;None;[];785.6972527999897;None;None;;785.6972527999897;None;;;S12038;2023_Feb_23_1754;VideoMask;2021.1.2;118.82115146858217;
;;;;;;;;;;;;;;;;;;;;;;;;;;;;;;;;;;;;;;;;;;;;;;;;;;;;;;;;;;;;;;;;788.7222317999694;None;;;;;;
