primePerson;primeGender;prime;primeEmotion;corrAnsPrime;target;targetEmotion;corrAnsTar;Cond;ID_Primer;ID_Target;JitterTime;Condition;example.thisRepN;example.thisTrialN;example.thisN;example.thisIndex;study.thisRepN;study.thisTrialN;study.thisN;study.thisIndex;MR_trigger_time;MR_trigger_number;text_intro.started;text_intro.stopped;text_probe.started;text_probe.stopped;polygon_ISI.started;polygon_ISI.stopped;polygon.started;polygon.stopped;primerImage.started;primerImage.stopped;response.started;response.stopped;key_resp.keys;key_resp.corr;key_resp.rt;key_resp.started;key_resp.stopped;slider_Text.started;slider_Text.stopped;slider_ex.response;slider_ex.rt;slider_ex.history;slider_ex.started;slider_ex.stopped;Rating;slider_resp_response.keys;slider_resp_response.rt;slider_resp_response.started;slider_resp_response.stopped;text_start.started;text_start.stopped;text_slider.started;text_slider.stopped;slider_stud.response;slider_stud.rt;slider_stud.history;slider_stud.started;slider_stud.stopped;slider_resp_study.keys;slider_resp_study.rt;slider_resp_study.started;slider_resp_study.stopped;text_ende.started;text_ende.stopped;participant;date;expName;psychopyVersion;frameRate;
1111;m;1111_m_m_h_a.jpg;happy;9;example_30.4ns.avi;neutral;7;incongruent;120.0;170.0;189.5874364012288;;0;0;0;0;;;;;122.102052000002;1;122.19627429998945;124.19648020004388;124.19648020004388;None;126.2297433000058;None;128.554556600051;128.87968900008127;130.00444050005171;130.021230100072;134.34636760002468;None;9;0;1.4211526999715716;134.34636760002468;None;135.8958854000084;None;None;None;[];135.8958854000084;None;8;"['9', '9', '9']";"[1.5833740000380203, 1.9834674000740051, 2.8236652000341564]";135.8958854000084;None;;;;;;;;;;;;;;;;S10865;2021_Sep_02_1233;VideoMask;2021.1.2;120.02539728799836;
1113;f;1113_y_f_s_a.jpg;sad;7;example_30.3ns.avi;neutral;7;incongruent;130.0;170.0;229.02432995836998;;0;1;1;1;;;;;;;;;;;138.8959090000717;None;141.05393429996911;141.37081079999916;142.4958754000254;142.51242530008312;144.50417650002055;None;7;1;1.247224900056608;144.50417650002055;None;146.05408240004908;None;None;None;[];146.05408240004908;None;3;"['7', '7']";"[1.2573788999579847, 1.4972536000423133]";146.05408240004908;None;;;;;;;;;;;;;;;;S10865;2021_Sep_02_1233;VideoMask;2021.1.2;120.02539728799836;
9.0;f;019_m_f_h_a.jpg;happy;9.0;sad_115.1.wmv;sad;7.0;incongruent;120.0;160.0;128.09063432376465;h_s;;;;;0;0;0;0;;;;;;;150.0954964000266;None;151.3954601000296;151.7121420999756;152.84530639997683;152.86219650006387;154.84592520003207;None;None;0;;154.84592520003207;None;;;;;;;;4;;;;;149.05410269997083;None;156.39524930005427;None;None;None;[];156.39524930005427;None;['7'];[2.708220199914649];156.39524930005427;None;;;S10865;2021_Sep_02_1233;VideoMask;2021.1.2;120.02539728799836;
3.0;m;033_o_m_s_a.jpg;sad;7.0;sad_94.2ns.avi;sad;7.0;congruent;130.0;160.0;182.29120173647655;s_s;;;;;0;1;1;1;;;;;;;159.39535770006478;None;161.17038210004102;161.48690939997323;162.65371230000164;162.67020599998068;165.31193379999604;None;7;0;0.9434832000406459;165.31193379999604;None;;;;;;;;2;;;;;;;166.8617962000426;None;None;None;[];166.8617962000426;None;"['7', '7', '7']";"[0.9218583999900147, 1.4577003000304103, 2.3297982999356464]";166.8617962000426;None;;;S10865;2021_Sep_02_1233;VideoMask;2021.1.2;120.02539728799836;
8.0;m;008_y_m_h_a.jpg;happy;9.0;happy_26.1ns.avi;happy;9.0;congruent;120.0;150.0;155.9437854594882;h_h;;;;;0;2;2;2;;;;;;;169.86167630006094;None;171.3949015000835;171.71159890003037;172.83666440006346;172.8532929000212;174.83669650007505;None;9;0;0.9946903999662027;174.83669650007505;None;;;;;;;;9;;;;;;;176.39485020004213;None;None;None;[];176.39485020004213;None;"['9', '9', '9', '9', '9']";"[0.46050889999605715, 0.6924363999860361, 0.9244115999899805, 1.1644054000498727, 1.908826500060968]";176.39485020004213;None;;;S10865;2021_Sep_02_1233;VideoMask;2021.1.2;120.02539728799836;
0.0;f;040_y_f_h_a.jpg;happy;9.0;sad_138.1.wmv;sad;7.0;incongruent;120.0;160.0;133.99071306426532;h_s;;;;;0;3;3;3;;;;;;;179.40317820000928;None;180.75318190001417;181.06975630007219;182.20319909998216;182.2196827000007;184.21962460002396;None;7;0;0.699699499993585;184.21962460002396;None;;;;;;;;2;;;;;;;185.76959330006503;None;None;None;[];185.76959330006503;None;"['7', '7', '7', '7']";"[0.45362459996249527, 0.9178009999450296, 1.1735950999427587, 1.445748999947682]";185.76959330006503;None;;;S10865;2021_Sep_02_1233;VideoMask;2021.1.2;120.02539728799836;
8.0;f;028_y_f_s_a.jpg;sad;7.0;sad_64.2ns.avi;sad;7.0;congruent;130.0;160.0;229.88540597086478;s_s;;;;;0;4;4;4;;;;;;;188.76957410003524;None;191.0109258000739;191.32781390007585;192.50273589999415;192.51940300001297;203.46134170005098;None;7;0;0.9545579000841826;203.46134170005098;None;;;;;;;;2;;;;;;;205.47734780004248;None;None;None;[];205.47734780004248;None;"['7', '7', '7']";"[0.6659214000683278, 1.234438700019382, 2.4982764000305906]";205.47734780004248;None;;;S10865;2021_Sep_02_1233;VideoMask;2021.1.2;120.02539728799836;
7.0;m;027_o_m_s_a.jpg;sad;7.0;sad_10.4ns.avi;sad;7.0;congruent;130.0;160.0;185.20129417468752;s_s;;;;;0;5;5;5;;;;;;;208.4772951999912;None;210.27709740004502;210.59410450002179;211.76050059997942;211.7771730000386;214.9021681000013;None;7;0;0.6892627000343055;214.9021681000013;None;;;;;;;;3;;;;;;;216.45201240002643;None;None;None;[];216.45201240002643;None;"['7', '7', '7']";"[0.43547180003952235, 0.6992766000330448, 1.3075489000184461]";216.45201240002643;None;;;S10865;2021_Sep_02_1233;VideoMask;2021.1.2;120.02539728799836;
2.0;f;012_o_f_s_a.jpg;sad;7.0;sad_7.5ns.avi;sad;7.0;congruent;130.0;160.0;220.27842655424388;s_s;;;;;0;6;6;6;;;;;;;219.4604148999788;None;221.5267280000262;221.843493900029;223.01912680000532;223.04366460000165;225.768682599999;None;7;0;0.9988412000238895;225.768682599999;None;;;;;;;;4;;;;;;;227.3267043000087;None;None;None;[];227.3267043000087;None;"['7', '7', '9']";"[0.4247635999927297, 0.664572500041686, 1.625147300073877]";227.3267043000087;None;;;S10865;2021_Sep_02_1233;VideoMask;2021.1.2;120.02539728799836;
2.0;f;012_o_f_h_a.jpg;happy;9.0;happy_27.1ns.avi;happy;9.0;congruent;120.0;150.0;146.44967055810616;h_h;;;;;0;7;7;7;;;;;;;230.326767200022;None;231.7931417999789;232.10981449997053;233.34397390007507;233.36819389997981;235.7347555999877;None;9;0;0.6567727999063209;235.7347555999877;None;;;;;;;;8;;;;;;;237.2847357999999;None;None;None;[];237.2847357999999;None;"['9', '9', '9']";"[0.4664479000493884, 0.7308997000800446, 1.242665100027807]";237.2847357999999;None;;;S10865;2021_Sep_02_1233;VideoMask;2021.1.2;120.02539728799836;
8.0;f;028_y_f_h_a.jpg;happy;9.0;sad_119.1.wmv;sad;7.0;incongruent;120.0;160.0;148.71526953572538;h_s;;;;;0;8;8;8;;;;;;;240.28478870005347;None;241.7761601000093;242.09291210002266;243.22626120003406;243.24290409998503;245.29292280005757;None;None;0;;245.29292280005757;None;;;;;;;;5;;;;;;;246.84284890000708;None;None;None;[];246.84284890000708;None;None;;246.84284890000708;None;;;S10865;2021_Sep_02_1233;VideoMask;2021.1.2;120.02539728799836;
6.0;m;016_y_m_s_a.jpg;sad;7.0;happy_60.4ns.avi;happy;9.0;incongruent;130.0;150.0;126.02367393611817;s_h;;;;;0;9;9;9;;;;;;;249.85921530006453;None;251.20097380003426;251.51758260000497;252.70918950007763;252.7258324000286;258.4424588000402;None;9;0;0.6930400000419468;258.4424588000402;None;;;;;;;;6;;;;;;;259.9924401000608;None;None;None;[];259.9924401000608;None;['9'];[0.4791229999391362];259.9924401000608;None;;;S10865;2021_Sep_02_1233;VideoMask;2021.1.2;120.02539728799836;
9.0;f;019_m_f_s_a.jpg;sad;7.0;sad_8.4ns.avi;sad;7.0;congruent;130.0;160.0;171.6633093155257;s_s;;;;;0;10;10;10;;;;;;;263.0007288000779;None;264.7255905000493;265.04223700007424;266.1755732999882;266.1922331000678;274.30866039998364;None;7;0;0.8589154999936;274.30866039998364;None;;;;;;;;2;;;;;;;275.8586289000232;None;None;None;[];275.8586289000232;None;"['7', '7', '7']";"[0.34047410008497536, 1.292802800075151, 2.6210424000164494]";275.8586289000232;None;;;S10865;2021_Sep_02_1233;VideoMask;2021.1.2;120.02539728799836;
4.0;m;004_o_m_h_a.jpg;happy;9.0;happy_1.1ns.avi;happy;9.0;congruent;120.0;150.0;203.50057144619865;h_h;;;;;0;11;11;11;;;;;;;278.85861190001015;None;280.88353160000406;281.2001125999959;282.33344660000876;282.3500328999944;296.81636779999826;None;8;0;1.1110951999435201;296.81636779999826;None;;;;;;;;5;;;;;;;298.36629040003754;None;None;None;[];298.36629040003754;None;None;;298.36629040003754;None;;;S10865;2021_Sep_02_1233;VideoMask;2021.1.2;120.02539728799836;
7.0;m;027_o_m_h_a.jpg;happy;9.0;happy_20.1ns.avi;happy;9.0;congruent;120.0;150.0;152.91127178874285;h_h;;;;;0;12;12;12;;;;;;;301.3827090000268;None;302.91603880003095;303.2328020000132;304.366175299976;304.38277130003553;307.38276289997157;None;9;0;0.9370382999768481;307.38276289997157;None;;;;;;;;6;;;;;;;308.93258100003004;None;None;None;[];308.93258100003004;None;"['9', '9']";"[0.41086389997508377, 1.258921300061047]";308.93258100003004;None;;;S10865;2021_Sep_02_1233;VideoMask;2021.1.2;120.02539728799836;
0.0;f;040_y_f_s_a.jpg;sad;7.0;sad_94.3ns.avi;sad;7.0;congruent;130.0;160.0;155.27414203894395;s_s;;;;;0;13;13;13;;;;;;;311.9327140999958;None;313.47413730004337;313.79110300005414;314.9323298999807;314.94895450002514;317.5492267999798;None;7;0;0.7622300999937579;317.5492267999798;None;;;;;;;;3;;;;;;;319.0990337000694;None;None;None;[];319.0990337000694;None;"['7', '7']";"[0.47669109993148595, 0.8445608000038192]";319.0990337000694;None;;;S10865;2021_Sep_02_1233;VideoMask;2021.1.2;120.02539728799836;
0.0;f;030_o_f_s_a.jpg;sad;7.0;sad_68.1ns.avi;sad;7.0;congruent;130.0;160.0;158.9411396037211;s_s;;;;;0;14;14;14;;;;;;;322.0989970000228;None;323.6820450000232;323.99887180002406;325.1488882000558;325.16587660007644;332.5572274000151;None;7;0;0.6983823000919074;332.5572274000151;None;;;;;;;;1;;;;;;;334.1069281999953;None;None;None;[];334.1069281999953;None;"['7', '7', '7', '7']";"[0.31636909989174455, 0.5324888998875394, 0.7645227999892086, 1.1886078999377787]";334.1069281999953;None;;;S10865;2021_Sep_02_1233;VideoMask;2021.1.2;120.02539728799836;
0.0;f;030_o_f_h_a.jpg;happy;9.0;sad_127.1.wmv;sad;7.0;incongruent;120.0;160.0;180.59976631384873;h_s;;;;;0;15;15;15;;;;;;;337.11534420005046;None;338.8567844000645;339.17362410004716;340.3066963000456;340.3237129000481;342.3074142000405;None;None;0;;342.3074142000405;None;;;;;;;;5;;;;;;;343.85701759997755;None;None;None;[];343.85701759997755;None;None;;343.85701759997755;None;;;S10865;2021_Sep_02_1233;VideoMask;2021.1.2;120.02539728799836;
8.0;m;008_y_m_s_a.jpg;sad;7.0;happy_133.3.wmv;happy;9.0;incongruent;130.0;150.0;152.577966552593;s_h;;;;;0;16;16;16;;;;;;;346.8815688000759;None;348.40644809999503;348.7231724000303;349.8482012000168;349.86474370001815;351.85654750000685;None;9;0;0.5431433001067489;351.85654750000685;None;;;;;;;;8;;;;;;;353.40635240008123;None;None;None;[];353.40635240008123;None;"['9', '9', '9']";"[0.44114789995364845, 0.6732543000252917, 0.9130275999195874]";353.40635240008123;None;;;S10865;2021_Sep_02_1233;VideoMask;2021.1.2;120.02539728799836;
3.0;m;033_o_m_h_a.jpg;happy;9.0;sad_128.1.wmv;sad;7.0;incongruent;120.0;160.0;171.0492454518585;h_s;;;;;0;17;17;17;;;;;;;356.41467840003315;None;358.0897772000171;358.40624010004103;359.5393574000336;359.5561133000301;361.53956920001656;None;7;0;0.8200358001049608;361.53956920001656;None;;;;;;;;1;;;;;;;363.46440920000896;None;None;None;[];363.46440920000896;None;"['7', '7', '7', '7']";"[0.7432981000747532, 0.9909180999966338, 1.2228728000773117, 2.0232528999913484]";363.46440920000896;None;;;S10865;2021_Sep_02_1233;VideoMask;2021.1.2;120.02539728799836;
1.0;f;021_o_f_h_a.jpg;happy;9.0;sad_116.1.wmv;sad;7.0;incongruent;120.0;160.0;184.06847610053055;h_s;;;;;0;18;18;18;;;;;;;366.4727409000043;None;368.28077429998666;368.5974203000078;369.7312855999917;369.75566080003045;371.73094060004223;None;None;0;;371.73094060004223;None;;;;;;;;4;;;;;;;373.28072799998336;None;None;None;[];373.28072799998336;None;['7'];[0.8466245000017807];373.28072799998336;None;;;S10865;2021_Sep_02_1233;VideoMask;2021.1.2;120.02539728799836;
4.0;m;004_o_m_s_a.jpg;sad;7.0;happy_28.1ns.avi;happy;9.0;incongruent;130.0;150.0;157.40741103039684;s_h;;;;;0;19;19;19;;;;;;;376.28081580006983;None;377.8471779000247;378.1638745000819;379.3472539000213;379.36511500005145;383.689555900055;None;9;0;0.6698897000169381;383.689555900055;None;;;;;;;;8;;;;;;;385.2471038000658;None;None;None;[];385.2471038000658;None;"['9', '9', '9']";"[0.23257190000731498, 0.46422900003381073, 0.664280700031668]";385.2471038000658;None;;;S10865;2021_Sep_02_1233;VideoMask;2021.1.2;120.02539728799836;
8.0;f;028_y_f_s_a.jpg;sad;7.0;happy_122.3.wmv;happy;9.0;incongruent;130.0;150.0;171.8670540936116;s_h;;;;;0;20;20;20;;;;;;;388.24710859998595;None;389.93849960004445;390.25525050004944;391.38867919996846;391.4051822000183;393.38864610006567;None;None;0;;393.38864610006567;None;;;;;;;;6;;;;;;;394.93829359998927;None;None;None;[];394.93829359998927;None;['9'];[0.39733750000596046];394.93829359998927;None;;;S10865;2021_Sep_02_1233;VideoMask;2021.1.2;120.02539728799836;
8.0;m;008_y_m_s_a.jpg;sad;7.0;sad_6.5ns.avi;sad;7.0;congruent;130.0;160.0;170.39333839271438;s_s;;;;;0;21;21;21;;;;;;;397.9468009000411;None;399.6131970999995;399.9298893000232;401.0632822000189;401.0799377000658;406.0634123000782;None;7;0;0.7201690999791026;406.0634123000782;None;;;;;;;;4;;;;;;;407.6131192999892;None;None;None;[];407.6131192999892;None;['7'];[0.4503535999683663];407.6131192999892;None;;;S10865;2021_Sep_02_1233;VideoMask;2021.1.2;120.02539728799836;
8.0;f;028_y_f_h_a.jpg;happy;9.0;happy_23.1ns.avi;happy;9.0;congruent;120.0;150.0;225.70986890587952;h_h;;;;;0;22;22;22;;;;;;;410.63010399998166;None;412.77113190002274;413.08781880000606;414.24595320003573;414.26271530007944;418.7963227999862;None;9;0;0.6512747999513522;418.7963227999862;None;;;;;;;;8;;;;;;;420.346072299988;None;None;None;[];420.346072299988;None;"['9', '9', '9']";"[0.2535457999911159, 0.48542439995799214, 0.7013237999053672]";420.346072299988;None;;;S10865;2021_Sep_02_1233;VideoMask;2021.1.2;120.02539728799836;
8.0;m;008_y_m_h_a.jpg;happy;9.0;sad_111.1.wmv;sad;7.0;incongruent;120.0;160.0;152.63076835312847;h_s;;;;;0;23;23;23;;;;;;;423.35448229999747;None;424.8791283000028;425.1958703000564;426.32964120002;426.3459293000633;428.33757119998336;None;7;0;1.2859219999518245;428.33757119998336;None;;;;;;;;4;;;;;;;429.99596219998784;None;None;None;[];429.99596219998784;None;"['7', '7', '9']";"[0.49194570002146065, 0.7876361000817269, 1.7476993000600487]";429.99596219998784;None;;;S10865;2021_Sep_02_1233;VideoMask;2021.1.2;120.02539728799836;
0.0;f;040_y_f_s_a.jpg;sad;7.0;sad_67.2ns.avi;sad;7.0;congruent;130.0;160.0;220.9892697323079;s_s;;;;;0;24;24;24;;;;;;;433.00420440000016;None;435.13728140003514;435.45380040002055;436.612278399989;436.62962949997745;445.81210320000537;None;7;0;0.6675963999005035;445.81210320000537;None;;;;;;;;2;;;;;;;447.3618204999948;None;None;None;[];447.3618204999948;None;"['7', '7', '7']";"[0.3016249000793323, 0.5254768000449985, 0.7414841999998316]";447.3618204999948;None;;;S10865;2021_Sep_02_1233;VideoMask;2021.1.2;120.02539728799836;
8.0;m;008_y_m_s_a.jpg;sad;7.0;happy_29.1ns.avi;happy;9.0;incongruent;130.0;150.0;120.0316142834122;s_h;;;;;0;25;25;25;;;;;;;450.3620303000789;None;451.6117791000288;451.9284318999853;453.070087900036;453.0867952000117;455.7533870000625;None;9;0;1.270174799952656;455.7533870000625;None;;;;;;;;6;;;;;;;457.30332800000906;None;None;None;[];457.30332800000906;None;['9'];[0.312347500002943];457.30332800000906;None;;;S10865;2021_Sep_02_1233;VideoMask;2021.1.2;120.02539728799836;
6.0;m;016_y_m_s_a.jpg;sad;7.0;sad_8.3ns.avi;sad;7.0;congruent;130.0;160.0;152.85371098242734;s_s;;;;;0;26;26;26;;;;;;;460.3116165000247;None;461.8782378999749;462.19477549998555;463.4029955000151;463.4197969000088;471.0865827000234;None;8;0;0.769013800076209;471.0865827000234;None;;;;;;;;4;;;;;;;472.63619550003204;None;None;None;[];472.63619550003204;None;['7'];[1.9475206000497565];472.63619550003204;None;;;S10865;2021_Sep_02_1233;VideoMask;2021.1.2;120.02539728799836;
6.0;m;016_y_m_h_a.jpg;happy;9.0;sad_114.1.wmv;sad;7.0;incongruent;120.0;160.0;136.20550699298644;h_s;;;;;0;27;27;27;;;;;;;475.644581999979;None;477.044290299993;477.3610050000716;478.48613159998786;478.50337110005785;480.49427809996996;None;None;0;;480.49427809996996;None;;;;;;;;3;;;;;;;482.0440997000551;None;None;None;[];482.0440997000551;None;"['7', '7']";"[0.2434203999582678, 0.7955553999636322]";482.0440997000551;None;;;S10865;2021_Sep_02_1233;VideoMask;2021.1.2;120.02539728799836;
7.0;m;027_o_m_s_a.jpg;sad;7.0;happy_117.3.wmv;happy;9.0;incongruent;130.0;150.0;215.61964028550614;s_h;;;;;0;28;28;28;;;;;;;485.05261010001414;None;487.09396750002634;487.4107635000255;488.5358198999893;488.55231429997366;490.55241210001986;None;9;0;0.5432187999831513;490.55241210001986;None;;;;;;;;8;;;;;;;492.1023325000424;None;None;None;[];492.1023325000424;None;"['9', '9', '9', '9', '9']";"[0.3374375000130385, 0.568973800051026, 0.7850484000518918, 1.3454438999760896, 1.817357699968852]";492.1023325000424;None;;;S10865;2021_Sep_02_1233;VideoMask;2021.1.2;120.02539728799836;
6.0;m;016_y_m_h_a.jpg;happy;9.0;happy_9.2ns.avi;happy;9.0;congruent;120.0;150.0;130.52042428082717;h_h;;;;;0;29;29;29;;;;;;;495.10233550006524;None;496.45219740003813;496.76879500004;497.8936797999777;497.9104834999889;503.827054399997;None;9;0;0.6288352999836206;503.827054399997;None;;;;;;;;7;;;;;;;505.4769032000331;None;None;None;[];505.4769032000331;None;"['9', '9']";"[0.34664740005973727, 0.5786070000613108]";505.4769032000331;None;;;S10865;2021_Sep_02_1233;VideoMask;2021.1.2;120.02539728799836;
0.0;f;040_y_f_s_a.jpg;sad;7.0;happy_127.3.wmv;happy;9.0;incongruent;130.0;150.0;131.7195455720239;s_h;;;;;0;30;30;30;;;;;;;508.4770125000505;None;509.81832770002075;510.1349049999844;511.26021570002194;511.27675010007806;513.3351037000539;None;9;0;0.6884785000002012;513.3351037000539;None;;;;;;;;7;;;;;;;514.8850088000763;None;None;None;[];514.8850088000763;None;"['9', '9']";"[0.49056710000149906, 0.7063466999679804]";514.8850088000763;None;;;S10865;2021_Sep_02_1233;VideoMask;2021.1.2;120.02539728799836;
0.0;f;030_o_f_s_a.jpg;sad;7.0;happy_125.3.wmv;happy;9.0;incongruent;130.0;150.0;220.51454909128134;s_h;;;;;0;31;31;31;;;;;;;517.8850632000249;None;519.9681994999992;520.2847468000837;521.4181563999737;521.4347920999862;523.4181726999814;None;8;0;1.3493940000189468;523.4181726999814;None;;;;;;;;5;;;;;;;524.9679646000732;None;None;None;[];524.9679646000732;None;None;;524.9679646000732;None;;;S10865;2021_Sep_02_1233;VideoMask;2021.1.2;120.02539728799836;
0.0;f;030_o_f_s_a.jpg;sad;7.0;sad_64.3ns.avi;sad;7.0;congruent;130.0;160.0;165.78667874766072;s_s;;;;;0;32;32;32;;;;;;;527.9927883000346;None;529.6343770000385;529.9511470000725;531.0761947999708;531.0927748000249;536.0846498999745;None;8;0;1.3388344999402761;536.0846498999745;None;;;;;;;;5;;;;;;;537.6341953000519;None;None;None;[];537.6341953000519;None;None;;537.6341953000519;None;;;S10865;2021_Sep_02_1233;VideoMask;2021.1.2;120.02539728799836;
3.0;m;013_y_m_s_a.jpg;sad;7.0;sad_7.7ns.avi;sad;7.0;congruent;130.0;160.0;196.24182255763262;s_s;;;;;0;33;33;33;;;;;;;540.6507501000306;None;542.5507111999905;542.8674123000819;544.0005912000779;544.0172744999873;550.0007757999701;None;7;0;0.550929700024426;550.0007757999701;None;;;;;;;;3;;;;;;;551.5505877999822;None;None;None;[];551.5505877999822;None;"['7', '7', '7', '9']";"[0.3371693999506533, 0.6246894999640062, 0.9050321999238804, 1.2652116999961436]";551.5505877999822;None;;;S10865;2021_Sep_02_1233;VideoMask;2021.1.2;120.02539728799836;
3.0;m;013_y_m_h_a.jpg;happy;9.0;happy_9.1ns.avi;happy;9.0;congruent;120.0;150.0;165.1890303600433;h_h;;;;;0;34;34;34;;;;;;;554.5589092000155;None;556.2090259999968;556.5253963000141;557.6590425000759;557.6836236000527;560.8919600000372;None;9;0;0.5715625999728218;560.8919600000372;None;;;;;;;;7;;;;;;;562.4419248000486;None;None;None;[];562.4419248000486;None;"['9', '9', '9', '9']";"[0.2777737999567762, 0.5015193000435829, 0.7415486000245437, 1.5097700000042096]";562.4419248000486;None;;;S10865;2021_Sep_02_1233;VideoMask;2021.1.2;120.02539728799836;
4.0;m;004_o_m_h_a.jpg;happy;9.0;sad_95.1ns.avi;sad;7.0;incongruent;120.0;160.0;152.68270002069931;h_s;;;;;0;35;35;35;;;;;;;565.4419451999711;None;567.0167953000637;567.333567099995;568.4583755000494;568.4751068999758;577.2583809000207;None;7;0;0.525506499921903;577.2583809000207;None;;;;;;;;2;;;;;;;578.8164441999979;None;None;None;[];578.8164441999979;None;"['7', '7', '7']";"[0.367255000048317, 0.622981799999252, 0.8710736000211909]";578.8164441999979;None;;;S10865;2021_Sep_02_1233;VideoMask;2021.1.2;120.02539728799836;
3.0;m;013_y_m_h_a.jpg;happy;9.0;sad_113.2.wmv;sad;7.0;incongruent;120.0;160.0;217.4973891947951;h_s;;;;;0;36;36;36;;;;;;;581.8166177000385;None;583.891138200066;584.2079362000804;585.3419863000745;585.3581963999895;587.3495190000394;None;None;0;;587.3495190000394;None;;;;;;;;4;;;;;;;588.9577902000165;None;None;None;[];588.9577902000165;None;['7'];[1.0100274999858811];588.9577902000165;None;;;S10865;2021_Sep_02_1233;VideoMask;2021.1.2;120.02539728799836;
4.0;m;004_o_m_h_a.jpg;happy;9.0;happy_25.1ns.avi;happy;9.0;congruent;120.0;150.0;216.63044503818386;h_h;;;;;0;37;37;37;;;;;;;591.9579272000119;None;594.0243511999724;594.3409937999677;595.4826845000498;595.4999065999873;599.1660692000296;None;9;0;0.4742351999739185;599.1660692000296;None;;;;;;;;8;;;;;;;600.7324773999862;None;None;None;[];600.7324773999862;None;"['9', '9', '9', '9']";"[0.30723199993371964, 0.5550943999551237, 0.8109452999196947, 1.2673096999060363]";600.7324773999862;None;;;S10865;2021_Sep_02_1233;VideoMask;2021.1.2;120.02539728799836;
4.0;m;004_o_m_s_a.jpg;sad;7.0;happy_131.2.wmv;happy;9.0;incongruent;130.0;150.0;181.38407540847405;s_h;;;;;0;38;38;38;;;;;;;603.7408151000272;None;605.4905211000005;605.8072374999756;606.9404639999848;606.9572294000536;608.9405123000033;None;None;0;;608.9405123000033;None;;;;;;;;6;;;;;;;610.4903818999883;None;None;None;[];610.4903818999883;None;['9'];[0.532947100000456];610.4903818999883;None;;;S10865;2021_Sep_02_1233;VideoMask;2021.1.2;120.02539728799836;
0.0;f;040_y_f_h_a.jpg;happy;9.0;happy_24.3ns.avi;happy;9.0;congruent;120.0;150.0;213.25460698950434;h_h;;;;;0;39;39;39;;;;;;;613.4905629999703;None;615.5069094999926;615.8237421000376;617.0235475000227;617.0402972999727;618.8819367000833;None;9;0;1.0377333000069484;618.8819367000833;None;;;;;;;;7;;;;;;;620.4318850999698;None;None;None;[];620.4318850999698;None;"['9', '9']";"[0.3755876999348402, 0.6077094000065699]";620.4318850999698;None;;;S10865;2021_Sep_02_1233;VideoMask;2021.1.2;120.02539728799836;
2.0;f;012_o_f_s_a.jpg;sad;7.0;happy_139.1.wmv;happy;9.0;incongruent;130.0;150.0;162.31500468041804;s_h;;;;;0;40;40;40;;;;;;;623.4319574000547;None;625.0482903000666;625.3650850000558;626.4984094999963;626.515121400007;628.4984465000452;None;9;0;0.7972004000330344;628.4984465000452;None;;;;;;;;8;;;;;;;630.0483447000152;None;None;None;[];630.0483447000152;None;"['9', '9', '9']";"[0.29525540000759065, 0.5112020000815392, 0.7512166000669822]";630.0483447000152;None;;;S10865;2021_Sep_02_1233;VideoMask;2021.1.2;120.02539728799836;
0.0;f;030_o_f_h_a.jpg;happy;9.0;happy_24.1ns.avi;happy;9.0;congruent;120.0;150.0;168.36256624020774;h_h;;;;;0;41;41;41;;;;;;;633.05666630005;None;634.7313232000452;635.0480200999882;636.2151580000063;636.2398057000246;639.51532580005;None;None;0;;639.51532580005;None;;;;;;;;6;;;;;;;641.0980218000477;None;None;None;[];641.0980218000477;None;"['9', '9', '7', '7']";"[0.11758419999387115, 1.3816324999788776, 1.8776486000278965, 2.6536339999875054]";641.0980218000477;None;;;S10865;2021_Sep_02_1233;VideoMask;2021.1.2;120.02539728799836;
2.0;f;012_o_f_h_a.jpg;happy;9.0;sad_113.1.wmv;sad;7.0;incongruent;120.0;160.0;177.44551734737394;h_s;;;;;0;42;42;42;;;;;;;644.1061937999912;None;645.8394218999892;646.1561763000209;647.2892747999867;647.3061235999921;649.289360600058;None;None;0;;649.289360600058;None;;;;;;;;4;;;;;;;650.8392006000504;None;None;None;[];650.8392006000504;None;"['7', '7']";"[0.5527194999158382, 1.016269400017336]";650.8392006000504;None;;;S10865;2021_Sep_02_1233;VideoMask;2021.1.2;120.02539728799836;
3.0;m;033_o_m_s_a.jpg;sad;7.0;sad_64.5ns.avi;sad;7.0;congruent;130.0;160.0;130.55717223801247;s_s;;;;;0;43;43;43;;;;;;;653.8393254000694;None;655.2058651000261;655.5224325000308;656.6975587999914;656.7140170000494;663.2557710000547;None;7;0;0.9357078999746591;663.2557710000547;None;;;;;;;;2;;;;;;;664.8139293000568;None;None;None;[];664.8139293000568;None;"['7', '7', '7', '7']";"[0.313756600022316, 0.5295024999650195, 1.1777662000386044, 1.553615599987097]";664.8139293000568;None;;;S10865;2021_Sep_02_1233;VideoMask;2021.1.2;120.02539728799836;
7.0;m;027_o_m_h_a.jpg;happy;9.0;sad_117.1.wmv;sad;7.0;incongruent;120.0;160.0;181.28665202824095;h_s;;;;;0;44;44;44;;;;;;;667.8138746999903;None;669.5803256999934;669.8971548000118;671.0304810000816;671.0470677000703;673.0471283000661;None;None;0;;673.0471283000661;None;;;;;;;;4;;;;;;;674.6051670999732;None;None;None;[];674.6051670999732;None;"['7', '7', '7']";"[0.5864918000297621, 1.2026734000537544, 1.770596000016667]";674.6051670999732;None;;;S10865;2021_Sep_02_1233;VideoMask;2021.1.2;120.02539728799836;
3.0;m;033_o_m_s_a.jpg;sad;7.0;happy_126.3.wmv;happy;9.0;incongruent;130.0;150.0;198.85252030535366;s_h;;;;;0;45;45;45;;;;;;;677.6053491000785;None;679.5133424000815;679.8300969999982;680.9634733999847;680.9801419000141;682.9633097000187;None;8;0;0.7323756000259891;682.9633097000187;None;;;;;;;;5;;;;;;;684.5133791000117;None;None;None;[];684.5133791000117;None;None;;684.5133791000117;None;;;S10865;2021_Sep_02_1233;VideoMask;2021.1.2;120.02539728799836;
3.0;m;033_o_m_h_a.jpg;happy;9.0;sad_136.1.wmv;sad;7.0;incongruent;120.0;160.0;176.97002883463455;h_s;;;;;0;46;46;46;;;;;;;687.5466216000495;None;689.2714014999801;689.588039000053;690.7131481000688;690.7297605000203;692.7298012999818;None;7;0;0.9818782000802457;692.7298012999818;None;;;;;;;;3;;;;;;;694.2797595000593;None;None;None;[];694.2797595000593;None;"['7', '7']";"[0.36820479994639754, 1.847720199963078]";694.2797595000593;None;;;S10865;2021_Sep_02_1233;VideoMask;2021.1.2;120.02539728799836;
9.0;f;019_m_f_h_a.jpg;happy;9.0;happy_10.1ns.avi;happy;9.0;congruent;120.0;150.0;157.2463435658512;h_h;;;;;0;47;47;47;;;;;;;697.2880991999991;None;698.8964053000091;699.2128875000635;700.4211534999777;700.438133000047;707.7883189000422;None;None;0;;707.7883189000422;None;;;;;;;;5;;;;;;;709.6710282000713;None;None;None;[];709.6710282000713;None;None;;709.6710282000713;None;;;S10865;2021_Sep_02_1233;VideoMask;2021.1.2;120.02539728799836;
2.0;f;012_o_f_h_a.jpg;happy;9.0;happy_2.2ns.avi;happy;9.0;congruent;120.0;150.0;206.34800317295262;h_h;;;;;0;48;48;48;;;;;;;712.6959430000279;None;714.7041179999942;715.020732200006;716.1874889000319;716.2040267999982;728.3621153000277;None;None;0;;728.3621153000277;None;;;;;;;;6;;;;;;;729.9205689000664;None;None;None;[];729.9205689000664;None;['9'];[0.575333199929446];729.9205689000664;None;;;S10865;2021_Sep_02_1233;VideoMask;2021.1.2;120.02539728799836;
3.0;m;033_o_m_h_a.jpg;happy;9.0;happy_24.2ns.avi;happy;9.0;congruent;120.0;150.0;167.9423847659953;h_h;;;;;0;49;49;49;;;;;;;732.9287288000342;None;734.5707253;734.8868420000654;736.1701997000491;736.1868489000481;739.745040900074;None;None;0;;739.745040900074;None;;;;;;;;8;;;;;;;741.2953364000423;None;None;None;[];741.2953364000423;None;"['9', '9', '9']";"[0.2404565999750048, 0.4882117999950424, 0.6805492000421509]";741.2953364000423;None;;;S10865;2021_Sep_02_1233;VideoMask;2021.1.2;120.02539728799836;
1.0;f;021_o_f_s_a.jpg;sad;7.0;happy_61.2ns.avi;happy;9.0;incongruent;130.0;150.0;210.94664004826666;s_h;;;;;0;50;50;50;;;;;;;744.2951171000022;None;746.3198593000416;746.6364568000427;747.7702236999758;747.7948080999777;752.2948017000454;None;9;0;0.3769014000426978;752.2948017000454;None;;;;;;;;9;;;;;;;753.8447281999979;None;None;None;[];753.8447281999979;None;"['9', '9', '9', '9']";"[0.2508133000228554, 0.4909249000484124, 0.7148148000705987, 1.370976300095208]";753.8447281999979;None;;;S10865;2021_Sep_02_1233;VideoMask;2021.1.2;120.02539728799836;
4.0;m;004_o_m_s_a.jpg;sad;7.0;sad_2.4ns.avi;sad;7.0;congruent;130.0;160.0;153.02079367163634;s_s;;;;;0;51;51;51;;;;;;;756.8529430000344;None;758.3861762000015;758.7027677000733;759.8527932000579;759.8694555000402;767.8029558999697;None;None;0;;767.8029558999697;None;;;;;;;;3;;;;;;;769.3859569000779;None;None;None;[];769.3859569000779;None;"['7', '7']";"[0.437837699893862, 0.733844899921678]";769.3859569000779;None;;;S10865;2021_Sep_02_1233;VideoMask;2021.1.2;120.02539728799836;
8.0;m;008_y_m_h_a.jpg;happy;9.0;happy_1.2ns.avi;happy;9.0;congruent;120.0;150.0;210.98946429383824;h_h;;;;;0;52;52;52;;;;;;;772.3857704000548;None;774.4439016999677;774.7606584000168;775.9107359000482;775.9272992999759;788.6852786000818;None;None;0;;788.6852786000818;None;;;;;;;;7;;;;;;;790.2517728999956;None;None;None;[];790.2517728999956;None;"['9', '9']";"[1.124186500092037, 1.4041651000734419]";790.2517728999956;None;;;S10865;2021_Sep_02_1233;VideoMask;2021.1.2;120.02539728799836;
2.0;f;012_o_f_s_a.jpg;sad;7.0;happy_52.2ns.avi;happy;9.0;incongruent;130.0;150.0;172.57202848318138;s_h;;;;;0;53;53;53;;;;;;;793.2518522000173;None;794.9433963000774;795.2600491000339;796.4517744000768;796.4683966999874;799.9435412000166;None;None;0;;799.9435412000166;None;;;;;;;;7;;;;;;;801.4933969000122;None;None;None;[];801.4933969000122;None;"['9', '9']";"[0.5382813999895006, 1.674780200002715]";801.4933969000122;None;;;S10865;2021_Sep_02_1233;VideoMask;2021.1.2;120.02539728799836;
9.0;f;019_m_f_s_a.jpg;sad;7.0;happy_61.1ns.avi;happy;9.0;incongruent;130.0;150.0;181.3003220572762;s_h;;;;;0;54;54;54;;;;;;;804.5015245000832;None;806.3014984000474;806.618022800074;807.7597089000046;807.7763846999733;815.1429545000428;None;9;0;1.0887115999357775;815.1429545000428;None;;;;;;;;8;;;;;;;816.6927431999939;None;None;None;[];816.6927431999939;None;"['9', '9', '9', '9']";"[0.4271286999573931, 0.7390541000058874, 1.0588881999719888, 2.627306199981831]";816.6927431999939;None;;;S10865;2021_Sep_02_1233;VideoMask;2021.1.2;120.02539728799836;
0.0;f;030_o_f_h_a.jpg;happy;9.0;sad_133.1.wmv;sad;7.0;incongruent;120.0;160.0;198.86251500867985;h_s;;;;;0;55;55;55;;;;;;;819.6927073000697;None;821.5841934999917;821.9009160000132;823.0260245000245;823.0426586000249;825.0343301000539;None;7;0;0.9254921999527141;825.0343301000539;None;;;;;;;;2;;;;;;;826.5841658000136;None;None;None;[];826.5841658000136;None;"['7', '7', '7', '7', '7']";"[0.3354596000863239, 0.655722500057891, 0.9516040000598878, 1.3994067000458017, 1.799483900074847]";826.5841658000136;None;;;S10865;2021_Sep_02_1233;VideoMask;2021.1.2;120.02539728799836;
0.0;f;040_y_f_h_a.jpg;happy;9.0;sad_128.2.wmv;sad;7.0;incongruent;120.0;160.0;206.10005857915363;h_s;;;;;0;56;56;56;;;;;;;829.5842410000041;None;831.5339043000713;831.8506512000458;833.0006267999997;833.0173295000568;834.9929424000438;None;7;0;0.8308644000208005;834.9929424000438;None;;;;;;;;4;;;;;;;836.7338948000688;None;None;None;[];836.7338948000688;None;['7'];[0.36981760000344366];836.7338948000688;None;;;S10865;2021_Sep_02_1233;VideoMask;2021.1.2;120.02539728799836;
1.0;f;021_o_f_s_a.jpg;sad;7.0;sad_9.5ns.avi;sad;7.0;congruent;130.0;160.0;206.16642757875042;s_s;;;;;0;57;57;57;;;;;;;839.7338839999866;None;841.7085978999967;842.0253821000224;843.2003850999754;843.2170298000565;848.8835512000369;None;7;0;0.6922222999855876;848.8835512000369;None;;;;;;;;3;;;;;;;850.4334268000675;None;None;None;[];850.4334268000675;None;"['7', '7']";"[0.3344265000196174, 0.6382140000350773]";850.4334268000675;None;;;S10865;2021_Sep_02_1233;VideoMask;2021.1.2;120.02539728799836;
1.0;f;021_o_f_h_a.jpg;happy;9.0;happy_12.1ns.avi;happy;9.0;congruent;120.0;150.0;132.59080005900228;h_h;;;;;0;58;58;58;;;;;;;853.4418840999715;None;854.8249725999776;855.1415938000428;856.2662918000715;856.2833275999874;863.8915195000591;None;9;0;0.668227499932982;863.8915195000591;None;;;;;;;;8;;;;;;;865.4413899000501;None;None;None;[];865.4413899000501;None;"['9', '9', '9', '9']";"[0.2702206999529153, 0.5422048000618815, 1.0144610999850556, 1.7744138999842107]";865.4413899000501;None;;;S10865;2021_Sep_02_1233;VideoMask;2021.1.2;120.02539728799836;
3.0;m;013_y_m_s_a.jpg;sad;7.0;happy_56.2ns.avi;happy;9.0;incongruent;130.0;150.0;163.39234110935848;s_h;;;;;0;59;59;59;;;;;;;868.4414031000342;None;870.06622040004;870.382841899991;871.5994749000529;871.6160342000658;876.5411701999838;None;9;0;1.0106290000258014;876.5411701999838;None;;;;;;;;7;;;;;;;878.091048500035;None;None;None;[];878.091048500035;None;"['9', '9']";"[0.39683740003965795, 1.0446470000315458]";878.091048500035;None;;;S10865;2021_Sep_02_1233;VideoMask;2021.1.2;120.02539728799836;
;;;;;;;;;;;;;;;;;;;;;;;;;;;;;;;;;;;;;;;;;;;;;;;;;;;;;;;;;;;;;;;;;881.0994453000603;None;;;;;;
