primePerson;primeGender;prime;primeEmotion;corrAnsPrime;target;targetEmotion;corrAnsTar;Cond;ID_Primer;ID_Target;JitterTime;Condition;example.thisRepN;example.thisTrialN;example.thisN;example.thisIndex;study.thisRepN;study.thisTrialN;study.thisN;study.thisIndex;MR_trigger_time;MR_trigger_number;text_intro.started;text_intro.stopped;text_probe.started;text_probe.stopped;polygon_ISI.started;polygon_ISI.stopped;polygon.started;polygon.stopped;primerImage.started;primerImage.stopped;response.started;response.stopped;key_resp.keys;key_resp.corr;key_resp.rt;key_resp.started;key_resp.stopped;slider_Text.started;slider_Text.stopped;slider_ex.response;slider_ex.rt;slider_ex.history;slider_ex.started;slider_ex.stopped;Rating;slider_resp_response.keys;slider_resp_response.rt;slider_resp_response.started;slider_resp_response.stopped;text_start.started;text_start.stopped;text_slider.started;text_slider.stopped;slider_stud.response;slider_stud.rt;slider_stud.history;slider_stud.started;slider_stud.stopped;slider_resp_study.keys;slider_resp_study.rt;slider_resp_study.started;slider_resp_study.stopped;text_ende.started;text_ende.stopped;participant;date;expName;psychopyVersion;frameRate;
1111;m;1111_m_m_h_a.jpg;happy;9;example_30.4ns.avi;neutral;7;incongruent;120.0;170.0;189.5874364012288;;0;0;0;0;;;;;25.007752599893138;1;25.086291400017217;27.0864494999405;27.0864494999405;None;29.102922699879855;None;31.35281730000861;31.66954839997925;32.80267099989578;32.81944109988399;37.15296099986881;None;8;0;1.3758477000519633;37.15296099986881;None;38.711120299994946;None;None;None;[];38.711120299994946;None;6;['9'];[2.4735352001152933];38.711120299994946;None;;;;;;;;;;;;;;;;S11496;2022_Jun_02_1533;VideoMask;2021.1.2;119.96002906981819;
1113;f;1113_y_f_s_a.jpg;sad;7;example_30.3ns.avi;neutral;7;incongruent;130.0;170.0;229.02432995836998;;0;1;1;1;;;;;;;;;;;41.702681299997494;None;43.810637400019914;44.127604000037536;45.26091479999013;45.27761940006167;47.26094070007093;None;None;0;;47.26094070007093;None;48.810804300010204;None;None;None;[];48.810804300010204;None;6;['9'];[0.990070499945432];48.810804300010204;None;;;;;;;;;;;;;;;;S11496;2022_Jun_02_1533;VideoMask;2021.1.2;119.96002906981819;
9.0;f;019_m_f_h_a.jpg;happy;9.0;sad_115.1.wmv;sad;7.0;incongruent;120.0;160.0;128.09063432376465;h_s;;;;;0;0;0;0;;;;;;;52.8439702000469;None;54.11878739995882;54.43547939998098;55.57721160002984;55.593880200060084;57.56885499996133;None;8;0;0.7519871999975294;57.56885499996133;None;;;;;;;;3;;;;;51.819146200083196;None;59.12715009995736;None;None;None;[];59.12715009995736;None;"['7', '7']";"[0.6819452000781894, 0.9377105999737978]";59.12715009995736;None;;;S11496;2022_Jun_02_1533;VideoMask;2021.1.2;119.96002906981819;
3.0;m;033_o_m_s_a.jpg;sad;7.0;sad_94.2ns.avi;sad;7.0;congruent;130.0;160.0;182.29120173647655;s_s;;;;;0;1;1;1;;;;;;;62.11877020006068;None;63.83516769995913;64.15188229992054;65.31026909989305;65.32683039992116;67.97676540003158;None;7;0;0.49598949984647334;67.97676540003158;None;;;;;;;;3;;;;;;;69.5267457999289;None;None;None;[];69.5267457999289;None;"['7', '7']";"[0.506066600093618, 1.8900135001167655]";69.5267457999289;None;;;S11496;2022_Jun_02_1533;VideoMask;2021.1.2;119.96002906981819;
8.0;m;008_y_m_h_a.jpg;happy;9.0;happy_26.1ns.avi;happy;9.0;congruent;120.0;150.0;155.9437854594882;h_h;;;;;0;2;2;2;;;;;;;72.52674379991367;None;74.00985509995371;74.32662559999153;75.5100271999836;75.5264711000491;77.45163300004788;None;8;0;0.541129200020805;77.45163300004788;None;;;;;;;;5;;;;;;;79.00148439989425;None;None;None;[];79.00148439989425;None;None;;79.00148439989425;None;;;S11496;2022_Jun_02_1533;VideoMask;2021.1.2;119.96002906981819;
0.0;f;040_y_f_h_a.jpg;happy;9.0;sad_138.1.wmv;sad;7.0;incongruent;120.0;160.0;133.99071306426532;h_s;;;;;0;3;3;3;;;;;;;82.01791499997489;None;83.33456170000136;83.65124520007521;84.77645589993335;84.79294659988955;86.78451619995758;None;None;0;;86.78451619995758;None;;;;;;;;4;;;;;;;88.32605320005678;None;None;None;[];88.32605320005678;None;"['7', '7']";"[0.8346080998890102, 1.3547414999920875]";88.32605320005678;None;;;S11496;2022_Jun_02_1533;VideoMask;2021.1.2;119.96002906981819;
8.0;f;028_y_f_s_a.jpg;sad;7.0;sad_64.2ns.avi;sad;7.0;congruent;130.0;160.0;229.88540597086478;s_s;;;;;0;4;4;4;;;;;;;91.33454229985364;None;93.47593449987471;93.79263220005669;94.99264369998127;95.00936989998445;105.93418459990062;None;7;0;0.7306248999666423;105.93418459990062;None;;;;;;;;3;;;;;;;107.48395520006306;None;None;None;[];107.48395520006306;None;"['7', '7', '7']";"[1.4769593998789787, 1.7088274999987334, 2.0448415998835117]";107.48395520006306;None;;;S11496;2022_Jun_02_1533;VideoMask;2021.1.2;119.96002906981819;
7.0;m;027_o_m_s_a.jpg;sad;7.0;sad_10.4ns.avi;sad;7.0;congruent;130.0;160.0;185.20129417468752;s_s;;;;;0;5;5;5;;;;;;;110.48389589996077;None;112.22532780002803;112.55050479993224;113.72545769996941;113.7420981999021;116.8426812000107;None;7;0;0.7421220999676734;116.8426812000107;None;;;;;;;;2;;;;;;;118.47527029993944;None;None;None;[];118.47527029993944;None;"['7', '7', '7']";"[0.35765639995224774, 0.5813879000488669, 0.7813764000311494]";118.47527029993944;None;;;S11496;2022_Jun_02_1533;VideoMask;2021.1.2;119.96002906981819;
2.0;f;012_o_f_s_a.jpg;sad;7.0;sad_7.5ns.avi;sad;7.0;congruent;130.0;160.0;220.27842655424388;s_s;;;;;0;6;6;6;;;;;;;121.48423609999008;None;123.50835249992087;123.82503849989735;125.0083689999301;125.0250645999331;127.75017330003902;None;7;0;0.3948844999540597;127.75017330003902;None;;;;;;;;2;;;;;;;129.3000127999112;None;None;None;[];129.3000127999112;None;"['7', '7', '7', '7', '7']";"[0.3566811999771744, 0.8687185000162572, 1.0686698001809418, 1.300670700147748, 1.5647754000965506]";129.3000127999112;None;;;S11496;2022_Jun_02_1533;VideoMask;2021.1.2;119.96002906981819;
2.0;f;012_o_f_h_a.jpg;happy;9.0;happy_27.1ns.avi;happy;9.0;congruent;120.0;150.0;146.44967055810616;h_h;;;;;0;7;7;7;;;;;;;132.3081930000335;None;133.7246767000761;134.04140149988234;135.27517580008134;135.29972869995981;137.6662941998802;None;8;0;0.5025365999899805;137.6662941998802;None;;;;;;;;5;;;;;;;139.2162895000074;None;None;None;[];139.2162895000074;None;None;;139.2162895000074;None;;;S11496;2022_Jun_02_1533;VideoMask;2021.1.2;119.96002906981819;
8.0;f;028_y_f_h_a.jpg;happy;9.0;sad_119.1.wmv;sad;7.0;incongruent;120.0;160.0;148.71526953572538;h_s;;;;;0;8;8;8;;;;;;;142.2411124999635;None;143.68271389999427;143.9994309998583;145.1411778999027;145.15778129990213;147.19940619985573;None;None;0;;147.19940619985573;None;;;;;;;;5;;;;;;;148.7492493998725;None;None;None;[];148.7492493998725;None;None;;148.7492493998725;None;;;S11496;2022_Jun_02_1533;VideoMask;2021.1.2;119.96002906981819;
6.0;m;016_y_m_s_a.jpg;sad;7.0;happy_60.4ns.avi;happy;9.0;incongruent;130.0;150.0;126.02367393611817;s_h;;;;;0;9;9;9;;;;;;;151.7742548000533;None;153.04094009986147;153.35753570008092;154.50747289997526;154.52416749997064;160.2824382998515;None;8;0;0.5983908998314291;160.2824382998515;None;;;;;;;;5;;;;;;;162.0405850999523;None;None;None;[];162.0405850999523;None;None;;162.0405850999523;None;;;S11496;2022_Jun_02_1533;VideoMask;2021.1.2;119.96002906981819;
9.0;f;019_m_f_s_a.jpg;sad;7.0;sad_8.4ns.avi;sad;7.0;congruent;130.0;160.0;171.6633093155257;s_s;;;;;0;10;10;10;;;;;;;165.0570594999008;None;166.715311500011;167.03190729999915;168.18248629989102;168.2070456999354;176.31549349986017;None;7;0;0.93332409998402;176.31549349986017;None;;;;;;;;4;;;;;;;177.89011400006711;None;None;None;[];177.89011400006711;None;['7'];[0.39903560001403093];177.89011400006711;None;;;S11496;2022_Jun_02_1533;VideoMask;2021.1.2;119.96002906981819;
4.0;m;004_o_m_h_a.jpg;happy;9.0;happy_1.1ns.avi;happy;9.0;congruent;120.0;150.0;203.50057144619865;h_h;;;;;0;11;11;11;;;;;;;180.89849729998969;None;182.86472059995867;183.181627899874;184.34825819986872;184.36490079993382;198.79771679989062;None;9;0;1.0111539999488741;198.79771679989062;None;;;;;;;;7;;;;;;;200.3476984000299;None;None;None;[];200.3476984000299;None;"['9', '9', '9']";"[0.6690093001816422, 1.1411751999985427, 2.1170970001257956]";200.3476984000299;None;;;S11496;2022_Jun_02_1533;VideoMask;2021.1.2;119.96002906981819;
7.0;m;027_o_m_h_a.jpg;happy;9.0;happy_20.1ns.avi;happy;9.0;congruent;120.0;150.0;152.91127178874285;h_h;;;;;0;12;12;12;;;;;;;203.34760900004767;None;204.82266339985654;205.1392228999175;206.2725789998658;206.28928430005908;209.2892682000529;None;9;0;0.9997186998371035;209.2892682000529;None;;;;;;;;6;;;;;;;210.8390359999612;None;None;None;[];210.8390359999612;None;['9'];[0.9778646000195295];210.8390359999612;None;;;S11496;2022_Jun_02_1533;VideoMask;2021.1.2;119.96002906981819;
0.0;f;040_y_f_s_a.jpg;sad;7.0;sad_94.3ns.avi;sad;7.0;congruent;130.0;160.0;155.27414203894395;s_s;;;;;0;13;13;13;;;;;;;213.83923759986646;None;215.33039919985458;215.64721950003877;216.85548419994302;216.8721381998621;219.405541599961;None;7;0;0.459394000004977;219.405541599961;None;;;;;;;;4;;;;;;;220.95536069991067;None;None;None;[];220.95536069991067;None;['7'];[0.8215944999828935];220.95536069991067;None;;;S11496;2022_Jun_02_1533;VideoMask;2021.1.2;119.96002906981819;
0.0;f;030_o_f_s_a.jpg;sad;7.0;sad_68.1ns.avi;sad;7.0;congruent;130.0;160.0;158.9411396037211;s_s;;;;;0;14;14;14;;;;;;;223.9553530998528;None;225.50516840000637;225.82198160002008;226.98862800002098;227.00535520003177;234.3801277000457;None;7;0;0.7086340999230742;234.3801277000457;None;;;;;;;;4;;;;;;;235.93000639998354;None;None;None;[];235.93000639998354;None;['7'];[0.25489840004593134];235.93000639998354;None;;;S11496;2022_Jun_02_1533;VideoMask;2021.1.2;119.96002906981819;
0.0;f;030_o_f_h_a.jpg;happy;9.0;sad_127.1.wmv;sad;7.0;incongruent;120.0;160.0;180.59976631384873;h_s;;;;;0;15;15;15;;;;;;;238.9382326998748;None;240.65470399986953;240.97147889994085;242.0965334000066;242.11313749989495;244.10474979993887;None;7;0;1.280433600069955;244.10474979993887;None;;;;;;;;5;;;;;;;245.67138189985417;None;None;None;[];245.67138189985417;None;None;;245.67138189985417;None;;;S11496;2022_Jun_02_1533;VideoMask;2021.1.2;119.96002906981819;
8.0;m;008_y_m_s_a.jpg;sad;7.0;happy_133.3.wmv;happy;9.0;incongruent;130.0;150.0;152.577966552593;s_h;;;;;0;16;16;16;;;;;;;248.68785299989395;None;250.17099489993416;250.48779339995235;251.61295669991523;251.6293893000111;253.62115080002695;None;9;0;0.915775700006634;253.62115080002695;None;;;;;;;;6;;;;;;;255.17105920007452;None;None;None;[];255.17105920007452;None;['9'];[1.349780699936673];255.17105920007452;None;;;S11496;2022_Jun_02_1533;VideoMask;2021.1.2;119.96002906981819;
3.0;m;033_o_m_h_a.jpg;happy;9.0;sad_128.1.wmv;sad;7.0;incongruent;120.0;160.0;171.0492454518585;h_s;;;;;0;17;17;17;;;;;;;258.1709888000041;None;259.8124345999677;260.1292497999966;261.26245049992576;261.2792191999033;263.26248080004007;None;7;0;0.5463521999772638;263.26248080004007;None;;;;;;;;4;;;;;;;264.8124362998642;None;None;None;[];264.8124362998642;None;['7'];[0.38040869985707104];264.8124362998642;None;;;S11496;2022_Jun_02_1533;VideoMask;2021.1.2;119.96002906981819;
1.0;f;021_o_f_h_a.jpg;happy;9.0;sad_116.1.wmv;sad;7.0;incongruent;120.0;160.0;184.06847610053055;h_s;;;;;0;18;18;18;;;;;;;267.8124144000467;None;269.56221430003643;269.8788697998971;271.037934999913;271.0622683998663;273.028887799941;None;7;0;1.0999131000135094;273.028887799941;None;;;;;;;;5;;;;;;;274.578828800004;None;None;None;[];274.578828800004;None;None;;274.578828800004;None;;;S11496;2022_Jun_02_1533;VideoMask;2021.1.2;119.96002906981819;
4.0;m;004_o_m_s_a.jpg;sad;7.0;happy_28.1ns.avi;happy;9.0;incongruent;130.0;150.0;157.40741103039684;s_h;;;;;0;19;19;19;;;;;;;277.60373910004273;None;279.1202142999973;279.43688539997675;280.64519579987973;280.66189430002123;284.9618329999503;None;9;0;0.47100529982708395;284.9618329999503;None;;;;;;;;6;;;;;;;286.5117589000147;None;None;None;[];286.5117589000147;None;['9'];[0.9291224998887628];286.5117589000147;None;;;S11496;2022_Jun_02_1533;VideoMask;2021.1.2;119.96002906981819;
8.0;f;028_y_f_s_a.jpg;sad;7.0;happy_122.3.wmv;happy;9.0;incongruent;130.0;150.0;171.8670540936116;s_h;;;;;0;20;20;20;;;;;;;289.51174480002373;None;291.15315519995056;291.46996559994295;292.6032505000476;292.6197249998804;294.6031828999985;None;9;0;0.6456458999309689;294.6031828999985;None;;;;;;;;7;;;;;;;296.1448118998669;None;None;None;[];296.1448118998669;None;"['9', '9']";"[0.3521724999882281, 0.6081380001269281]";296.1448118998669;None;;;S11496;2022_Jun_02_1533;VideoMask;2021.1.2;119.96002906981819;
8.0;m;008_y_m_s_a.jpg;sad;7.0;sad_6.5ns.avi;sad;7.0;congruent;130.0;160.0;170.39333839271438;s_s;;;;;0;21;21;21;;;;;;;299.1446992000565;None;300.77776299999095;301.0945879998617;302.30289689986967;302.3195426000748;307.2279831999913;None;7;0;0.4688165998086333;307.2279831999913;None;;;;;;;;3;;;;;;;308.77772239991464;None;None;None;[];308.77772239991464;None;"['7', '7']";"[0.4235069998539984, 0.647146999835968]";308.77772239991464;None;;;S11496;2022_Jun_02_1533;VideoMask;2021.1.2;119.96002906981819;
8.0;f;028_y_f_h_a.jpg;happy;9.0;happy_23.1ns.avi;happy;9.0;congruent;120.0;150.0;225.70986890587952;h_h;;;;;0;22;22;22;;;;;;;311.78601070004515;None;313.86077899998054;314.1775636000093;315.3859015998896;315.4023869999219;319.88572310004383;None;9;0;0.5551422000862658;319.88572310004383;None;;;;;;;;7;;;;;;;321.4356921999715;None;None;None;[];321.4356921999715;None;"['9', '9']";"[0.5813646998722106, 0.7971168998628855]";321.4356921999715;None;;;S11496;2022_Jun_02_1533;VideoMask;2021.1.2;119.96002906981819;
8.0;m;008_y_m_h_a.jpg;happy;9.0;sad_111.1.wmv;sad;7.0;incongruent;120.0;160.0;152.63076835312847;h_s;;;;;0;23;23;23;;;;;;;324.4440538000781;None;325.9187668999657;326.23547439998947;327.3688624999486;327.3854966999497;329.36878370004706;None;7;0;0.44015059992671013;329.36878370004706;None;;;;;;;;4;;;;;;;330.918720100075;None;None;None;[];330.918720100075;None;['7'];[0.3144729998894036];330.918720100075;None;;;S11496;2022_Jun_02_1533;VideoMask;2021.1.2;119.96002906981819;
0.0;f;040_y_f_s_a.jpg;sad;7.0;sad_67.2ns.avi;sad;7.0;congruent;130.0;160.0;220.9892697323079;s_s;;;;;0;24;24;24;;;;;;;333.91876909998246;None;335.9850810000207;336.30183589993976;337.43511569988914;337.4518480999395;346.6600655000657;None;7;0;0.3888170998543501;346.6600655000657;None;;;;;;;;4;;;;;;;348.2098695000168;None;None;None;[];348.2098695000168;None;['7'];[1.0469166000839323];348.2098695000168;None;;;S11496;2022_Jun_02_1533;VideoMask;2021.1.2;119.96002906981819;
8.0;m;008_y_m_s_a.jpg;sad;7.0;happy_29.1ns.avi;happy;9.0;incongruent;130.0;150.0;120.0316142834122;s_h;;;;;0;25;25;25;;;;;;;351.20987610006705;None;352.4181357000489;352.73465429991484;353.89297150005586;353.90959549997933;356.559692800045;None;9;0;0.9052148000337183;356.559692800045;None;;;;;;;;7;;;;;;;358.1095513999462;None;None;None;[];358.1095513999462;None;"['9', '9']";"[0.3873739999253303, 0.6032767998985946]";358.1095513999462;None;;;S11496;2022_Jun_02_1533;VideoMask;2021.1.2;119.96002906981819;
6.0;m;016_y_m_s_a.jpg;sad;7.0;sad_8.3ns.avi;sad;7.0;congruent;130.0;160.0;152.85371098242734;s_s;;;;;0;26;26;26;;;;;;;361.11772549990565;None;362.6092717999127;362.92599819996394;364.1091598998755;364.1258153000381;371.8175818999298;None;8;0;1.4633266001474112;371.8175818999298;None;;;;;;;;5;;;;;;;373.36739919986576;None;None;None;[];373.36739919986576;None;None;;373.36739919986576;None;;;S11496;2022_Jun_02_1533;VideoMask;2021.1.2;119.96002906981819;
6.0;m;016_y_m_h_a.jpg;happy;9.0;sad_114.1.wmv;sad;7.0;incongruent;120.0;160.0;136.20550699298644;h_s;;;;;0;27;27;27;;;;;;;376.4006942999549;None;377.74212859990075;378.0589043998625;379.1839916999452;379.2005735998973;381.19215849996544;None;8;0;1.4812583001330495;381.19215849996544;None;;;;;;;;5;;;;;;;382.7421476999298;None;None;None;[];382.7421476999298;None;None;;382.7421476999298;None;;;S11496;2022_Jun_02_1533;VideoMask;2021.1.2;119.96002906981819;
7.0;m;027_o_m_s_a.jpg;sad;7.0;happy_117.3.wmv;happy;9.0;incongruent;130.0;150.0;215.61964028550614;s_h;;;;;0;28;28;28;;;;;;;385.75851419987157;None;387.75008939998224;388.0668682998512;389.1920334000606;389.2085965999868;391.2003140000161;None;9;0;0.5365716000087559;391.2003140000161;None;;;;;;;;7;;;;;;;392.75014519994147;None;None;None;[];392.75014519994147;None;"['9', '9']";"[0.30658119986765087, 0.5149278999306262]";392.75014519994147;None;;;S11496;2022_Jun_02_1533;VideoMask;2021.1.2;119.96002906981819;
6.0;m;016_y_m_h_a.jpg;happy;9.0;happy_9.2ns.avi;happy;9.0;congruent;120.0;150.0;130.52042428082717;h_h;;;;;0;29;29;29;;;;;;;395.7584798000753;None;397.0499183998909;397.3665396999568;398.5666753000114;398.58331639994867;404.4249449998606;None;9;0;0.3359540000092238;404.4249449998606;None;;;;;;;;7;;;;;;;405.9747653999366;None;None;None;[];405.9747653999366;None;"['9', '9']";"[0.6982249999418855, 0.9060406000353396]";405.9747653999366;None;;;S11496;2022_Jun_02_1533;VideoMask;2021.1.2;119.96002906981819;
0.0;f;040_y_f_s_a.jpg;sad;7.0;happy_127.3.wmv;happy;9.0;incongruent;130.0;150.0;131.7195455720239;s_h;;;;;0;30;30;30;;;;;;;408.9747764999047;None;410.26608229987323;410.58293919987045;411.7080123999622;411.72460590000264;413.7828293000348;None;9;0;0.6661288999021053;413.7828293000348;None;;;;;;;;6;;;;;;;415.32448199996725;None;None;None;[];415.32448199996725;None;['9'];[0.34856739989481866];415.32448199996725;None;;;S11496;2022_Jun_02_1533;VideoMask;2021.1.2;119.96002906981819;
0.0;f;030_o_f_s_a.jpg;sad;7.0;happy_125.3.wmv;happy;9.0;incongruent;130.0;150.0;220.51454909128134;s_h;;;;;0;31;31;31;;;;;;;418.32449749996886;None;420.37424620008096;420.6909713000059;421.82467840006575;421.84928089985624;423.82425739988685;None;9;0;0.4167052002158016;423.82425739988685;None;;;;;;;;5;;;;;;;425.37415020004846;None;None;None;[];425.37415020004846;None;None;;425.37415020004846;None;;;S11496;2022_Jun_02_1533;VideoMask;2021.1.2;119.96002906981819;
0.0;f;030_o_f_s_a.jpg;sad;7.0;sad_64.3ns.avi;sad;7.0;congruent;130.0;160.0;165.78667874766072;s_s;;;;;0;32;32;32;;;;;;;428.40740119991824;None;429.99054110003635;430.307346199872;431.4656499000266;431.4823151999153;436.4404809998814;None;7;0;0.5286127000581473;436.4404809998814;None;;;;;;;;4;;;;;;;437.99040449992754;None;None;None;[];437.99040449992754;None;['7'];[0.2669055999722332];437.99040449992754;None;;;S11496;2022_Jun_02_1533;VideoMask;2021.1.2;119.96002906981819;
3.0;m;013_y_m_s_a.jpg;sad;7.0;sad_7.7ns.avi;sad;7.0;congruent;130.0;160.0;196.24182255763262;s_s;;;;;0;33;33;33;;;;;;;440.99035970005207;None;442.8318109998945;443.1484306999482;444.36526399990544;444.38191039999947;450.2819000999443;None;7;0;0.5512024001218379;450.2819000999443;None;;;;;;;;5;;;;;;;451.83167849993333;None;None;None;[];451.83167849993333;None;None;;451.83167849993333;None;;;S11496;2022_Jun_02_1533;VideoMask;2021.1.2;119.96002906981819;
3.0;m;013_y_m_h_a.jpg;happy;9.0;happy_9.1ns.avi;happy;9.0;congruent;120.0;150.0;165.1890303600433;h_h;;;;;0;34;34;34;;;;;;;454.8480843999423;None;456.4315742000472;456.74811349995434;457.9148559998721;457.93148709996603;461.10645129997283;None;9;0;0.6863372998777777;461.10645129997283;None;;;;;;;;6;;;;;;;462.65630270005204;None;None;None;[];462.65630270005204;None;['9'];[0.7447558999992907];462.65630270005204;None;;;S11496;2022_Jun_02_1533;VideoMask;2021.1.2;119.96002906981819;
4.0;m;004_o_m_h_a.jpg;happy;9.0;sad_95.1ns.avi;sad;7.0;incongruent;120.0;160.0;152.68270002069931;h_s;;;;;0;35;35;35;;;;;;;465.65627339994535;None;467.1560674998909;467.472802199889;468.6394135998562;468.65645419992507;477.397545899963;None;7;0;0.395558999851346;477.397545899963;None;;;;;;;;3;;;;;;;478.9474190999754;None;None;None;[];478.9474190999754;None;"['7', '7']";"[0.5575912999920547, 0.7413808999117464]";478.9474190999754;None;;;S11496;2022_Jun_02_1533;VideoMask;2021.1.2;119.96002906981819;
3.0;m;013_y_m_h_a.jpg;happy;9.0;sad_113.2.wmv;sad;7.0;incongruent;120.0;160.0;217.4973891947951;h_s;;;;;0;36;36;36;;;;;;;481.94745930004865;None;483.9722704999149;484.2889509999659;485.42225029994734;485.43923590006307;487.43893889989704;None;8;0;1.466074800118804;487.43893889989704;None;;;;;;;;3;;;;;;;488.98886250006035;None;None;None;[];488.98886250006035;None;"['7', '7']";"[1.5162692000158131, 1.7962417998351157]";488.98886250006035;None;;;S11496;2022_Jun_02_1533;VideoMask;2021.1.2;119.96002906981819;
4.0;m;004_o_m_h_a.jpg;happy;9.0;happy_25.1ns.avi;happy;9.0;congruent;120.0;150.0;216.63044503818386;h_h;;;;;0;37;37;37;;;;;;;491.9973023000639;None;494.0052070999518;494.32203859998845;495.5386802998837;495.55531760002486;499.14707599999383;None;9;0;0.5578149000648409;499.14707599999383;None;;;;;;;;5;;;;;;;500.70517969992943;None;None;None;[];500.70517969992943;None;None;;500.70517969992943;None;;;S11496;2022_Jun_02_1533;VideoMask;2021.1.2;119.96002906981819;
4.0;m;004_o_m_s_a.jpg;sad;7.0;happy_131.2.wmv;happy;9.0;incongruent;130.0;150.0;181.38407540847405;s_h;;;;;0;38;38;38;;;;;;;503.7217061999254;None;505.44662999990396;505.76328279986046;506.89644829998724;506.9133128998801;508.8966389999259;None;9;0;0.528378700139001;508.8966389999259;None;;;;;;;;7;;;;;;;510.4465071000159;None;None;None;[];510.4465071000159;None;"['9', '9']";"[0.24234320013783872, 0.4587207001168281]";510.4465071000159;None;;;S11496;2022_Jun_02_1533;VideoMask;2021.1.2;119.96002906981819;
0.0;f;040_y_f_h_a.jpg;happy;9.0;happy_24.3ns.avi;happy;9.0;congruent;120.0;150.0;213.25460698950434;h_h;;;;;0;39;39;39;;;;;;;513.4464133998845;None;515.4212972999085;515.7381182999816;516.9880772999022;517.0046373999212;518.7963914999273;None;9;0;0.5325857999268919;518.7963914999273;None;;;;;;;;5;;;;;;;520.3545571998693;None;None;None;[];520.3545571998693;None;None;;520.3545571998693;None;;;S11496;2022_Jun_02_1533;VideoMask;2021.1.2;119.96002906981819;
2.0;f;012_o_f_s_a.jpg;sad;7.0;happy_139.1.wmv;happy;9.0;incongruent;130.0;150.0;162.31500468041804;s_h;;;;;0;40;40;40;;;;;;;523.3710076999851;None;524.9209344000556;525.2376919998787;526.3711127999704;526.3877030999865;528.3709954000078;None;9;0;0.4220928999129683;528.3709954000078;None;;;;;;;;6;;;;;;;529.9209266998805;None;None;None;[];529.9209266998805;None;['9'];[0.26423670002259314];529.9209266998805;None;;;S11496;2022_Jun_02_1533;VideoMask;2021.1.2;119.96002906981819;
0.0;f;030_o_f_h_a.jpg;happy;9.0;happy_24.1ns.avi;happy;9.0;congruent;120.0;150.0;168.36256624020774;h_h;;;;;0;41;41;41;;;;;;;532.9208557999227;None;534.5206289000344;534.8373878998682;536.0040154000744;536.0206633999478;539.2957603998948;None;9;0;0.641243000049144;539.2957603998948;None;;;;;;;;5;;;;;;;541.1122703999281;None;None;None;[];541.1122703999281;None;None;;541.1122703999281;None;;;S11496;2022_Jun_02_1533;VideoMask;2021.1.2;119.96002906981819;
2.0;f;012_o_f_h_a.jpg;happy;9.0;sad_113.1.wmv;sad;7.0;incongruent;120.0;160.0;177.44551734737394;h_s;;;;;0;42;42;42;;;;;;;544.1286526999902;None;545.8120941999368;546.1285776000004;547.2618911999743;547.2785624000244;549.2620077999309;None;7;0;0.6830690999049693;549.2620077999309;None;;;;;;;;4;;;;;;;550.8119542999193;None;None;None;[];550.8119542999193;None;['7'];[1.5811242000199854];550.8119542999193;None;;;S11496;2022_Jun_02_1533;VideoMask;2021.1.2;119.96002906981819;
3.0;m;033_o_m_s_a.jpg;sad;7.0;sad_64.5ns.avi;sad;7.0;congruent;130.0;160.0;130.55717223801247;s_s;;;;;0;43;43;43;;;;;;;553.8119780998677;None;555.1118880000431;555.4284051000141;556.5701351999305;556.5867582000792;563.1699632999953;None;7;0;0.32700040005147457;563.1699632999953;None;;;;;;;;2;;;;;;;564.7198097999208;None;None;None;[];564.7198097999208;None;"['7', '7', '7', '7']";"[0.3851111999247223, 0.6091119998600334, 0.8252007998526096, 1.0251875999383628]";564.7198097999208;None;;;S11496;2022_Jun_02_1533;VideoMask;2021.1.2;119.96002906981819;
7.0;m;027_o_m_h_a.jpg;happy;9.0;sad_117.1.wmv;sad;7.0;incongruent;120.0;160.0;181.28665202824095;h_s;;;;;0;44;44;44;;;;;;;567.7281675999984;None;569.4613960999995;569.7780365999788;570.9196687000804;570.936304199975;572.9113093998749;None;8;0;0.4336211998015642;572.9113093998749;None;;;;;;;;4;;;;;;;574.5860069000628;None;None;None;[];574.5860069000628;None;"['7', '7']";"[0.3110049001406878, 0.8153389999642968]";574.5860069000628;None;;;S11496;2022_Jun_02_1533;VideoMask;2021.1.2;119.96002906981819;
3.0;m;033_o_m_s_a.jpg;sad;7.0;happy_126.3.wmv;happy;9.0;incongruent;130.0;150.0;198.85252030535366;s_h;;;;;0;45;45;45;;;;;;;577.5867898999713;None;579.4442809999455;579.7610539998859;580.8942851999309;580.9110158998519;582.8942879999522;None;9;0;0.8186808000318706;582.8942879999522;None;;;;;;;;6;;;;;;;584.4442511999514;None;None;None;[];584.4442511999514;None;"['9', '9']";"[0.2767399998847395, 1.0207373998127878]";584.4442511999514;None;;;S11496;2022_Jun_02_1533;VideoMask;2021.1.2;119.96002906981819;
3.0;m;033_o_m_h_a.jpg;happy;9.0;sad_136.1.wmv;sad;7.0;incongruent;120.0;160.0;176.97002883463455;h_s;;;;;0;46;46;46;;;;;;;587.4525027999189;None;589.1356615999248;589.45230860007;590.5774196998682;590.5939666999038;592.5856816999149;None;7;0;1.0472625000402331;592.5856816999149;None;;;;;;;;4;;;;;;;594.1356219998561;None;None;None;[];594.1356219998561;None;['7'];[1.0173279999289662];594.1356219998561;None;;;S11496;2022_Jun_02_1533;VideoMask;2021.1.2;119.96002906981819;
9.0;f;019_m_f_h_a.jpg;happy;9.0;happy_10.1ns.avi;happy;9.0;congruent;120.0;150.0;157.2463435658512;h_h;;;;;0;47;47;47;;;;;;;597.1439125998877;None;598.668638400035;598.9854214000516;600.1438144999556;600.1604649000801;607.5603459998965;None;9;0;0.6086128999013454;607.5603459998965;None;;;;;;;;5;;;;;;;609.110170400003;None;None;None;[];609.110170400003;None;None;;609.110170400003;None;;;S11496;2022_Jun_02_1533;VideoMask;2021.1.2;119.96002906981819;
2.0;f;012_o_f_h_a.jpg;happy;9.0;happy_2.2ns.avi;happy;9.0;congruent;120.0;150.0;206.34800317295262;h_h;;;;;0;48;48;48;;;;;;;612.1350088000763;None;614.0932296998799;614.4099326999858;615.534919400001;615.551629499998;627.7512527999934;None;9;0;0.6018207999877632;627.7512527999934;None;;;;;;;;6;;;;;;;629.3012297998648;None;None;None;[];629.3012297998648;None;['9'];[0.33979539992287755];629.3012297998648;None;;;S11496;2022_Jun_02_1533;VideoMask;2021.1.2;119.96002906981819;
3.0;m;033_o_m_h_a.jpg;happy;9.0;happy_24.2ns.avi;happy;9.0;congruent;120.0;150.0;167.9423847659953;h_h;;;;;0;49;49;49;;;;;;;632.3095809998922;None;633.9009565999731;634.217666799901;635.3843988999724;635.4010270000435;639.0758507000282;None;9;0;0.5092297000810504;639.0758507000282;None;;;;;;;;5;;;;;;;640.6258169000503;None;None;None;[];640.6258169000503;None;None;;640.6258169000503;None;;;S11496;2022_Jun_02_1533;VideoMask;2021.1.2;119.96002906981819;
1.0;f;021_o_f_s_a.jpg;sad;7.0;happy_61.2ns.avi;happy;9.0;incongruent;130.0;150.0;210.94664004826666;s_h;;;;;0;50;50;50;;;;;;;643.6423609999474;None;645.600462900009;645.9172950000502;647.0588247999549;647.0756395999342;651.575515500037;None;9;0;0.4735150998458266;651.575515500037;None;;;;;;;;5;;;;;;;653.1254632999189;None;None;None;[];653.1254632999189;None;None;;653.1254632999189;None;;;S11496;2022_Jun_02_1533;VideoMask;2021.1.2;119.96002906981819;
4.0;m;004_o_m_s_a.jpg;sad;7.0;sad_2.4ns.avi;sad;7.0;congruent;130.0;160.0;153.02079367163634;s_s;;;;;0;51;51;51;;;;;;;656.1419537998736;None;657.6334428000264;657.9501523999497;659.1584053998813;659.1750769999344;667.041873899987;None;7;0;0.47118490003049374;667.041873899987;None;;;;;;;;3;;;;;;;668.5999948999379;None;None;None;[];668.5999948999379;None;"['7', '7']";"[0.27311359997838736, 0.4729476000647992]";668.5999948999379;None;;;S11496;2022_Jun_02_1533;VideoMask;2021.1.2;119.96002906981819;
8.0;m;008_y_m_h_a.jpg;happy;9.0;happy_1.2ns.avi;happy;9.0;congruent;120.0;150.0;210.98946429383824;h_h;;;;;0;52;52;52;;;;;;;671.6082756998949;None;673.5995581999887;673.9163871998899;675.0831583000254;675.0998331999872;687.8411385999061;None;9;0;0.8159541999921203;687.8411385999061;None;;;;;;;;6;;;;;;;689.3910091998987;None;None;None;[];689.3910091998987;None;"['9', '9', '9', '7']";"[0.3860726000275463, 0.8422252000309527, 1.2821849000174552, 1.8021044000051916]";689.3910091998987;None;;;S11496;2022_Jun_02_1533;VideoMask;2021.1.2;119.96002906981819;
2.0;f;012_o_f_s_a.jpg;sad;7.0;happy_52.2ns.avi;happy;9.0;incongruent;130.0;150.0;172.57202848318138;s_h;;;;;0;53;53;53;;;;;;;692.3909742999822;None;694.0241708999965;694.3408569998574;695.4991947000381;695.5158041999675;699.0239832000807;None;9;0;0.4410713999532163;699.0239832000807;None;;;;;;;;7;;;;;;;700.5740211000666;None;None;None;[];700.5740211000666;None;"['9', '9']";"[0.2751289000734687, 0.5068644999992102]";700.5740211000666;None;;;S11496;2022_Jun_02_1533;VideoMask;2021.1.2;119.96002906981819;
9.0;f;019_m_f_s_a.jpg;sad;7.0;happy_61.1ns.avi;happy;9.0;incongruent;130.0;150.0;181.3003220572762;s_h;;;;;0;54;54;54;;;;;;;703.582315800013;None;705.3154100999236;705.6321841999888;706.7654986998532;706.7821205998771;714.1570458998904;None;9;0;0.5239009999204427;714.1570458998904;None;;;;;;;;5;;;;;;;715.7068650999572;None;None;None;[];715.7068650999572;None;None;;715.7068650999572;None;;;S11496;2022_Jun_02_1533;VideoMask;2021.1.2;119.96002906981819;
0.0;f;030_o_f_h_a.jpg;happy;9.0;sad_133.1.wmv;sad;7.0;incongruent;120.0;160.0;198.86251500867985;h_s;;;;;0;55;55;55;;;;;;;718.7316159999464;None;720.5898233999033;720.9066244000569;722.0317470000591;722.0483537998516;724.0399203998968;None;7;0;0.2889797000680119;724.0399203998968;None;;;;;;;;3;;;;;;;725.5899137998931;None;None;None;[];725.5899137998931;None;"['7', '7']";"[0.347192200133577, 0.5390329000074416]";725.5899137998931;None;;;S11496;2022_Jun_02_1533;VideoMask;2021.1.2;119.96002906981819;
0.0;f;040_y_f_h_a.jpg;happy;9.0;sad_128.2.wmv;sad;7.0;incongruent;120.0;160.0;206.10005857915363;h_s;;;;;0;56;56;56;;;;;;;728.5898295999505;None;730.5146099999547;730.8312842999585;731.9645404000767;731.9813905998599;733.9646360999905;None;7;0;0.7164209000766277;733.9646360999905;None;;;;;;;;4;;;;;;;735.5145944000687;None;None;None;[];735.5145944000687;None;['7'];[1.942495800089091];735.5145944000687;None;;;S11496;2022_Jun_02_1533;VideoMask;2021.1.2;119.96002906981819;
1.0;f;021_o_f_s_a.jpg;sad;7.0;sad_9.5ns.avi;sad;7.0;congruent;130.0;160.0;206.16642757875042;s_s;;;;;0;57;57;57;;;;;;;738.5144916998688;None;740.4392707999796;740.7560272000264;741.8894408999477;741.9060555000324;747.614232199965;None;7;0;0.42687899991869926;747.614232199965;None;;;;;;;;2;;;;;;;749.230836499948;None;None;None;[];749.230836499948;None;"['7', '7', '7']";"[0.33030720008537173, 0.5061089999508113, 0.6822510999627411]";749.230836499948;None;;;S11496;2022_Jun_02_1533;VideoMask;2021.1.2;119.96002906981819;
1.0;f;021_o_f_h_a.jpg;happy;9.0;happy_12.1ns.avi;happy;9.0;congruent;120.0;150.0;132.59080005900228;h_h;;;;;0;58;58;58;;;;;;;752.23091319995;None;753.5640741998795;753.8807214000262;755.005496900063;755.0222521000542;762.6304289000109;None;9;0;0.6105720999184996;762.6304289000109;None;;;;;;;;5;;;;;;;764.1803814999294;None;None;None;[];764.1803814999294;None;None;;764.1803814999294;None;;;S11496;2022_Jun_02_1533;VideoMask;2021.1.2;119.96002906981819;
3.0;m;013_y_m_s_a.jpg;sad;7.0;happy_56.2ns.avi;happy;9.0;incongruent;130.0;150.0;163.39234110935848;s_h;;;;;0;59;59;59;;;;;;;767.1968195000663;None;768.7802653999534;769.0968199998606;770.2802200000733;770.2968597998843;775.2550218000542;None;9;0;0.6340656001120806;775.2550218000542;None;;;;;;;;5;;;;;;;776.8049967999104;None;None;None;[];776.8049967999104;None;None;;776.8049967999104;None;;;S11496;2022_Jun_02_1533;VideoMask;2021.1.2;119.96002906981819;
;;;;;;;;;;;;;;;;;;;;;;;;;;;;;;;;;;;;;;;;;;;;;;;;;;;;;;;;;;;;;;;;;779.8215407000389;None;;;;;;
