primePerson;primeGender;prime;primeEmotion;corrAnsPrime;target;targetEmotion;corrAnsTar;Cond;ID_Primer;ID_Target;JitterTime;example.thisRepN;example.thisTrialN;example.thisN;example.thisIndex;study.thisRepN;study.thisTrialN;study.thisN;study.thisIndex;MR_trigger_time;MR_trigger_number;text_intro.started;text_intro.stopped;text_probe.started;text_probe.stopped;polygon_ISI.started;polygon_ISI.stopped;polygon.started;polygon.stopped;primerImage.started;primerImage.stopped;response.started;response.stopped;key_resp.keys;key_resp.corr;key_resp.rt;key_resp.started;key_resp.stopped;slider_Text.started;slider_Text.stopped;slider_ex.response;slider_ex.rt;slider_ex.history;slider_ex.started;slider_ex.stopped;Rating;slider_resp_response.keys;slider_resp_response.rt;slider_resp_response.started;slider_resp_response.stopped;text_start.started;text_start.stopped;text_slider.started;text_slider.stopped;slider_stud.response;slider_stud.rt;slider_stud.history;slider_stud.started;slider_stud.stopped;slider_resp_study.keys;slider_resp_study.rt;slider_resp_study.started;slider_resp_study.stopped;text_ende.started;text_ende.stopped;participant;date;expName;psychopyVersion;frameRate;
1111;m;1111_m_m_h_a.jpg;happy;9;example_30.4ns.avi;neutral;7;incongruent;120.0;170.0;189.5874364012288;0;0;0;0;;;;;50.97861849999754;1;51.05606049999187;53.05628049999359;53.05628049999359;None;55.081182299996726;None;57.33950129999721;57.66447249999328;58.88926449998689;58.90595969998685;63.13935729999503;None;9;0;0.9261446000018623;63.13935729999503;None;64.71414559999539;None;None;None;[];64.71414559999539;None;6;['9'];[2.2553109000000404];64.71414559999539;None;;;;;;;;;;;;;;;;S10756;2021_Jul_15_1738;VideoMask;2021.1.2;120.8311734680134;
1113;f;1113_y_f_s_a.jpg;sad;7;example_30.3ns.avi;neutral;7;incongruent;130.0;170.0;229.02432995836998;0;1;1;1;;;;;;;;;;;67.69739709999703;None;69.83886489999713;70.15557269999408;71.33064439998998;71.34728539999924;73.28895009998814;None;9;0;1.2729091000073822;73.28895009998814;None;74.83884399999806;None;None;None;[];74.83884399999806;None;6;"['9', '9', '9']";"[0.6427734000026248, 1.0186442000122042, 2.810882500009029]";74.83884399999806;None;;;;;;;;;;;;;;;;S10756;2021_Jul_15_1738;VideoMask;2021.1.2;120.8311734680134;
3.0;m;033_o_m_s_a.jpg;sad;7.0;sad_94.2ns.avi;sad;7.0;congruent;130.0;160.0;228.63582583242618;;;;;0;0;0;0;;;;;;;78.88876069999242;None;81.02257519999694;81.33876139999484;82.47169939999003;82.48860809998587;85.18085039999278;None;7;0;1.188694900003611;85.18085039999278;None;;;;;;;;3;;;;;77.83884399999806;None;86.74754409999878;None;None;None;[];86.74754409999878;None;"['7', '7']";"[1.8540563999995356, 2.6540812000021106]";86.74754409999878;None;;;S10756;2021_Jul_15_1738;VideoMask;2021.1.2;120.8311734680134;
0.0;f;030_o_f_s_a.jpg;sad;7.0;sad_68.1ns.avi;sad;7.0;congruent;130.0;160.0;163.14738846961149;;;;;0;1;1;1;;;;;;;89.73844999998983;None;91.34674839999934;91.66326239999034;92.80491979999351;92.82145539998601;100.22151599999052;None;None;0;;100.22151599999052;None;;;;;;;;5;;;;;;;101.77147009999317;None;None;None;[];101.77147009999317;None;None;;101.77147009999317;None;;;S10756;2021_Jul_15_1738;VideoMask;2021.1.2;120.8311734680134;
8.0;m;008_y_m_h_a.jpg;happy;9.0;happy_26.1ns.avi;happy;9.0;congruent;140.0;150.0;184.58211837191982;;;;;0;2;2;2;;;;;;;104.78792619999149;None;106.54603249998763;106.86278389999643;108.05427249999775;108.07099089999974;109.98781999999483;None;None;0;;109.98781999999483;None;;;;;;;;6;;;;;;;111.53754379999009;None;None;None;[];111.53754379999009;None;['9'];[0.08772909999242984];111.53754379999009;None;;;S10756;2021_Jul_15_1738;VideoMask;2021.1.2;120.8311734680134;
0.0;f;030_o_f_s_a.jpg;sad;7.0;happy_125.3.wmv;happy;9.0;incongruent;130.0;150.0;189.50417957278896;;;;;0;3;3;3;;;;;;;114.5461335999862;None;116.34579279999889;116.6625301999884;117.796374499987;117.82095789999585;119.79591089999303;None;None;0;;119.79591089999303;None;;;;;;;;6;;;;;;;121.34558539999125;None;None;None;[];121.34558539999125;None;['9'];[0.6158908000070369];121.34558539999125;None;;;S10756;2021_Jul_15_1738;VideoMask;2021.1.2;120.8311734680134;
1.0;f;021_o_f_s_a.jpg;sad;7.0;sad_9.5ns.avi;sad;7.0;congruent;130.0;160.0;156.55128602613038;;;;;0;4;4;4;;;;;;;124.34579490000033;None;125.87892699999793;126.1954917999974;127.32861609999964;127.34565129999828;133.0536785999866;None;None;0;;133.0536785999866;None;;;;;;;;3;;;;;;;134.60366249999788;None;None;None;[];134.60366249999788;None;"['7', '7', '9']";"[0.5656774000090081, 1.1578720000106841, 2.3019190000050003]";134.60366249999788;None;;;S10756;2021_Jul_15_1738;VideoMask;2021.1.2;120.8311734680134;
4.0;m;004_o_m_s_a.jpg;sad;7.0;happy_28.1ns.avi;happy;9.0;incongruent;130.0;150.0;219.83540383939274;;;;;0;5;5;5;;;;;;;137.61204449999786;None;139.66184259999136;139.9784626999899;141.11990979999246;141.1367990999861;145.5033289999992;None;9;0;0.8981677999981912;145.5033289999992;None;;;;;;;;7;;;;;;;147.05319659999805;None;None;None;[];147.05319659999805;None;"['9', '9']";"[0.46821900000213645, 0.7961456000048202]";147.05319659999805;None;;;S10756;2021_Jul_15_1738;VideoMask;2021.1.2;120.8311734680134;
2.0;f;012_o_f_s_a.jpg;sad;7.0;sad_7.5ns.avi;sad;7.0;congruent;130.0;160.0;147.95125229894379;;;;;0;6;6;6;;;;;;;150.05322769998747;None;151.47803159999603;151.7946995999955;152.96975259999454;152.98625199998787;155.71987159999844;None;7;0;1.0735224999953061;155.71987159999844;None;;;;;;;;4;;;;;;;157.27801889998955;None;None;None;[];157.27801889998955;None;"['7', '7']";"[0.8354437999951188, 1.5557098999997834]";157.27801889998955;None;;;S10756;2021_Jul_15_1738;VideoMask;2021.1.2;120.8311734680134;
2.0;f;012_o_f_s_a.jpg;sad;7.0;happy_52.2ns.avi;happy;9.0;incongruent;130.0;150.0;144.3898903070799;;;;;0;7;7;7;;;;;;;160.2778973999957;None;161.69442969998636;162.01115859999845;163.21951479998825;163.23612379998667;166.69438229998923;None;9;0;0.8909597000019858;166.69438229998923;None;;;;;;;;7;;;;;;;168.24432839998917;None;None;None;[];168.24432839998917;None;"['9', '9']";"[0.772976699998253, 2.629201000003377]";168.24432839998917;None;;;S10756;2021_Jul_15_1738;VideoMask;2021.1.2;120.8311734680134;
0.0;f;040_y_f_s_a.jpg;sad;7.0;sad_67.2ns.avi;sad;7.0;congruent;130.0;160.0;192.80086779892653;;;;;0;8;8;8;;;;;;;171.2442056;None;173.11921719998645;173.43591029998788;174.66047689999687;174.67811969999457;183.81053569998767;None;8;0;1.238818199999514;183.81053569998767;None;;;;;;;;4;;;;;;;185.36046969999734;None;None;None;[];185.36046969999734;None;['7'];[2.121086600003764];185.36046969999734;None;;;S10756;2021_Jul_15_1738;VideoMask;2021.1.2;120.8311734680134;
3.0;m;013_y_m_s_a.jpg;sad;7.0;happy_56.2ns.avi;happy;9.0;incongruent;130.0;150.0;134.62621969351147;;;;;0;9;9;9;;;;;;;188.36871349999274;None;189.72684679999657;190.04356279999774;191.19363279998652;191.21022789999552;196.20184279998648;None;None;0;;196.20184279998648;None;;;;;;;;5;;;;;;;197.75215199998638;None;None;None;[];197.75215199998638;None;None;;197.75215199998638;None;;;S10756;2021_Jul_15_1738;VideoMask;2021.1.2;120.8311734680134;
0.0;f;030_o_f_h_a.jpg;happy;9.0;sad_133.1.wmv;sad;7.0;incongruent;120.0;160.0;238.4103736452693;;;;;0;10;10;10;;;;;;;200.7765156999958;None;202.99313259999326;203.30985969999165;204.44326629998977;204.4598752999882;206.44322519999696;None;7;0;0.621930399996927;206.44322519999696;None;;;;;;;;5;;;;;;;208.0597909999924;None;None;None;[];208.0597909999924;None;None;;208.0597909999924;None;;;S10756;2021_Jul_15_1738;VideoMask;2021.1.2;120.8311734680134;
2.0;f;012_o_f_h_a.jpg;happy;9.0;happy_2.2ns.avi;happy;9.0;congruent;140.0;150.0;120.08648649110712;;;;;0;11;11;11;;;;;;;211.0762815999915;None;212.34282719998737;212.65962949999084;213.87610919999133;213.89293119999638;225.99283179998747;None;9;0;0.44088389999524225;225.99283179998747;None;;;;;;;;7;;;;;;;227.55090269999346;None;None;None;[];227.55090269999346;None;"['9', '9']";"[0.8423303000017768, 2.034467899997253]";227.55090269999346;None;;;S10756;2021_Jul_15_1738;VideoMask;2021.1.2;120.8311734680134;
9.0;f;019_m_f_s_a.jpg;sad;7.0;sad_8.4ns.avi;sad;7.0;congruent;130.0;160.0;169.3395974323834;;;;;0;12;12;12;;;;;;;230.55928299999505;None;232.23403499998676;232.55072139999538;233.72558639998897;233.74230149999494;241.82612369999697;None;8;0;0.6716012000106275;241.82612369999697;None;;;;;;;;5;;;;;;;243.70864199999778;None;None;None;[];243.70864199999778;None;None;;243.70864199999778;None;;;S10756;2021_Jul_15_1738;VideoMask;2021.1.2;120.8311734680134;
8.0;m;008_y_m_s_a.jpg;sad;7.0;sad_6.5ns.avi;sad;7.0;congruent;130.0;160.0;124.24628091899196;;;;;0;13;13;13;;;;;;;246.72512789999018;None;248.00844839999627;248.32513139999355;249.45853489999718;249.47509459999856;254.45848569998634;None;7;0;0.7988959999929648;254.45848569998634;None;;;;;;;;5;;;;;;;256.00836889998754;None;None;None;[];256.00836889998754;None;None;;256.00836889998754;None;;;S10756;2021_Jul_15_1738;VideoMask;2021.1.2;120.8311734680134;
1.0;f;021_o_f_h_a.jpg;happy;9.0;happy_12.1ns.avi;happy;9.0;congruent;140.0;150.0;236.6487020138435;;;;;0;14;14;14;;;;;;;259.0248813999933;None;261.24146449999535;261.55812249999144;262.708080899989;262.72483499998634;270.30801119998796;None;9;0;0.9334441999963019;270.30801119998796;None;;;;;;;;6;;;;;;;271.86612909998803;None;None;None;[];271.86612909998803;None;['9'];[1.1431205999979284];271.86612909998803;None;;;S10756;2021_Jul_15_1738;VideoMask;2021.1.2;120.8311734680134;
8.0;f;028_y_f_s_a.jpg;sad;7.0;sad_64.2ns.avi;sad;7.0;congruent;130.0;160.0;238.8507440172915;;;;;0;15;15;15;;;;;;;274.8745724999899;None;277.1742993999942;277.4909767999925;278.67407169999206;278.69076089999;289.6247393999947;None;None;0;;289.6247393999947;None;;;;;;;;5;;;;;;;291.8323270999972;None;None;None;[];291.8323270999972;None;None;;291.8323270999972;None;;;S10756;2021_Jul_15_1738;VideoMask;2021.1.2;120.8311734680134;
2.0;f;012_o_f_s_a.jpg;sad;7.0;happy_139.1.wmv;happy;9.0;incongruent;130.0;150.0;185.59030554143408;;;;;0;16;16;16;;;;;;;294.86560279999685;None;296.6236273999966;296.9403459999885;298.082061899986;298.09872079998604;300.07356479999726;None;9;0;0.9756095000047935;300.07356479999726;None;;;;;;;;6;;;;;;;301.6235529999976;None;None;None;[];301.6235529999976;None;['9'];[2.337929899993469];301.6235529999976;None;;;S10756;2021_Jul_15_1738;VideoMask;2021.1.2;120.8311734680134;
3.0;m;033_o_m_s_a.jpg;sad;7.0;sad_64.5ns.avi;sad;7.0;congruent;130.0;160.0;159.52646627166388;;;;;0;17;17;17;;;;;;;304.6318958999909;None;306.21496549999574;306.5317132999917;307.7150246999954;307.73234549998597;314.26475779998873;None;None;0;;314.26475779998873;None;;;;;;;;3;;;;;;;315.8148483999976;None;None;None;[];315.8148483999976;None;"['7', '7']";"[0.04258290000143461, 0.9143575000052806]";315.8148483999976;None;;;S10756;2021_Jul_15_1738;VideoMask;2021.1.2;120.8311734680134;
0.0;f;040_y_f_s_a.jpg;sad;7.0;happy_127.3.wmv;happy;9.0;incongruent;130.0;150.0;131.0431594605889;;;;;0;18;18;18;;;;;;;318.8148955999932;None;320.1312423999916;320.4480746999907;321.5730634999927;321.589647899993;323.66450970000005;None;9;0;0.9367594000068493;323.66450970000005;None;;;;;;;;5;;;;;;;325.2144966999913;None;None;None;[];325.2144966999913;None;None;;325.2144966999913;None;;;S10756;2021_Jul_15_1738;VideoMask;2021.1.2;120.8311734680134;
3.0;m;033_o_m_h_a.jpg;happy;9.0;sad_128.1.wmv;sad;7.0;incongruent;120.0;160.0;168.97426303437265;;;;;0;19;19;19;;;;;;;328.2396047999937;None;329.86427849999745;330.1810686999961;331.31448639999144;331.3313866999961;333.314423799995;None;None;0;;333.314423799995;None;;;;;;;;4;;;;;;;334.864267699988;None;None;None;[];334.864267699988;None;"['7', '9']";"[0.08885770000051707, 1.5770267000043532]";334.864267699988;None;;;S10756;2021_Jul_15_1738;VideoMask;2021.1.2;120.8311734680134;
9.0;f;019_m_f_h_a.jpg;happy;9.0;sad_115.1.wmv;sad;7.0;incongruent;120.0;160.0;202.13700247699333;;;;;0;20;20;20;;;;;;;337.8642486999888;None;339.7639996999933;340.0806670999882;341.20572879999236;341.2223784999951;343.2140889999864;None;7;0;0.9790240000002086;343.2140889999864;None;;;;;;;;5;;;;;;;344.7639472999872;None;None;None;[];344.7639472999872;None;None;;344.7639472999872;None;;;S10756;2021_Jul_15_1738;VideoMask;2021.1.2;120.8311734680134;
8.0;m;008_y_m_h_a.jpg;happy;9.0;happy_1.2ns.avi;happy;9.0;congruent;140.0;150.0;155.22310421045015;;;;;0;21;21;21;;;;;;;347.7889252999885;None;349.37216289999196;349.68878149999364;350.86381879998953;350.8804516999953;363.6134674999921;None;9;0;0.7077329999883659;363.6134674999921;None;;;;;;;;7;;;;;;;365.1633765999868;None;None;None;[];365.1633765999868;None;"['9', '9']";"[0.33395300000847783, 0.5977534999983618]";365.1633765999868;None;;;S10756;2021_Jul_15_1738;VideoMask;2021.1.2;120.8311734680134;
0.0;f;040_y_f_s_a.jpg;sad;7.0;sad_94.3ns.avi;sad;7.0;congruent;130.0;160.0;157.18644691248227;;;;;0;22;22;22;;;;;;;368.17163099999016;None;369.7048561999982;370.02143489998707;371.18820009999035;371.20469429998775;373.7798752999952;None;None;0;;373.7798752999952;None;;;;;;;;5;;;;;;;375.32954599999357;None;None;None;[];375.32954599999357;None;None;;375.32954599999357;None;;;S10756;2021_Jul_15_1738;VideoMask;2021.1.2;120.8311734680134;
6.0;m;016_y_m_s_a.jpg;sad;7.0;happy_60.4ns.avi;happy;9.0;incongruent;130.0;150.0;135.96622391936876;;;;;0;23;23;23;;;;;;;378.36299419999705;None;379.74615859999903;380.0627941999992;381.2628829999885;381.2795227999886;386.9970259999973;None;None;0;;386.9970259999973;None;;;;;;;;5;;;;;;;388.8382730999874;None;None;None;[];388.8382730999874;None;None;;388.8382730999874;None;;;S10756;2021_Jul_15_1738;VideoMask;2021.1.2;120.8311734680134;
0.0;f;030_o_f_h_a.jpg;happy;9.0;happy_24.1ns.avi;happy;9.0;congruent;140.0;150.0;187.2363405679046;;;;;0;24;24;24;;;;;;;391.8626332999993;None;393.6539225999877;393.9707337;395.14579769999546;395.16250859999855;398.42910889998893;None;9;0;0.9079129000019748;398.42910889998893;None;;;;;;;;6;;;;;;;399.9789640999952;None;None;None;[];399.9789640999952;None;"['9', '9']";"[1.0939992999919923, 1.8142049000016414]";399.9789640999952;None;;;S10756;2021_Jul_15_1738;VideoMask;2021.1.2;120.8311734680134;
8.0;m;008_y_m_s_a.jpg;sad;7.0;happy_133.3.wmv;happy;9.0;incongruent;130.0;150.0;151.65964880545846;;;;;0;25;25;25;;;;;;;402.97886239999207;None;404.4619961999997;404.77866329999233;405.91217069998675;405.9287492999865;407.92043439998815;None;9;0;0.6487428999971598;407.92043439998815;None;;;;;;;;6;;;;;;;409.47033219999867;None;None;None;[];409.47033219999867;None;['9'];[1.9308260000107111];409.47033219999867;None;;;S10756;2021_Jul_15_1738;VideoMask;2021.1.2;120.8311734680134;
1.0;f;021_o_f_s_a.jpg;sad;7.0;happy_61.2ns.avi;happy;9.0;incongruent;130.0;150.0;146.79956415721207;;;;;0;26;26;26;;;;;;;412.47868559999915;None;413.9284320999868;414.24509859998943;415.4532468999969;415.46992819999286;419.9116783999925;None;8;0;0.5058447999908822;419.9116783999925;None;;;;;;;;5;;;;;;;421.66995399999723;None;None;None;[];421.66995399999723;None;None;;421.66995399999723;None;;;S10756;2021_Jul_15_1738;VideoMask;2021.1.2;120.8311734680134;
1.0;f;021_o_f_h_a.jpg;happy;9.0;sad_116.1.wmv;sad;7.0;incongruent;120.0;160.0;205.93899364307754;;;;;0;27;27;27;;;;;;;424.6865150999947;None;426.6446497999859;426.96130059999996;428.1029079;428.1199551999889;430.0946561999881;None;7;0;0.9781870000006165;430.0946561999881;None;;;;;;;;5;;;;;;;431.64468990000023;None;None;None;[];431.64468990000023;None;None;;431.64468990000023;None;;;S10756;2021_Jul_15_1738;VideoMask;2021.1.2;120.8311734680134;
7.0;m;027_o_m_h_a.jpg;happy;9.0;happy_20.1ns.avi;happy;9.0;congruent;140.0;150.0;145.4488529976734;;;;;0;28;28;28;;;;;;;434.6694858999981;None;436.102647599997;436.41951329998847;437.60277009999845;437.61949689999165;440.57783659998677;None;9;0;0.4790289000084158;440.57783659998677;None;;;;;;;;6;;;;;;;442.12769199999457;None;None;None;[];442.12769199999457;None;"['9', '9']";"[0.7851679000013974, 1.5373715000023367]";442.12769199999457;None;;;S10756;2021_Jul_15_1738;VideoMask;2021.1.2;120.8311734680134;
3.0;m;033_o_m_s_a.jpg;sad;7.0;happy_126.3.wmv;happy;9.0;incongruent;130.0;150.0;220.47504181707743;;;;;0;29;29;29;;;;;;;445.12772479999694;None;447.18564309999056;447.50247199999285;448.64392119999684;448.660613;450.63585419999436;None;9;0;1.205380100000184;450.63585419999436;None;;;;;;;;5;;;;;;;452.1857185999979;None;None;None;[];452.1857185999979;None;None;;452.1857185999979;None;;;S10756;2021_Jul_15_1738;VideoMask;2021.1.2;120.8311734680134;
4.0;m;004_o_m_s_a.jpg;sad;7.0;sad_2.4ns.avi;sad;7.0;congruent;130.0;160.0;153.9424691910033;;;;;0;30;30;30;;;;;;;455.20216359999904;None;456.72777849998965;457.0442463999934;458.2029080999928;458.21943230000034;466.14369479999004;None;8;0;0.7773536000022432;466.14369479999004;None;;;;;;;;5;;;;;;;467.7019811999926;None;None;None;[];467.7019811999926;None;None;;467.7019811999926;None;;;S10756;2021_Jul_15_1738;VideoMask;2021.1.2;120.8311734680134;
8.0;m;008_y_m_h_a.jpg;happy;9.0;sad_111.1.wmv;sad;7.0;incongruent;120.0;160.0;182.0123397825363;;;;;0;31;31;31;;;;;;;470.73518169998715;None;472.4599390999938;472.7767310999916;473.9017606999987;473.91834129999916;475.9106105999963;None;7;0;0.6504050999938045;475.9106105999963;None;;;;;;;;5;;;;;;;477.45994569998584;None;None;None;[];477.45994569998584;None;None;;477.45994569998584;None;;;S10756;2021_Jul_15_1738;VideoMask;2021.1.2;120.8311734680134;
4.0;m;004_o_m_h_a.jpg;happy;9.0;happy_1.1ns.avi;happy;9.0;congruent;140.0;150.0;145.41905773865074;;;;;0;32;32;32;;;;;;;480.48490209999727;None;481.9847180999932;482.30162149999524;483.4512584999902;483.46809499998926;497.9263169999904;None;9;0;0.5948130000033416;497.9263169999904;None;;;;;;;;5;;;;;;;499.48420149998856;None;None;None;[];499.48420149998856;None;None;;499.48420149998856;None;;;S10756;2021_Jul_15_1738;VideoMask;2021.1.2;120.8311734680134;
4.0;m;004_o_m_s_a.jpg;sad;7.0;happy_131.2.wmv;happy;9.0;incongruent;130.0;150.0;163.9874412082805;;;;;0;33;33;33;;;;;;;502.5092389999918;None;504.125769899998;504.4422344999912;505.575534299991;505.592381399998;507.57568529999116;None;9;0;0.793339299998479;507.57568529999116;None;;;;;;;;6;;;;;;;509.12566209999204;None;None;None;[];509.12566209999204;None;['9'];[1.4112391000089701];509.12566209999204;None;;;S10756;2021_Jul_15_1738;VideoMask;2021.1.2;120.8311734680134;
2.0;f;012_o_f_h_a.jpg;happy;9.0;happy_27.1ns.avi;happy;9.0;congruent;140.0;150.0;207.9053492649655;;;;;0;34;34;34;;;;;;;512.1256349999894;None;514.0836852999928;514.4004570999969;515.6587968999957;515.6754911999888;518.0253706999938;None;9;0;1.0156936999992467;518.0253706999938;None;;;;;;;;6;;;;;;;519.5753382999974;None;None;None;[];519.5753382999974;None;['9'];[0.41772949999722186];519.5753382999974;None;;;S10756;2021_Jul_15_1738;VideoMask;2021.1.2;120.8311734680134;
7.0;m;027_o_m_s_a.jpg;sad;7.0;happy_117.3.wmv;happy;9.0;incongruent;130.0;150.0;218.0520785974414;;;;;0;35;35;35;;;;;;;522.5754309999902;None;524.6250463999895;524.9416894999886;526.0669280999864;526.0834938999906;528.0841416999901;None;8;0;1.532984799996484;528.0841416999901;None;;;;;;;;4;;;;;;;529.8166762999899;None;None;None;[];529.8166762999899;None;['7'];[2.2163444999896456];529.8166762999899;None;;;S10756;2021_Jul_15_1738;VideoMask;2021.1.2;120.8311734680134;
2.0;f;012_o_f_h_a.jpg;happy;9.0;sad_113.1.wmv;sad;7.0;incongruent;120.0;160.0;192.53137802384992;;;;;0;36;36;36;;;;;;;532.81670879999;None;534.6497497999953;534.9664339999872;536.0998903999862;536.1164930999948;538.1000802999915;None;8;0;1.3008350000018254;538.1000802999915;None;;;;;;;;5;;;;;;;539.6496288999915;None;None;None;[];539.6496288999915;None;None;;539.6496288999915;None;;;S10756;2021_Jul_15_1738;VideoMask;2021.1.2;120.8311734680134;
8.0;f;028_y_f_h_a.jpg;happy;9.0;happy_23.1ns.avi;happy;9.0;congruent;140.0;150.0;159.76384515822056;;;;;0;37;37;37;;;;;;;542.6745438999933;None;544.2327859999932;544.5495092999918;545.6999532999907;545.7245538999996;550.2578077999933;None;9;0;0.6792518000002019;550.2578077999933;None;;;;;;;;6;;;;;;;551.8076807999896;None;None;None;[];551.8076807999896;None;['9'];[0.7293649000057485];551.8076807999896;None;;;S10756;2021_Jul_15_1738;VideoMask;2021.1.2;120.8311734680134;
0.0;f;030_o_f_s_a.jpg;sad;7.0;sad_64.3ns.avi;sad;7.0;congruent;130.0;160.0;172.91738127163183;;;;;0;38;38;38;;;;;;;554.8076800999988;None;556.4824592999939;556.8081294000003;557.9988952999993;558.0156511999958;562.9324239999987;None;7;0;0.5804881999938516;562.9324239999987;None;;;;;;;;4;;;;;;;564.4822821999987;None;None;None;[];564.4822821999987;None;['7'];[0.3588657000072999];564.4822821999987;None;;;S10756;2021_Jul_15_1738;VideoMask;2021.1.2;120.8311734680134;
6.0;m;016_y_m_h_a.jpg;happy;9.0;sad_114.1.wmv;sad;7.0;incongruent;120.0;160.0;196.03539454983184;;;;;0;39;39;39;;;;;;;567.4905887999921;None;569.3570076999895;569.6740528999944;570.8070133000001;570.823690899997;572.8070406999905;None;8;0;1.1698725000023842;572.8070406999905;None;;;;;;;;5;;;;;;;574.3570155999914;None;None;None;[];574.3570155999914;None;None;;574.3570155999914;None;;;S10756;2021_Jul_15_1738;VideoMask;2021.1.2;120.8311734680134;
6.0;m;016_y_m_s_a.jpg;sad;7.0;sad_8.3ns.avi;sad;7.0;congruent;130.0;160.0;139.87174075953956;;;;;0;40;40;40;;;;;;;577.3818889999966;None;578.8151927999861;579.1317670999997;580.3737098999991;580.3985159000003;588.0315520999866;None;8;0;0.6493365999922389;588.0315520999866;None;;;;;;;;5;;;;;;;589.5898596999905;None;None;None;[];589.5898596999905;None;None;;589.5898596999905;None;;;S10756;2021_Jul_15_1738;VideoMask;2021.1.2;120.8311734680134;
7.0;m;027_o_m_s_a.jpg;sad;7.0;sad_10.4ns.avi;sad;7.0;congruent;130.0;160.0;163.89298117292617;;;;;0;41;41;41;;;;;;;592.6231136999995;None;594.2146171999921;594.5313488999964;595.6980473999865;595.714667399996;598.8312357999966;None;8;0;1.2176139000075636;598.8312357999966;None;;;;;;;;5;;;;;;;600.3811732999893;None;None;None;[];600.3811732999893;None;None;;600.3811732999893;None;;;S10756;2021_Jul_15_1738;VideoMask;2021.1.2;120.8311734680134;
3.0;m;013_y_m_h_a.jpg;happy;9.0;happy_9.1ns.avi;happy;9.0;congruent;140.0;150.0;128.37211756912527;;;;;0;42;42;42;;;;;;;603.3975916999916;None;604.7226047999866;605.039380199989;606.2144061999861;606.2309384999971;609.3975447999983;None;None;0;;609.3975447999983;None;;;;;;;;5;;;;;;;610.9477542999957;None;None;None;[];610.9477542999957;None;None;;610.9477542999957;None;;;S10756;2021_Jul_15_1738;VideoMask;2021.1.2;120.8311734680134;
7.0;m;027_o_m_h_a.jpg;happy;9.0;sad_117.1.wmv;sad;7.0;incongruent;120.0;160.0;163.19466748508617;;;;;0;43;43;43;;;;;;;613.9640531999903;None;615.5389325999859;615.8559963999869;616.9807557999884;616.9973616999923;618.9889195999858;None;8;0;1.2761137000052258;618.9889195999858;None;;;;;;;;5;;;;;;;620.5389233999886;None;None;None;[];620.5389233999886;None;None;;620.5389233999886;None;;;S10756;2021_Jul_15_1738;VideoMask;2021.1.2;120.8311734680134;
4.0;m;004_o_m_h_a.jpg;happy;9.0;sad_95.1ns.avi;sad;7.0;incongruent;120.0;160.0;162.95060606286506;;;;;0;44;44;44;;;;;;;623.5637973999983;None;625.1804460999992;625.4970890999975;626.6554665000003;626.6719848999928;635.4219935999863;None;8;0;0.8668977000052109;635.4219935999863;None;;;;;;;;6;;;;;;;636.9800953999948;None;None;None;[];636.9800953999948;None;['9'];[1.4288781000068411];636.9800953999948;None;;;S10756;2021_Jul_15_1738;VideoMask;2021.1.2;120.8311734680134;
0.0;f;040_y_f_h_a.jpg;happy;9.0;sad_128.2.wmv;sad;7.0;incongruent;120.0;160.0;121.98396994352893;;;;;0;45;45;45;;;;;;;639.9800478999969;None;641.2130886999948;641.5304883999925;642.6630452999962;642.6799451999977;644.6715971999947;None;7;0;0.36105950000637677;644.6715971999947;None;;;;;;;;5;;;;;;;646.2214721999917;None;None;None;[];646.2214721999917;None;None;;646.2214721999917;None;;;S10756;2021_Jul_15_1738;VideoMask;2021.1.2;120.8311734680134;
0.0;f;040_y_f_h_a.jpg;happy;9.0;sad_138.1.wmv;sad;7.0;incongruent;120.0;160.0;195.60264978061832;;;;;0;46;46;46;;;;;;;649.2462564999878;None;651.08781859999;651.4045835999859;652.5296519999974;652.5462383999984;654.554687699987;None;7;0;0.5579511999967508;654.554687699987;None;;;;;;;;4;;;;;;;656.1128533999872;None;None;None;[];656.1128533999872;None;['7'];[1.4719356999994488];656.1128533999872;None;;;S10756;2021_Jul_15_1738;VideoMask;2021.1.2;120.8311734680134;
8.0;m;008_y_m_s_a.jpg;sad;7.0;happy_29.1ns.avi;happy;9.0;incongruent;130.0;150.0;212.92407054126133;;;;;0;47;47;47;;;;;;;659.112732499998;None;661.087620499995;661.404323699986;662.6049142999982;662.6293536999874;665.229250999997;None;9;0;0.5796242999931565;665.229250999997;None;;;;;;;;6;;;;;;;666.7791743999987;None;None;None;[];666.7791743999987;None;"['9', '9']";"[1.3097028999909526, 2.0297259999933885]";666.7791743999987;None;;;S10756;2021_Jul_15_1738;VideoMask;2021.1.2;120.8311734680134;
0.0;f;040_y_f_h_a.jpg;happy;9.0;happy_24.3ns.avi;happy;9.0;congruent;140.0;150.0;190.23859628619445;;;;;0;48;48;48;;;;;;;669.7796525999875;None;671.562136499997;671.8789857999946;673.0871161999967;673.1039431999961;674.9371178000001;None;9;0;0.8480599999893457;674.9371178000001;None;;;;;;;;5;;;;;;;676.4872030999977;None;None;None;[];676.4872030999977;None;None;;676.4872030999977;None;;;S10756;2021_Jul_15_1738;VideoMask;2021.1.2;120.8311734680134;
3.0;m;033_o_m_h_a.jpg;happy;9.0;happy_24.2ns.avi;happy;9.0;congruent;140.0;150.0;127.28107088671867;;;;;0;49;49;49;;;;;;;679.5119549999945;None;680.8035770999995;681.1203558999987;682.3536614999903;682.370428299997;685.9878602999961;None;9;0;0.4448054999957094;685.9878602999961;None;;;;;;;;6;;;;;;;687.5452178999985;None;None;None;[];687.5452178999985;None;['9'];[0.41540040000109];687.5452178999985;None;;;S10756;2021_Jul_15_1738;VideoMask;2021.1.2;120.8311734680134;
9.0;f;019_m_f_s_a.jpg;sad;7.0;happy_61.1ns.avi;happy;9.0;incongruent;130.0;150.0;190.9434091532566;;;;;0;50;50;50;;;;;;;690.5451026999945;None;692.3950396999862;692.7116902999987;693.8950019999902;693.911717799987;701.2370304999931;None;8;0;0.3719662000075914;701.2370304999931;None;;;;;;;;4;;;;;;;702.7864142999897;None;None;None;[];702.7864142999897;None;['7'];[0.38239440000324976];702.7864142999897;None;;;S10756;2021_Jul_15_1738;VideoMask;2021.1.2;120.8311734680134;
8.0;f;028_y_f_h_a.jpg;happy;9.0;sad_119.1.wmv;sad;7.0;incongruent;120.0;160.0;178.10396226647933;;;;;0;51;51;51;;;;;;;705.7946995999955;None;707.5116506999912;707.8280904999992;708.9609300999873;708.9776495999977;711.027840499999;None;None;0;;711.027840499999;None;;;;;;;;5;;;;;;;712.5777804999962;None;None;None;[];712.5777804999962;None;None;;712.5777804999962;None;;;S10756;2021_Jul_15_1738;VideoMask;2021.1.2;120.8311734680134;
3.0;m;033_o_m_h_a.jpg;happy;9.0;sad_136.1.wmv;sad;7.0;incongruent;120.0;160.0;206.04367658109783;;;;;0;52;52;52;;;;;;;715.6025773999863;None;717.5441800999979;717.8609629999992;718.9942790999921;719.0107256999909;720.9942222999962;None;9;0;1.0145160999963991;720.9942222999962;None;;;;;;;;5;;;;;;;722.5441181999922;None;None;None;[];722.5441181999922;None;"['9', '7', '9']";"[1.3528436000051443, 1.7929610999999568, 2.3447375999967335]";722.5441181999922;None;;;S10756;2021_Jul_15_1738;VideoMask;2021.1.2;120.8311734680134;
6.0;m;016_y_m_h_a.jpg;happy;9.0;happy_9.2ns.avi;happy;9.0;congruent;140.0;150.0;136.52220806776708;;;;;0;53;53;53;;;;;;;725.5524537999881;None;726.9439507999923;727.2605994999903;728.4190145999892;728.4356501000002;734.3187856999866;None;9;0;0.4820066999964183;734.3187856999866;None;;;;;;;;7;;;;;;;735.8687522999971;None;None;None;[];735.8687522999971;None;"['9', '9', '9']";"[0.8120264999888605, 1.2919599999877391, 1.6040399999910733]";735.8687522999971;None;;;S10756;2021_Jul_15_1738;VideoMask;2021.1.2;120.8311734680134;
9.0;f;019_m_f_h_a.jpg;happy;9.0;happy_10.1ns.avi;happy;9.0;congruent;140.0;150.0;180.35091595488527;;;;;0;54;54;54;;;;;;;738.8687824999943;None;740.6186483999918;740.9351971999859;742.0935838999867;742.1102011999901;749.5101093999983;None;8;0;0.39466550000361167;749.5101093999983;None;;;;;;;;5;;;;;;;751.059735399991;None;None;None;[];751.059735399991;None;None;;751.059735399991;None;;;S10756;2021_Jul_15_1738;VideoMask;2021.1.2;120.8311734680134;
8.0;f;028_y_f_s_a.jpg;sad;7.0;happy_122.3.wmv;happy;9.0;incongruent;130.0;150.0;204.27932588393085;;;;;0;55;55;55;;;;;;;754.0847629999917;None;756.0179856999894;756.3351305999968;757.4678940999875;757.4845781999902;759.4763770999998;None;9;0;0.5962332999915816;759.4763770999998;None;;;;;;;;7;;;;;;;761.0264406999922;None;None;None;[];761.0264406999922;None;"['9', '9']";"[0.6622113999910653, 1.2222450999979628]";761.0264406999922;None;;;S10756;2021_Jul_15_1738;VideoMask;2021.1.2;120.8311734680134;
3.0;m;013_y_m_s_a.jpg;sad;7.0;sad_7.7ns.avi;sad;7.0;congruent;130.0;160.0;192.40728800739942;;;;;0;56;56;56;;;;;;;764.0262434999895;None;765.8509327999927;766.1677957999927;767.3511854999961;767.3677909999969;773.3015338999976;None;7;0;0.7791922999895178;773.3015338999976;None;;;;;;;;3;;;;;;;774.8509008999972;None;None;None;[];774.8509008999972;None;"['7', '7']";"[0.3658426999900257, 0.8618620999914128]";774.8509008999972;None;;;S10756;2021_Jul_15_1738;VideoMask;2021.1.2;120.8311734680134;
3.0;m;013_y_m_h_a.jpg;happy;9.0;sad_113.2.wmv;sad;7.0;incongruent;120.0;160.0;219.6544115751568;;;;;0;57;57;57;;;;;;;777.8591375999968;None;779.9256109999988;780.2423226999963;781.3761146999896;781.4006960999977;783.3758314999868;None;7;0;0.9208339000033448;783.3758314999868;None;;;;;;;;4;;;;;;;784.9256001999893;None;None;None;[];784.9256001999893;None;['7'];[1.3388626999949338];784.9256001999893;None;;;S10756;2021_Jul_15_1738;VideoMask;2021.1.2;120.8311734680134;
4.0;m;004_o_m_h_a.jpg;happy;9.0;happy_25.1ns.avi;happy;9.0;congruent;140.0;150.0;237.98255695511958;;;;;0;58;58;58;;;;;;;787.9339951999864;None;790.1335905999877;790.4503451999917;791.6420445999975;791.6593950999959;795.2753371999861;None;9;0;0.5255657999950927;795.2753371999861;None;;;;;;;;7;;;;;;;796.8251988999982;None;None;None;[];796.8251988999982;None;"['9', '9']";"[0.3995819000119809, 0.6873044000094524]";796.8251988999982;None;;;S10756;2021_Jul_15_1738;VideoMask;2021.1.2;120.8311734680134;
0.0;f;030_o_f_h_a.jpg;happy;9.0;sad_127.1.wmv;sad;7.0;incongruent;120.0;160.0;231.85538291836468;;;;;0;59;59;59;;;;;;;799.8253544999898;None;801.9748347999994;802.2916494999954;803.4167252999905;803.4347852999927;805.4250085999956;None;None;0;;805.4250085999956;None;;;;;;;;4;;;;;;;806.9747384999937;None;None;None;[];806.9747384999937;None;"['7', '9', '9', '7']";"[0.05787879999843426, 0.7778115999972215, 1.2101333999889903, 1.529722999999649]";806.9747384999937;None;;;S10756;2021_Jul_15_1738;VideoMask;2021.1.2;120.8311734680134;
;;;;;;;;;;;;;;;;;;;;;;;;;;;;;;;;;;;;;;;;;;;;;;;;;;;;;;;;;;;;;;;;809.9748666999949;None;;;;;;
