primePerson;primeGender;prime;primeEmotion;corrAnsPrime;target;targetEmotion;corrAnsTar;Cond;ID_Primer;ID_Target;JitterTime;Condition;example.thisRepN;example.thisTrialN;example.thisN;example.thisIndex;study.thisRepN;study.thisTrialN;study.thisN;study.thisIndex;MR_trigger_time;MR_trigger_number;text_intro.started;text_intro.stopped;text_probe.started;text_probe.stopped;polygon_ISI.started;polygon_ISI.stopped;polygon.started;polygon.stopped;primerImage.started;primerImage.stopped;response.started;response.stopped;key_resp.keys;key_resp.corr;key_resp.rt;key_resp.started;key_resp.stopped;slider_Text.started;slider_Text.stopped;slider_ex.response;slider_ex.rt;slider_ex.history;slider_ex.started;slider_ex.stopped;Rating;slider_resp_response.keys;slider_resp_response.started;slider_resp_response.stopped;slider_resp_response.rt;text_start.started;text_start.stopped;text_slider.started;text_slider.stopped;slider_stud.response;slider_stud.rt;slider_stud.history;slider_stud.started;slider_stud.stopped;slider_resp_study.keys;slider_resp_study.rt;slider_resp_study.started;slider_resp_study.stopped;text_ende.started;text_ende.stopped;participant;date;expName;psychopyVersion;frameRate;
1111;m;1111_m_m_h_a.jpg;happy;9;example_30.4ns.avi;neutral;7;incongruent;120.0;170.0;189.5874364012288;;0;0;0;0;;;;;31.788709800006473;1;31.867266600005678;33.86756779999996;33.86756779999996;None;35.884679200011306;None;38.108799300011015;38.44226239999989;39.617175100007444;39.6339033000113;43.90044090000447;None;9;0;1.2850709000049392;43.90044090000447;None;45.45880130000296;None;None;None;[];45.45880130000296;None;5;None;45.45880130000296;None;;;;;;;;;;;;;;;;;S11267;2022_Mar_08_1123;VideoMask;2021.1.2;120.02266029711339;
1113;f;1113_y_f_s_a.jpg;sad;7;example_30.3ns.avi;neutral;7;incongruent;130.0;170.0;229.02432995836998;;0;1;1;1;;;;;;;;;;;48.47533210000256;None;50.58342960001028;50.900157600000966;52.083475400009775;52.10018240001227;54.04184250000981;None;None;0;;54.04184250000981;None;55.591826200005016;None;None;None;[];55.591826200005016;None;5;"['7', '9']";55.591826200005016;None;"[0.15373760000511538, 2.7218339999963064]";;;;;;;;;;;;;;;;S11267;2022_Mar_08_1123;VideoMask;2021.1.2;120.02266029711339;
9.0;f;019_m_f_h_a.jpg;happy;9.0;sad_115.1.wmv;sad;7.0;incongruent;120.0;160.0;128.09063432376465;h_s;;;;;0;0;0;0;;;;;;;59.624888300008024;None;60.89967060000345;61.216428900006576;62.34975180000765;62.36653970000043;64.34979079999903;None;None;0;;64.34979079999903;None;;;;;;;;4;;;;;58.591640200000256;None;65.89975840000261;None;None;None;[];65.89975840000261;None;"['7', '7']";"[0.30185410000558477, 2.0939441999944393]";65.89975840000261;None;;;S11267;2022_Mar_08_1123;VideoMask;2021.1.2;120.02266029711339;
3.0;m;033_o_m_s_a.jpg;sad;7.0;sad_94.2ns.avi;sad;7.0;congruent;130.0;160.0;182.29120173647655;s_s;;;;;0;1;1;1;;;;;;;68.89965450001182;None;70.61613510000461;70.93281650000426;72.06624890000967;72.08285170000454;74.75783180000144;None;None;0;;74.75783180000144;None;;;;;;;;5;;;;;;;76.30784970000968;None;None;None;[];76.30784970000968;None;['7'];[2.269870499992976];76.30784970000968;None;;;S11267;2022_Mar_08_1123;VideoMask;2021.1.2;120.02266029711339;
8.0;m;008_y_m_h_a.jpg;happy;9.0;happy_26.1ns.avi;happy;9.0;congruent;120.0;150.0;155.9437854594882;h_h;;;;;0;2;2;2;;;;;;;79.31598460000532;None;80.82414060000156;81.14074650000839;82.2741248000093;82.29090210000868;84.26587410000502;None;9;0;0.9597027999989223;84.26587410000502;None;;;;;;;;6;;;;;;;85.8158170000097;None;None;None;[];85.8158170000097;None;['9'];[0.9214810999983456];85.8158170000097;None;;;S11267;2022_Mar_08_1123;VideoMask;2021.1.2;120.02266029711339;
0.0;f;040_y_f_h_a.jpg;happy;9.0;sad_138.1.wmv;sad;7.0;incongruent;120.0;160.0;133.99071306426532;h_s;;;;;0;3;3;3;;;;;;;88.8157879000064;None;90.14050760000828;90.45731310000701;91.59058530000038;91.60727430001134;93.59059300000081;None;None;0;;93.59059300000081;None;;;;;;;;4;;;;;;;95.14030440000352;None;None;None;[];95.14030440000352;None;['7'];[0.24535859999014065];95.14030440000352;None;;;S11267;2022_Mar_08_1123;VideoMask;2021.1.2;120.02266029711339;
8.0;f;028_y_f_s_a.jpg;sad;7.0;sad_64.2ns.avi;sad;7.0;congruent;130.0;160.0;229.88540597086478;s_s;;;;;0;4;4;4;;;;;;;98.14044699999795;None;100.28177200000209;100.59859280000092;101.74866610000026;101.76528060001147;112.74829690001206;None;7;0;0.46120459999656305;112.74829690001206;None;;;;;;;;4;;;;;;;114.29825469999923;None;None;None;[];114.29825469999923;None;"['7', '7']";"[0.49537119999877177, 1.1272234000061871]";114.29825469999923;None;;;S11267;2022_Mar_08_1123;VideoMask;2021.1.2;120.02266029711339;
7.0;m;027_o_m_s_a.jpg;sad;7.0;sad_10.4ns.avi;sad;7.0;congruent;130.0;160.0;185.20129417468752;s_s;;;;;0;5;5;5;;;;;;;117.29823790000228;None;119.0396502000076;119.35618300001079;120.50635979999788;120.52298610001162;123.65629450000415;None;None;0;;123.65629450000415;None;;;;;;;;4;;;;;;;125.20603980000305;None;None;None;[];125.20603980000305;None;['7'];[1.9955052000004798];125.20603980000305;None;;;S11267;2022_Mar_08_1123;VideoMask;2021.1.2;120.02266029711339;
2.0;f;012_o_f_s_a.jpg;sad;7.0;sad_7.5ns.avi;sad;7.0;congruent;130.0;160.0;220.27842655424388;s_s;;;;;0;6;6;6;;;;;;;128.20627540000714;None;130.2392361000093;130.55598410000675;131.73938660000567;131.75608459999785;134.48110309999902;None;7;0;0.4647619000024861;134.48110309999902;None;;;;;;;;4;;;;;;;136.0474957000115;None;None;None;[];136.0474957000115;None;['7'];[0.5060280999896349];136.0474957000115;None;;;S11267;2022_Mar_08_1123;VideoMask;2021.1.2;120.02266029711339;
2.0;f;012_o_f_h_a.jpg;happy;9.0;happy_27.1ns.avi;happy;9.0;congruent;120.0;150.0;146.44967055810616;h_h;;;;;0;7;7;7;;;;;;;139.04755000000296;None;140.45549100000062;140.77231369999936;141.93953540000075;141.96399800000654;144.3972730000096;None;9;0;0.5483018000086304;144.3972730000096;None;;;;;;;;7;;;;;;;145.94725350000954;None;None;None;[];145.94725350000954;None;"['9', '9']";"[0.4383856999920681, 2.4544049999967683]";145.94725350000954;None;;;S11267;2022_Mar_08_1123;VideoMask;2021.1.2;120.02266029711339;
8.0;f;028_y_f_h_a.jpg;happy;9.0;sad_119.1.wmv;sad;7.0;incongruent;120.0;160.0;148.71526953572538;h_s;;;;;0;8;8;8;;;;;;;148.94719180000538;None;150.39698340000177;150.7136237000086;151.84753009999986;151.8720805000048;153.91357670001162;None;7;0;0.49614580000343267;153.91357670001162;None;;;;;;;;3;;;;;;;155.46357930000522;None;None;None;[];155.46357930000522;None;"['7', '7']";"[0.8100279000063892, 1.22586279999814]";155.46357930000522;None;;;S11267;2022_Mar_08_1123;VideoMask;2021.1.2;120.02266029711339;
6.0;m;016_y_m_s_a.jpg;sad;7.0;happy_60.4ns.avi;happy;9.0;incongruent;130.0;150.0;126.02367393611817;s_h;;;;;0;9;9;9;;;;;;;158.4718397000106;None;159.72990330000175;160.04668320000928;161.2133606999996;161.22992030000023;166.97156020000693;None;9;0;0.5498902000108501;166.97156020000693;None;;;;;;;;7;;;;;;;168.67151610000292;None;None;None;[];168.67151610000292;None;"['9', '9']";"[0.6101610000041546, 0.9061003999959212]";168.67151610000292;None;;;S11267;2022_Mar_08_1123;VideoMask;2021.1.2;120.02266029711339;
9.0;f;019_m_f_s_a.jpg;sad;7.0;sad_8.4ns.avi;sad;7.0;congruent;130.0;160.0;171.6633093155257;s_s;;;;;0;10;10;10;;;;;;;171.671471499998;None;173.32962180000322;173.64625250000972;174.788014500009;174.8047421000083;182.9128536000062;None;None;0;;182.9128536000062;None;;;;;;;;5;;;;;;;184.4625071000046;None;None;None;[];184.4625071000046;None;['7'];[1.6269545999966795];184.4625071000046;None;;;S11267;2022_Mar_08_1123;VideoMask;2021.1.2;120.02266029711339;
4.0;m;004_o_m_h_a.jpg;happy;9.0;happy_1.1ns.avi;happy;9.0;congruent;120.0;150.0;203.50057144619865;h_h;;;;;0;11;11;11;;;;;;;187.46263320000435;None;189.44566620000114;189.76246199999878;190.91249470000912;190.929209000009;205.3787117000029;None;9;0;0.6146747000020696;205.3787117000029;None;;;;;;;;5;;;;;;;206.92031820000557;None;None;None;[];206.92031820000557;None;None;;206.92031820000557;None;;;S11267;2022_Mar_08_1123;VideoMask;2021.1.2;120.02266029711339;
7.0;m;027_o_m_h_a.jpg;happy;9.0;happy_20.1ns.avi;happy;9.0;congruent;120.0;150.0;152.91127178874285;h_h;;;;;0;12;12;12;;;;;;;209.94508320000023;None;211.44508140000107;211.761685400008;212.87868960000924;212.89563310000813;215.91184010000143;None;9;0;0.4978855000081239;215.91184010000143;None;;;;;;;;7;;;;;;;217.46165910000855;None;None;None;[];217.46165910000855;None;"['9', '9', '9']";"[0.3557777999958489, 0.6356319000042276, 1.036080200006836]";217.46165910000855;None;;;S11267;2022_Mar_08_1123;VideoMask;2021.1.2;120.02266029711339;
0.0;f;040_y_f_s_a.jpg;sad;7.0;sad_94.3ns.avi;sad;7.0;congruent;130.0;160.0;155.27414203894395;s_s;;;;;0;13;13;13;;;;;;;220.46989210000902;None;221.95325460001186;222.2698059000104;223.42792990000453;223.44465770000534;226.02814170000784;None;None;0;;226.02814170000784;None;;;;;;;;5;;;;;;;227.57800910000515;None;None;None;[];227.57800910000515;None;None;;227.57800910000515;None;;;S11267;2022_Mar_08_1123;VideoMask;2021.1.2;120.02266029711339;
0.0;f;030_o_f_s_a.jpg;sad;7.0;sad_68.1ns.avi;sad;7.0;congruent;130.0;160.0;158.9411396037211;s_s;;;;;0;14;14;14;;;;;;;230.59455470000103;None;232.13600600000063;232.4527919000102;233.66094359999988;233.67783380000037;241.01098320000165;None;7;0;0.5824464000033913;241.01098320000165;None;;;;;;;;4;;;;;;;242.56921560000046;None;None;None;[];242.56921560000046;None;['7'];[0.3842947999946773];242.56921560000046;None;;;S11267;2022_Mar_08_1123;VideoMask;2021.1.2;120.02266029711339;
0.0;f;030_o_f_h_a.jpg;happy;9.0;sad_127.1.wmv;sad;7.0;incongruent;120.0;160.0;180.59976631384873;h_s;;;;;0;15;15;15;;;;;;;245.56922530000156;None;247.27722509999876;247.59398990000773;248.71909230000165;248.73576480000338;250.72731290000957;None;7;0;1.1299756999942474;250.72731290000957;None;;;;;;;;4;;;;;;;252.27717590000248;None;None;None;[];252.27717590000248;None;['7'];[0.42831920000026];252.27717590000248;None;;;S11267;2022_Mar_08_1123;VideoMask;2021.1.2;120.02266029711339;
8.0;m;008_y_m_s_a.jpg;sad;7.0;happy_133.3.wmv;happy;9.0;incongruent;130.0;150.0;152.577966552593;s_h;;;;;0;16;16;16;;;;;;;255.27723530000367;None;256.7602842000051;257.07709380000597;258.2020107999997;258.2187283000094;260.2102964000078;None;9;0;0.5992242000065744;260.2102964000078;None;;;;;;;;6;;;;;;;261.76027630000317;None;None;None;[];261.76027630000317;None;"['9', '9']";"[0.7773358999984339, 1.529129800008377]";261.76027630000317;None;;;S11267;2022_Mar_08_1123;VideoMask;2021.1.2;120.02266029711339;
3.0;m;033_o_m_h_a.jpg;happy;9.0;sad_128.1.wmv;sad;7.0;incongruent;120.0;160.0;171.0492454518585;h_s;;;;;0;17;17;17;;;;;;;264.76018280000426;None;266.40168550000817;266.7183483000117;267.8683979000052;267.88510990000213;269.85169890000543;None;7;0;1.0936258000001544;269.85169890000543;None;;;;;;;;5;;;;;;;271.4015736000001;None;None;None;[];271.4015736000001;None;None;;271.4015736000001;None;;;S11267;2022_Mar_08_1123;VideoMask;2021.1.2;120.02266029711339;
1.0;f;021_o_f_h_a.jpg;happy;9.0;sad_116.1.wmv;sad;7.0;incongruent;120.0;160.0;184.06847610053055;h_s;;;;;0;18;18;18;;;;;;;274.42659830000775;None;276.17641490000824;276.493080500004;277.65982130001066;277.6765737000096;279.62634210000397;None;7;0;0.6472992000053637;279.62634210000397;None;;;;;;;;3;;;;;;;281.176335000011;None;None;None;[];281.176335000011;None;"['7', '7']";"[0.33719409999321215, 0.6492195000028005]";281.176335000011;None;;;S11267;2022_Mar_08_1123;VideoMask;2021.1.2;120.02266029711339;
4.0;m;004_o_m_s_a.jpg;sad;7.0;happy_28.1ns.avi;happy;9.0;incongruent;130.0;150.0;157.40741103039684;s_h;;;;;0;19;19;19;;;;;;;284.1763016000041;None;285.6927379999979;286.00951060000807;287.2008532000036;287.2176546999981;291.5343614000012;None;9;0;0.42701740001211874;291.5343614000012;None;;;;;;;;7;;;;;;;293.0926039000042;None;None;None;[];293.0926039000042;None;"['9', '9', '9']";"[0.28479250000964385, 0.6369816000078572, 0.9727505000046222]";293.0926039000042;None;;;S11267;2022_Mar_08_1123;VideoMask;2021.1.2;120.02266029711339;
8.0;f;028_y_f_s_a.jpg;sad;7.0;happy_122.3.wmv;happy;9.0;incongruent;130.0;150.0;171.8670540936116;s_h;;;;;0;20;20;20;;;;;;;296.1097637000057;None;297.7507125999982;298.0674294000055;299.20078150001063;299.2174536000093;301.20072040001105;None;9;0;0.44888820000051055;301.20072040001105;None;;;;;;;;7;;;;;;;302.7506896999985;None;None;None;[];302.7506896999985;None;"['9', '9']";"[0.2908883999916725, 0.5785644999996293]";302.7506896999985;None;;;S11267;2022_Mar_08_1123;VideoMask;2021.1.2;120.02266029711339;
8.0;m;008_y_m_s_a.jpg;sad;7.0;sad_6.5ns.avi;sad;7.0;congruent;130.0;160.0;170.39333839271438;s_s;;;;;0;21;21;21;;;;;;;305.7507328000065;None;307.3839234000043;307.7004122000071;308.8919853999978;308.9086653000122;313.8335749000107;None;7;0;0.5437697999877855;313.8335749000107;None;;;;;;;;4;;;;;;;315.38351250000414;None;None;None;[];315.38351250000414;None;['7'];[1.642325200009509];315.38351250000414;None;;;S11267;2022_Mar_08_1123;VideoMask;2021.1.2;120.02266029711339;
8.0;f;028_y_f_h_a.jpg;happy;9.0;happy_23.1ns.avi;happy;9.0;congruent;120.0;150.0;225.70986890587952;h_h;;;;;0;22;22;22;;;;;;;318.39194100000896;None;320.47497690000455;320.7916702000075;321.974853000007;321.9917010000063;326.50006270001177;None;9;0;0.5813888999982737;326.50006270001177;None;;;;;;;;7;;;;;;;328.04985170000873;None;None;None;[];328.04985170000873;None;"['9', '9']";"[0.3118033000064315, 0.6077930000028573]";328.04985170000873;None;;;S11267;2022_Mar_08_1123;VideoMask;2021.1.2;120.02266029711339;
8.0;m;008_y_m_h_a.jpg;happy;9.0;sad_111.1.wmv;sad;7.0;incongruent;120.0;160.0;152.63076835312847;h_s;;;;;0;23;23;23;;;;;;;331.0581729000114;None;332.5330079000123;332.84964910001145;333.983401400008;334.0080472000118;335.9828961000021;None;7;0;0.8985245999938343;335.9828961000021;None;;;;;;;;5;;;;;;;337.53284780000104;None;None;None;[];337.53284780000104;None;None;;337.53284780000104;None;;;S11267;2022_Mar_08_1123;VideoMask;2021.1.2;120.02266029711339;
0.0;f;040_y_f_s_a.jpg;sad;7.0;sad_67.2ns.avi;sad;7.0;congruent;130.0;160.0;220.9892697323079;s_s;;;;;0;24;24;24;;;;;;;340.5578252000123;None;342.61605000001146;342.94131480000215;344.0827577000018;344.0993914999999;353.29075240000384;None;7;0;0.44699160000891425;353.29075240000384;None;;;;;;;;4;;;;;;;354.8406901999988;None;None;None;[];354.8406901999988;None;['7'];[0.2889560000039637];354.8406901999988;None;;;S11267;2022_Mar_08_1123;VideoMask;2021.1.2;120.02266029711339;
8.0;m;008_y_m_s_a.jpg;sad;7.0;happy_29.1ns.avi;happy;9.0;incongruent;130.0;150.0;120.0316142834122;s_h;;;;;0;25;25;25;;;;;;;357.84061280000606;None;359.04044680000516;359.35721800000465;360.4905926000065;360.5072038000071;363.1821108000004;None;8;0;1.2112625999870943;363.1821108000004;None;;;;;;;;6;;;;;;;364.72370230000524;None;None;None;[];364.72370230000524;None;['9'];[1.0696460999897681];364.72370230000524;None;;;S11267;2022_Mar_08_1123;VideoMask;2021.1.2;120.02266029711339;
6.0;m;016_y_m_s_a.jpg;sad;7.0;sad_8.3ns.avi;sad;7.0;congruent;130.0;160.0;152.85371098242734;s_s;;;;;0;26;26;26;;;;;;;367.723808499999;None;369.2152214000089;369.5318929000059;370.68183630000567;370.69859810000344;378.4232717999985;None;None;0;;378.4232717999985;None;;;;;;;;5;;;;;;;379.97308820000035;None;None;None;[];379.97308820000035;None;None;;379.97308820000035;None;;;S11267;2022_Mar_08_1123;VideoMask;2021.1.2;120.02266029711339;
6.0;m;016_y_m_h_a.jpg;happy;9.0;sad_114.1.wmv;sad;7.0;incongruent;120.0;160.0;136.20550699298644;h_s;;;;;0;27;27;27;;;;;;;383.0065285000019;None;384.36469100000977;384.68136180000147;385.8062513000041;385.82291280000936;387.8146162000048;None;7;0;0.4349402999941958;387.8146162000048;None;;;;;;;;4;;;;;;;389.3645264000079;None;None;None;[];389.3645264000079;None;"['7', '7']";"[0.47683290000713896, 2.444717899998068]";389.3645264000079;None;;;S11267;2022_Mar_08_1123;VideoMask;2021.1.2;120.02266029711339;
7.0;m;027_o_m_s_a.jpg;sad;7.0;happy_117.3.wmv;happy;9.0;incongruent;130.0;150.0;215.61964028550614;s_h;;;;;0;28;28;28;;;;;;;392.36440330000187;None;394.364387499998;394.68105880000803;395.80613260000246;395.8227129000006;397.81437860000005;None;7;0;1.6189875999989454;397.81437860000005;None;;;;;;;;4;;;;;;;399.65597900000284;None;None;None;[];399.65597900000284;None;['7'];[1.4975362000113819];399.65597900000284;None;;;S11267;2022_Mar_08_1123;VideoMask;2021.1.2;120.02266029711339;
6.0;m;016_y_m_h_a.jpg;happy;9.0;happy_9.2ns.avi;happy;9.0;congruent;120.0;150.0;130.52042428082717;h_h;;;;;0;29;29;29;;;;;;;402.65599550001207;None;403.94732250001107;404.26412269999855;405.3975477000058;405.4141617999994;411.32224910000514;None;9;0;0.7351350000099046;411.32224910000514;None;;;;;;;;5;;;;;;;412.87221590000263;None;None;None;[];412.87221590000263;None;None;;412.87221590000263;None;;;S11267;2022_Mar_08_1123;VideoMask;2021.1.2;120.02266029711339;
0.0;f;040_y_f_s_a.jpg;sad;7.0;happy_127.3.wmv;happy;9.0;incongruent;130.0;150.0;131.7195455720239;s_h;;;;;0;30;30;30;;;;;;;415.88871640000434;None;417.18863710000005;417.5053789000085;418.6304506000015;418.6470840000111;420.70533660000365;None;9;0;0.47234220000973437;420.70533660000365;None;;;;;;;;6;;;;;;;422.2637007000012;None;None;None;[];422.2637007000012;None;['9'];[0.4097864999930607];422.2637007000012;None;;;S11267;2022_Mar_08_1123;VideoMask;2021.1.2;120.02266029711339;
0.0;f;030_o_f_s_a.jpg;sad;7.0;happy_125.3.wmv;happy;9.0;incongruent;130.0;150.0;220.51454909128134;s_h;;;;;0;31;31;31;;;;;;;425.2635009000078;None;427.31346610000764;427.63000100001227;428.76402300001064;428.78837020001083;430.76331170000776;None;8;0;1.318119100003969;430.76331170000776;None;;;;;;;;5;;;;;;;432.32994280000275;None;None;None;[];432.32994280000275;None;None;;432.32994280000275;None;;;S11267;2022_Mar_08_1123;VideoMask;2021.1.2;120.02266029711339;
0.0;f;030_o_f_s_a.jpg;sad;7.0;sad_64.3ns.avi;sad;7.0;congruent;130.0;160.0;165.78667874766072;s_s;;;;;0;32;32;32;;;;;;;435.3546931000019;None;436.946520700003;437.2630683000025;438.4297768000106;438.4464517000015;443.3962797999993;None;7;0;0.7011178000102518;443.3962797999993;None;;;;;;;;3;;;;;;;444.9627913000004;None;None;None;[];444.9627913000004;None;"['7', '7']";"[0.27865760000713635, 0.6308220000064466]";444.9627913000004;None;;;S11267;2022_Mar_08_1123;VideoMask;2021.1.2;120.02266029711339;
3.0;m;013_y_m_s_a.jpg;sad;7.0;sad_7.7ns.avi;sad;7.0;congruent;130.0;160.0;196.24182255763262;s_s;;;;;0;33;33;33;;;;;;;447.9627748000057;None;449.80428419999953;450.1209913000057;451.3208292000054;451.3374657000095;457.2708440999995;None;7;0;0.5704987999924924;457.2708440999995;None;;;;;;;;4;;;;;;;458.82079710000835;None;None;None;[];458.82079710000835;None;['7'];[1.1326617999875452];458.82079710000835;None;;;S11267;2022_Mar_08_1123;VideoMask;2021.1.2;120.02266029711339;
3.0;m;013_y_m_h_a.jpg;happy;9.0;happy_9.1ns.avi;happy;9.0;congruent;120.0;150.0;165.1890303600433;h_h;;;;;0;34;34;34;;;;;;;461.82057260000147;None;463.4037551000074;463.7205541000003;464.87894740000775;464.89552650001133;468.07882860000245;None;9;0;0.4345584999973653;468.07882860000245;None;;;;;;;;6;;;;;;;469.6287854000111;None;None;None;[];469.6287854000111;None;['9'];[0.716397300013341];469.6287854000111;None;;;S11267;2022_Mar_08_1123;VideoMask;2021.1.2;120.02266029711339;
4.0;m;004_o_m_h_a.jpg;happy;9.0;sad_95.1ns.avi;sad;7.0;incongruent;120.0;160.0;152.68270002069931;h_s;;;;;0;35;35;35;;;;;;;472.6287900000025;None;474.12871570000425;474.44517770000675;475.60352210000565;475.62023300000874;484.3700167000061;None;7;0;0.5353541999938898;484.3700167000061;None;;;;;;;;3;;;;;;;485.9782719000068;None;None;None;[];485.9782719000068;None;"['7', '7']";"[0.2870764999970561, 1.0233196999906795]";485.9782719000068;None;;;S11267;2022_Mar_08_1123;VideoMask;2021.1.2;120.02266029711339;
3.0;m;013_y_m_h_a.jpg;happy;9.0;sad_113.2.wmv;sad;7.0;incongruent;120.0;160.0;217.4973891947951;h_s;;;;;0;36;36;36;;;;;;;488.9783188000001;None;491.00298080001085;491.3196983000089;492.45282289999886;492.4697176000045;494.45301270000346;None;8;0;1.068412200009334;494.45301270000346;None;;;;;;;;5;;;;;;;496.00294289999874;None;None;None;[];496.00294289999874;None;None;;496.00294289999874;None;;;S11267;2022_Mar_08_1123;VideoMask;2021.1.2;120.02266029711339;
4.0;m;004_o_m_h_a.jpg;happy;9.0;happy_25.1ns.avi;happy;9.0;congruent;120.0;150.0;216.63044503818386;h_h;;;;;0;37;37;37;;;;;;;499.0359999000066;None;501.0443486000004;501.36111540001;502.5527207000123;502.5701008000033;506.18593630001124;None;9;0;0.44764100000611506;506.18593630001124;None;;;;;;;;6;;;;;;;507.7359282000107;None;None;None;[];507.7359282000107;None;['9'];[0.8736258999997517];507.7359282000107;None;;;S11267;2022_Mar_08_1123;VideoMask;2021.1.2;120.02266029711339;
4.0;m;004_o_m_s_a.jpg;sad;7.0;happy_131.2.wmv;happy;9.0;incongruent;130.0;150.0;181.38407540847405;s_h;;;;;0;38;38;38;;;;;;;510.73589260000153;None;512.45224340001;512.7691343000042;513.9022235000011;513.9188600000052;515.902290500002;None;9;0;0.3951156999974046;515.902290500002;None;;;;;;;;6;;;;;;;517.452240700004;None;None;None;[];517.452240700004;None;"['9', '9']";"[0.2853307000041241, 0.8771800999966217]";517.452240700004;None;;;S11267;2022_Mar_08_1123;VideoMask;2021.1.2;120.02266029711339;
0.0;f;040_y_f_h_a.jpg;happy;9.0;happy_24.3ns.avi;happy;9.0;congruent;120.0;150.0;213.25460698950434;h_h;;;;;0;39;39;39;;;;;;;520.4521405999985;None;522.4187349999993;522.7354525000119;523.8937422000017;523.911019200008;525.7935829000053;None;9;0;0.6237822000111919;525.7935829000053;None;;;;;;;;6;;;;;;;527.3436321000045;None;None;None;[];527.3436321000045;None;['9'];[0.457488200001535];527.3436321000045;None;;;S11267;2022_Mar_08_1123;VideoMask;2021.1.2;120.02266029711339;
2.0;f;012_o_f_s_a.jpg;sad;7.0;happy_139.1.wmv;happy;9.0;incongruent;130.0;150.0;162.31500468041804;s_h;;;;;0;40;40;40;;;;;;;530.34359460001;None;531.9016711000004;532.2184179000033;533.3517571999982;533.3682291000005;535.3517614000011;None;9;0;0.4814512000011746;535.3517614000011;None;;;;;;;;7;;;;;;;536.90166090001;None;None;None;[];536.90166090001;None;"['9', '9']";"[0.2914794999960577, 1.091661300000851]";536.90166090001;None;;;S11267;2022_Mar_08_1123;VideoMask;2021.1.2;120.02266029711339;
0.0;f;030_o_f_h_a.jpg;happy;9.0;happy_24.1ns.avi;happy;9.0;congruent;120.0;150.0;168.36256624020774;h_h;;;;;0;41;41;41;;;;;;;539.9015724000055;None;541.5099523000099;541.8262481999991;542.9688063000067;542.993509699998;546.2847390000097;None;9;0;0.5088282000069739;546.2847390000097;None;;;;;;;;6;;;;;;;547.8346392000094;None;None;None;[];547.8346392000094;None;['9'];[0.3587196999869775];547.8346392000094;None;;;S11267;2022_Mar_08_1123;VideoMask;2021.1.2;120.02266029711339;
2.0;f;012_o_f_h_a.jpg;happy;9.0;sad_113.1.wmv;sad;7.0;incongruent;120.0;160.0;177.44551734737394;h_s;;;;;0;42;42;42;;;;;;;550.8345870000048;None;552.5177684000082;552.8344452000019;553.9675600000046;553.9844096000015;555.9677521999984;None;7;0;0.865672200001427;555.9677521999984;None;;;;;;;;5;;;;;;;557.5177111000085;None;None;None;[];557.5177111000085;None;None;;557.5177111000085;None;;;S11267;2022_Mar_08_1123;VideoMask;2021.1.2;120.02266029711339;
3.0;m;033_o_m_s_a.jpg;sad;7.0;sad_64.5ns.avi;sad;7.0;congruent;130.0;160.0;130.55717223801247;s_s;;;;;0;43;43;43;;;;;;;560.5424469999998;None;561.8426010000112;562.1592141000001;563.2925217000011;563.309210899999;569.8756606000097;None;7;0;0.39769759999762755;569.8756606000097;None;;;;;;;;3;;;;;;;571.5422228000098;None;None;None;[];571.5422228000098;None;"['7', '7']";"[0.5072098999953596, 0.8029002999974182]";571.5422228000098;None;;;S11267;2022_Mar_08_1123;VideoMask;2021.1.2;120.02266029711339;
7.0;m;027_o_m_h_a.jpg;happy;9.0;sad_117.1.wmv;sad;7.0;incongruent;120.0;160.0;181.28665202824095;h_s;;;;;0;44;44;44;;;;;;;574.5505149000091;None;576.2754862000002;576.5918855000054;577.7254220000032;577.7420689999999;579.7254709000117;None;8;0;0.8998983999917982;579.7254709000117;None;;;;;;;;5;;;;;;;581.2753139999986;None;None;None;[];581.2753139999986;None;None;;581.2753139999986;None;;;S11267;2022_Mar_08_1123;VideoMask;2021.1.2;120.02266029711339;
3.0;m;033_o_m_s_a.jpg;sad;7.0;happy_126.3.wmv;happy;9.0;incongruent;130.0;150.0;198.85252030535366;s_h;;;;;0;45;45;45;;;;;;;584.2917461000034;None;586.1499643999996;586.4667219000112;587.599859000009;587.6165989000001;589.6083455000044;None;9;0;0.48115349998988677;589.6083455000044;None;;;;;;;;6;;;;;;;591.1583089000051;None;None;None;[];591.1583089000051;None;['9'];[0.2829418000037549];591.1583089000051;None;;;S11267;2022_Mar_08_1123;VideoMask;2021.1.2;120.02266029711339;
3.0;m;033_o_m_h_a.jpg;happy;9.0;sad_136.1.wmv;sad;7.0;incongruent;120.0;160.0;176.97002883463455;h_s;;;;;0;46;46;46;;;;;;;594.1583030000038;None;595.8329844000109;596.1497068000026;597.2748255000042;597.2913034000085;599.2830051000055;None;7;0;0.9423652999976184;599.2830051000055;None;;;;;;;;4;;;;;;;600.8330196000024;None;None;None;[];600.8330196000024;None;"['7', '7']";"[0.35247050000180025, 0.8006546000106027]";600.8330196000024;None;;;S11267;2022_Mar_08_1123;VideoMask;2021.1.2;120.02266029711339;
9.0;f;019_m_f_h_a.jpg;happy;9.0;happy_10.1ns.avi;happy;9.0;congruent;120.0;150.0;157.2463435658512;h_h;;;;;0;47;47;47;;;;;;;603.8412415000057;None;605.3660643000039;605.6828251000115;606.8078947000031;606.8244925000035;614.2576934000099;None;9;0;0.5837021000043023;614.2576934000099;None;;;;;;;;6;;;;;;;615.8075228000089;None;None;None;[];615.8075228000089;None;['9'];[0.4258492999942973];615.8075228000089;None;;;S11267;2022_Mar_08_1123;VideoMask;2021.1.2;120.02266029711339;
2.0;f;012_o_f_h_a.jpg;happy;9.0;happy_2.2ns.avi;happy;9.0;congruent;120.0;150.0;206.34800317295262;h_h;;;;;0;48;48;48;;;;;;;618.8158814000053;None;620.7740800000029;621.0905070000008;622.2406898000045;622.2572933000047;634.4319692999998;None;None;0;;634.4319692999998;None;;;;;;;;7;;;;;;;636.0402229000028;None;None;None;[];636.0402229000028;None;"['9', '9']";"[0.35317259999283124, 0.7692434000055073]";636.0402229000028;None;;;S11267;2022_Mar_08_1123;VideoMask;2021.1.2;120.02266029711339;
3.0;m;033_o_m_h_a.jpg;happy;9.0;happy_24.2ns.avi;happy;9.0;congruent;120.0;150.0;167.9423847659953;h_h;;;;;0;49;49;49;;;;;;;639.048620600006;None;640.6400345000002;640.9566753000108;642.090028999999;642.1067066000105;645.8232369000034;None;9;0;0.45018609998805914;645.8232369000034;None;;;;;;;;6;;;;;;;647.3732253000053;None;None;None;[];647.3732253000053;None;['9'];[0.39604059999692254];647.3732253000053;None;;;S11267;2022_Mar_08_1123;VideoMask;2021.1.2;120.02266029711339;
1.0;f;021_o_f_s_a.jpg;sad;7.0;happy_61.2ns.avi;happy;9.0;incongruent;130.0;150.0;210.94664004826666;s_h;;;;;0;50;50;50;;;;;;;650.3815321000002;None;652.3396002000081;652.6562146000069;653.7978146000096;653.8144594000041;658.3145374000014;None;9;0;0.28673110000090674;658.3145374000014;None;;;;;;;;6;;;;;;;659.8561634000071;None;None;None;[];659.8561634000071;None;['9'];[0.553258799991454];659.8561634000071;None;;;S11267;2022_Mar_08_1123;VideoMask;2021.1.2;120.02266029711339;
4.0;m;004_o_m_s_a.jpg;sad;7.0;sad_2.4ns.avi;sad;7.0;congruent;130.0;160.0;153.02079367163634;s_s;;;;;0;51;51;51;;;;;;;662.8560574000003;None;664.3644079000078;664.6809371999989;665.8391668000113;665.8557646000118;673.7725332000118;None;8;0;0.38086180000391323;673.7725332000118;None;;;;;;;;5;;;;;;;675.330670299998;None;None;None;[];675.330670299998;None;None;;675.330670299998;None;;;S11267;2022_Mar_08_1123;VideoMask;2021.1.2;120.02266029711339;
8.0;m;008_y_m_h_a.jpg;happy;9.0;happy_1.2ns.avi;happy;9.0;congruent;120.0;150.0;210.98946429383824;h_h;;;;;0;52;52;52;;;;;;;678.3556117999979;None;680.3469613000052;680.6637631000049;681.8138373000111;681.8304588000028;694.588379599998;None;9;0;0.33286099998804275;694.588379599998;None;;;;;;;;6;;;;;;;696.1383501000091;None;None;None;[];696.1383501000091;None;['9'];[0.3270632000057958];696.1383501000091;None;;;S11267;2022_Mar_08_1123;VideoMask;2021.1.2;120.02266029711339;
2.0;f;012_o_f_s_a.jpg;sad;7.0;happy_52.2ns.avi;happy;9.0;incongruent;130.0;150.0;172.57202848318138;s_h;;;;;0;53;53;53;;;;;;;699.1383462000085;None;700.7630340000032;701.0797273000062;702.2631375000055;702.2798004000069;705.7630922000099;None;9;0;0.23816149999038316;705.7630922000099;None;;;;;;;;5;;;;;;;707.3129415000003;None;None;None;[];707.3129415000003;None;None;;707.3129415000003;None;;;S11267;2022_Mar_08_1123;VideoMask;2021.1.2;120.02266029711339;
9.0;f;019_m_f_s_a.jpg;sad;7.0;happy_61.1ns.avi;happy;9.0;incongruent;130.0;150.0;181.3003220572762;s_h;;;;;0;54;54;54;;;;;;;710.3462785000011;None;712.0878962999996;712.4044186000101;713.5794812000095;713.5960463000083;720.9293102000083;None;9;0;0.3280018000077689;720.9293102000083;None;;;;;;;;6;;;;;;;722.4792310000048;None;None;None;[];722.4792310000048;None;"['9', '9']";"[0.5778445000032661, 1.1459376999991946]";722.4792310000048;None;;;S11267;2022_Mar_08_1123;VideoMask;2021.1.2;120.02266029711339;
0.0;f;030_o_f_h_a.jpg;happy;9.0;sad_133.1.wmv;sad;7.0;incongruent;120.0;160.0;198.86251500867985;h_s;;;;;0;55;55;55;;;;;;;725.4792338000116;None;727.3456292000046;727.6622849000123;728.7957124000095;728.8123269000062;730.7956243000081;None;7;0;0.48592430001008324;730.7956243000081;None;;;;;;;;4;;;;;;;732.8288749000058;None;None;None;[];732.8288749000058;None;['7'];[0.38035139998828527];732.8288749000058;None;;;S11267;2022_Mar_08_1123;VideoMask;2021.1.2;120.02266029711339;
0.0;f;040_y_f_h_a.jpg;happy;9.0;sad_128.2.wmv;sad;7.0;incongruent;120.0;160.0;206.10005857915363;h_s;;;;;0;56;56;56;;;;;;;735.8287606000085;None;737.7535797000019;738.070305900008;739.2036532000056;739.2203281000111;741.2035767000052;None;7;0;0.5416173999983585;741.2035767000052;None;;;;;;;;5;;;;;;;742.7535840000055;None;None;None;[];742.7535840000055;None;None;;742.7535840000055;None;;;S11267;2022_Mar_08_1123;VideoMask;2021.1.2;120.02266029711339;
1.0;f;021_o_f_s_a.jpg;sad;7.0;sad_9.5ns.avi;sad;7.0;congruent;130.0;160.0;206.16642757875042;s_s;;;;;0;57;57;57;;;;;;;745.7868262999982;None;747.7114888000069;748.028295199998;749.2037285000115;749.228414000012;754.8865249000082;None;7;0;0.4588794000010239;754.8865249000082;None;;;;;;;;3;;;;;;;756.4364392999996;None;None;None;[];756.4364392999996;None;"['7', '7', '7']";"[0.3650676000106614, 0.8847674999997253, 1.3095046000089496]";756.4364392999996;None;;;S11267;2022_Mar_08_1123;VideoMask;2021.1.2;120.02266029711339;
1.0;f;021_o_f_h_a.jpg;happy;9.0;happy_12.1ns.avi;happy;9.0;congruent;120.0;150.0;132.59080005900228;h_h;;;;;0;58;58;58;;;;;;;759.4447560999979;None;760.7696270000015;761.0862562000111;762.2109956000058;762.227884500011;769.8360565000039;None;9;0;1.2293075999914436;769.8360565000039;None;;;;;;;;7;;;;;;;771.3943346000015;None;None;None;[];771.3943346000015;None;"['9', '9']";"[0.47867219999898225, 0.9669893000100274]";771.3943346000015;None;;;S11267;2022_Mar_08_1123;VideoMask;2021.1.2;120.02266029711339;
3.0;m;013_y_m_s_a.jpg;sad;7.0;happy_56.2ns.avi;happy;9.0;incongruent;130.0;150.0;163.39234110935848;s_h;;;;;0;59;59;59;;;;;;;774.3860407000029;None;775.9441252000106;776.2606766000099;777.4273060999985;777.4439990000101;782.4191240000073;None;9;0;0.8380884999933187;782.4191240000073;None;;;;;;;;5;;;;;;;783.9689478000073;None;None;None;[];783.9689478000073;None;None;;783.9689478000073;None;;;S11267;2022_Mar_08_1123;VideoMask;2021.1.2;120.02266029711339;
;;;;;;;;;;;;;;;;;;;;;;;;;;;;;;;;;;;;;;;;;;;;;;;;;;;;;;;;;;;;;;;;;786.9938755000039;None;;;;;;
