primePerson	primeGender	prime	primeEmotion	corrAnsPrime	target	targetEmotion	corrAnsTar	Cond	ID_Primer	ID_Target	JitterTime	Condition	example.thisRepN	example.thisTrialN	example.thisN	example.thisIndex	study.thisRepN	study.thisTrialN	study.thisN	study.thisIndex	MR_trigger_time	MR_trigger_number	text_intro.started	text_intro.stopped	text_probe.started	text_probe.stopped	polygon_ISI.started	polygon_ISI.stopped	polygon.started	polygon.stopped	primerImage.started	primerImage.stopped		response.started	response.stopped	key_resp.keys	key_resp.corr	key_resp.started	key_resp.stopped	slider_Text.started	slider_Text.stopped	slider_ex.response	slider_ex.rt	slider_ex.history	slider_ex.started	slider_ex.stopped	Rating	slider_resp_response.keys	slider_resp_response.rt	slider_resp_response.started	slider_resp_response.stopped	key_resp.rt	text_start.started	text_start.stopped	text_slider.started	text_slider.stopped	slider_stud.response	slider_stud.rt	slider_stud.history	slider_stud.started	slider_stud.stopped	slider_resp_study.keys	slider_resp_study.rt	slider_resp_study.started	slider_resp_study.stopped	text_ende.started	text_ende.stopped	participant	date	expName	psychopyVersion	frameRate1111	m	1111_m_m_h_a.jpg	happy	9	example_30.4ns.avi	neutral	7	incongruent	120	170	189.5874364		0	0	0	0					25.5339406	1	25.6116975	27.6114428	27.6114428	None	29.6282986	None	31.803063	32.1196722	33.2448037	33.2614223	0.0166186	37.5947488	None	None	0	37.5947488	None	39.1444627	None	None	None	[]	39.1444627	None	7	['9', '9']	[2.3760673000942916, 2.7041422000620514]	39.1444627	None																	S10814	2021_Aug_10_1724	VideoMask	02.01.21	120.08593321113	f	1113_y_f_s_a.jpg	sad	7	example_30.3ns.avi	neutral	7	incongruent	130	170	229.02433		0	1	1	1											42.1446192	None	44.2610944	44.5778437	45.7447256	45.76103	0.0163044	47.7111383	None	9	0	47.7111383	None	49.2610723	None	None	None	[]	49.2610723	None	8	['9', '9', '9']	[0.3635244998149574, 0.5714069998357445, 0.7713364998344332]	49.2610723	None	0.7616343																S10814	2021_Aug_10_1724	VideoMask	02.01.21	120.08593323	m	033_o_m_s_a.jpg	sad	7	sad_94.2ns.avi	sad	7	congruent	130	160	220.5092851	s_s					0	0	0	0							53.3109898	None	55.3441072	55.6608112	56.8356251	56.8522815	0.0166564	59.4859045	None	7	0	59.4859045	None								3					0.7386996	52.2694728	None	61.044172	None	None	None	[]	61.044172	None	['7', '7', '7', '7', '9']	[0.3802469000220299, 0.6443900999147445, 1.0765351001173258, 1.436384700005874, 2.756403800100088]	61.044172	None			S10814	2021_Aug_10_1724	VideoMask	02.01.21	120.08593320	f	030_o_f_s_a.jpg	sad	7	sad_68.1ns.avi	sad	7	congruent	130	160	132.8985729	s_s					0	1	1	1							64.0356366	None	65.3693421	65.6857609	66.8522655	66.8689201	0.0166546	74.2437121	None	7	0	74.2437121	None								2					0.3808655			75.8186101	None	None	None	[]	75.8186101	None	['7', '7', '7']	[0.30992589984089136, 0.598004899919033, 1.150176899973303]	75.8186101	None			S10814	2021_Aug_10_1724	VideoMask	02.01.21	120.08593328	m	008_y_m_h_a.jpg	happy	9	happy_26.1ns.avi	happy	9	congruent	140	150	143.7633689	h_h					0	2	2	2							78.8187105	None	80.210249	80.5268888	81.7599145	81.7766038	0.0166893	83.6518251	None	9	0	83.6518251	None								9					0.7889924			85.2017278	None	None	None	[]	85.2017278	None	['9', '9', '9', '9', '9']	[0.4709050999954343, 0.7268653998617083, 0.9349255000706762, 1.1347797999624163, 1.5667675000149757]	85.2017278	None			S10814	2021_Aug_10_1724	VideoMask	02.01.21	120.08593321	f	021_o_f_s_a.jpg	sad	7	sad_9.5ns.avi	sad	7	congruent	130	160	236.8910099	s_s					0	3	3	3							88.2100534	None	90.3847861	90.7015094	91.8348383	91.851558	0.0167197	97.5598472	None	7	0	97.5598472	None								1					0.3532335			99.1430296	None	None	None	[]	99.1430296	None	['7', '7', '7', '7']	[0.3057067000772804, 0.5217051999643445, 0.7215269000735134, 0.9055743999779224]	99.1430296	None			S10814	2021_Aug_10_1724	VideoMask	02.01.21	120.08593322	f	012_o_f_s_a.jpg	sad	7	sad_7.5ns.avi	sad	7	congruent	130	160	136.3715645	s_s					0	4	4	4							102.142954	None	103.4676934	103.7844348	104.9512096	104.9678527	0.0166431	107.7097379	None	7	0	107.7097379	None								1					0.602947			109.3177845	None	None	None	[]	109.3177845	None	['7', '7', '7', '7']	[0.36282959999516606, 0.594780899817124, 0.7868064998183399, 0.9629967999644578]	109.3177845	None			S10814	2021_Aug_10_1724	VideoMask	02.01.21	120.08593320	f	040_y_f_s_a.jpg	sad	7	sad_67.2ns.avi	sad	7	congruent	130	160	200.0876613	s_s					0	5	5	5							112.325987	None	114.2175772	114.5341547	115.7423444	115.7592703	0.0169259	124.8923256	None	7	0	124.8923256	None								1					0.5563302			126.4422374	None	None	None	[]	126.4422374	None	['7', '7', '7', '7']	[0.2703021001070738, 0.478477300144732, 0.6945009001065046, 1.0543674000073224]	126.4422374	None			S10814	2021_Aug_10_1724	VideoMask	02.01.21	120.08593322	f	012_o_f_h_a.jpg	happy	9	happy_2.2ns.avi	happy	9	congruent	140	150	159.5261178	h_h					0	6	6	6							129.4504974	None	131.050282	131.3670979	132.5753053	132.5923543	0.017049	144.7002445	None	9	0	144.7002445	None								8					0.5405735			146.2582552	None	None	None	[]	146.2582552	None	['9', '9', '9']	[0.23844340001232922, 0.4543737000785768, 0.8224420000333339]	146.2582552	None			S10814	2021_Aug_10_1724	VideoMask	02.01.21	120.08593329	f	019_m_f_s_a.jpg	sad	7	sad_8.4ns.avi	sad	7	congruent	130	160	203.9234795	s_s					0	7	7	7							149.258374	None	151.1831907	151.5003401	152.6421363	152.6664962	0.0243599	160.7668982	None	7	0	160.7668982	None								4					0.5779253			162.3245489	None	None	None	[]	162.3245489	None	['7']	[0.6280723998788744]	162.3245489	None			S10814	2021_Aug_10_1724	VideoMask	02.01.21	120.08593328	m	008_y_m_s_a.jpg	sad	7	sad_6.5ns.avi	sad	7	congruent	130	160	182.8675044	s_s					0	8	8	8							165.3328852	None	167.0658793	167.3829192	168.5494629	168.5660108	0.0165479	173.516512	None	7	0	173.516512	None								2					0.6602493			175.2742067	None	None	None	[]	175.2742067	None	['7', '7', '7']	[0.2544850001577288, 0.4464539000764489, 1.4065026000607759]	175.2742067	None			S10814	2021_Aug_10_1724	VideoMask	02.01.21	120.08593321	f	021_o_f_h_a.jpg	happy	9	happy_12.1ns.avi	happy	9	congruent	140	150	233.3007736	h_h					0	9	9	9							178.2741869	None	180.4406292	180.7573509	181.9159719	181.9326898	0.0167179	189.5071525	None	9	0	189.5071525	None								8					0.4058453			191.1821103	None	None	None	[]	191.1821103	None	['9', '9', '9']	[0.2826119000092149, 0.8507979998830706, 2.8426534000318497]	191.1821103	None			S10814	2021_Aug_10_1724	VideoMask	02.01.21	120.08593328	f	028_y_f_s_a.jpg	sad	7	sad_64.2ns.avi	sad	7	congruent	130	160	179.3329474	s_s					0	10	10	10							194.1820198	None	195.9069646	196.2235425	197.398265	197.4153275	0.0170625	208.3567764	None	7	0	208.3567764	None								3					1.0919051			209.9065563	None	None	None	[]	209.9065563	None	['7', '7']	[0.49434580001980066, 1.2381809998769313]	209.9065563	None			S10814	2021_Aug_10_1724	VideoMask	02.01.21	120.08593323	m	033_o_m_s_a.jpg	sad	7	sad_64.5ns.avi	sad	7	congruent	130	160	122.5731995	s_s					0	11	11	11							212.9063933	None	214.1396485	214.4563472	215.5988198	215.6230453	0.0242255	222.1728681	None	7	0	222.1728681	None								1					0.6279185			223.7228639	None	None	None	[]	223.7228639	None	['7', '7', '7', '7', '7']	[0.3418656999710947, 0.5659493999555707, 0.766148499911651, 1.701852099969983, 2.3501313999295235]	223.7228639	None			S10814	2021_Aug_10_1724	VideoMask	02.01.21	120.08593328	m	008_y_m_h_a.jpg	happy	9	happy_1.2ns.avi	happy	9	congruent	140	150	136.0851269	h_h					0	12	12	12							226.7227453	None	228.097497	228.4142929	229.5977399	229.6144079	0.016668	242.3390941	None	9	0	242.3390941	None								8					0.3737456			243.888945	None	None	None	[]	243.888945	None	['9', '9', '9']	[0.25633520004339516, 0.4880280999932438, 1.9439632999710739]	243.888945	None			S10814	2021_Aug_10_1724	VideoMask	02.01.21	120.08593320	f	040_y_f_s_a.jpg	sad	7	sad_94.3ns.avi	sad	7	congruent	130	160	153.8530999	s_s					0	13	13	13							246.8890279	None	248.3555034	248.6720085	249.8388091	249.855365	0.0165559	252.43052	None	None	0	252.43052	None								3								253.9803506	None	None	None	[]	253.9803506	None	['7', '7']	[0.1965740998275578, 0.7404849999584258]	253.9803506	None			S10814	2021_Aug_10_1724	VideoMask	02.01.21	120.08593320	f	030_o_f_h_a.jpg	happy	9	happy_24.1ns.avi	happy	9	congruent	140	150	208.5777048	h_h					0	14	14	14							256.9886995	None	258.9389341	259.255145	260.4299384	260.4465926	0.0166542	263.7137268	None	9	0	263.7137268	None								7					1.1031211			265.2633416	None	None	None	[]	265.2633416	None	['9', '9']	[0.34566190000623465, 0.6175262001343071]	265.2633416	None			S10814	2021_Aug_10_1724	VideoMask	02.01.21	120.08593327	m	027_o_m_h_a.jpg	happy	9	happy_20.1ns.avi	happy	9	congruent	140	150	199.4062411	h_h					0	15	15	15							268.2717193	None	270.1295777	270.4463976	271.5798489	271.5964547	0.0166058	274.5964719	None	9	0	274.5964719	None								9					0.7403856			276.1463446	None	None	None	[]	276.1463446	None	['9', '9', '9', '9']	[0.27054739999584854, 0.47045010002329946, 0.6625181001145393, 0.8545244000852108]	276.1463446	None			S10814	2021_Aug_10_1724	VideoMask	02.01.21	120.08593324	m	004_o_m_s_a.jpg	sad	7	sad_2.4ns.avi	sad	7	congruent	130	160	144.2507179	s_s					0	16	16	16							279.1548025	None	280.571117	280.8877906	282.0877449	282.1045305	0.0167856	289.979433	None	7	0	289.979433	None								3					0.3814425			291.5292283	None	None	None	[]	291.5292283	None	['7', '7', '7']	[0.06370529998093843, 0.3035822999663651, 0.7436483998317271]	291.5292283	None			S10814	2021_Aug_10_1724	VideoMask	02.01.21	120.08593324	m	004_o_m_h_a.jpg	happy	9	happy_1.1ns.avi	happy	9	congruent	140	150	235.7124672	h_h					0	17	17	17							294.5292705	None	296.7456345	297.06239	298.2790747	298.2957382	0.0166635	312.678675	None	9	0	312.678675	None								7					0.9062657			314.3869493	None	None	None	[]	314.3869493	None	['9', '9']	[22.807981699937955, 0.6139859999530017]	314.3869493	None			S10814	2021_Aug_10_1724	VideoMask	02.01.21	120.08593322	f	012_o_f_h_a.jpg	happy	9	happy_27.1ns.avi	happy	9	congruent	140	150	230.4875036	h_h					0	18	18	18							317.3619719	None	319.4787472	319.7951372	321.0121818	321.0366097	0.0244279	323.420235	None	9	0	323.420235	None								8					1.4286679			324.9782332	None	None	None	[]	324.9782332	None	['9', '9', '9']	[0.6386957000941038, 1.0865048000123352, 1.3667260000947863]	324.9782332	None			S10814	2021_Aug_10_1724	VideoMask	02.01.21	120.08593328	f	028_y_f_h_a.jpg	happy	9	happy_23.1ns.avi	happy	9	congruent	140	150	180.6982356	h_h					0	19	19	19							327.9782964	None	329.6781111	329.9948337	331.1613008	331.1782838	0.016983	335.711394	None	9	0	335.711394	None								8					1.2336934			337.2863461	None	None	None	[]	337.2863461	None	['9', '9', '9']	[12.262818899936974, 0.17862320016138256, 1.330744800157845]	337.2863461	None			S10814	2021_Aug_10_1724	VideoMask	02.01.21	120.08593320	f	030_o_f_s_a.jpg	sad	7	sad_64.3ns.avi	sad	7	congruent	130	160	166.5307837	s_s					0	20	20	20							340.2695353	None	341.8693663	342.186078	343.3779935	343.3944771	0.0164836	348.319576	None	None	0	348.319576	None								4								349.8692013	None	None	None	[]	349.8692013	None	['7']	[0.33189100003801286]	349.8692013	None			S10814	2021_Aug_10_1724	VideoMask	02.01.21	120.08593326	m	016_y_m_s_a.jpg	sad	7	sad_8.3ns.avi	sad	7	congruent	130	160	175.8624312	s_s					0	21	21	21							352.8694122	None	354.5523469	354.8689768	356.0190796	356.0357608	0.0166812	363.7607142	None	None	0	363.7607142	None								5								365.4103632	None	None	None	[]	365.4103632	None	['7', '9', '9', '7']	[1.3425564002245665, 1.510721400147304, 1.686606900068, 2.078755300026387]	365.4103632	None			S10814	2021_Aug_10_1724	VideoMask	02.01.21	120.08593327	m	027_o_m_s_a.jpg	sad	7	sad_10.4ns.avi	sad	7	congruent	130	160	211.3083941	s_s					0	22	22	22							368.4104019	None	370.3685321	370.6852647	371.8103475	371.8270031	0.0166556	374.9853156	None	None	0	374.9853156	None								3								376.535018	None	None	None	[]	376.535018	None	['7', '7']	[0.7061740001663566, 2.0421205000020564]	376.535018	None			S10814	2021_Aug_10_1724	VideoMask	02.01.21	120.08593323	m	013_y_m_h_a.jpg	happy	9	happy_9.1ns.avi	happy	9	congruent	140	150	162.7022764	h_h					0	23	23	23							379.5352211	None	381.0932727	381.4101105	382.5433655	382.5600633	0.0166978	385.7687474	None	None	0	385.7687474	None								9								387.3186685	None	None	None	[]	387.3186685	None	['9', '9', '9', '9', '9']	[0.2107903000432998, 0.6424194001592696, 0.8343382000457495, 1.3383319000713527, 1.634438200155273]	387.3186685	None			S10814	2021_Aug_10_1724	VideoMask	02.01.21	120.08593320	f	040_y_f_h_a.jpg	happy	9	happy_24.3ns.avi	happy	9	congruent	140	150	214.1881909	h_h					0	24	24	24							390.3265042	None	392.3012262	392.6180494	393.8347435	393.851178	0.0164345	395.6763858	None	None	0	395.6763858	None								7								397.2264458	None	None	None	[]	397.2264458	None	['9', '9']	[0.15086370008066297, 0.35842820000834763]	397.2264458	None			S10814	2021_Aug_10_1724	VideoMask	02.01.21	120.08593323	m	033_o_m_h_a.jpg	happy	9	happy_24.2ns.avi	happy	9	congruent	140	150	160.7655086	h_h					0	25	25	25							400.2262128	None	401.7592808	402.0760858	403.2094662	403.2260622	0.016596	406.9343641	None	9	0	406.9343641	None								9					0.4026842			408.5092873	None	None	None	[]	408.5092873	None	['9', '9', '9', '9']	[0.14769450016319752, 0.3477053001988679, 0.5475591002032161, 1.8839788001496345]	408.5092873	None			S10814	2021_Aug_10_1724	VideoMask	02.01.21	120.08593326	m	016_y_m_h_a.jpg	happy	9	happy_9.2ns.avi	happy	9	congruent	140	150	185.4032223	h_h					0	26	26	26							411.5177172	None	413.2673022	413.584062	414.8176239	414.834166	0.0165421	420.6423811	None	9	0	420.6423811	None								9					0.3346749			422.2421152	None	None	None	[]	422.2421152	None	['9', '9', '9', '9']	[13.691976099973544, 0.2069914999883622, 0.3829474998638034, 0.7672309000045061]	422.2421152	None			S10814	2021_Aug_10_1724	VideoMask	02.01.21	120.08593329	f	019_m_f_h_a.jpg	happy	9	happy_10.1ns.avi	happy	9	congruent	140	150	142.287866	h_h					0	27	27	27							425.2255696	None	426.6336727	426.9503975	428.1004632	428.1170708	0.0166076	435.5251183	None	None	0	435.5251183	None								7								437.0752685	None	None	None	[]	437.0752685	None	['9', '9']	[0.6059497999958694, 0.805776699911803]	437.0752685	None			S10814	2021_Aug_10_1724	VideoMask	02.01.21	120.08593323	m	013_y_m_s_a.jpg	sad	7	sad_7.7ns.avi	sad	7	congruent	130	160	226.4398581	s_s					0	28	28	28							440.0834725	None	442.1914798	442.508312	443.6666637	443.6831959	0.0165322	449.6416423	None	7	0	449.6416423	None								1					0.5594835			451.1913884	None	None	None	[]	451.1913884	None	['7', '7', '7', '7']	[0.42572780000045896, 0.66608119988814, 0.8656623000279069, 1.0418116000946611]	451.1913884	None			S10814	2021_Aug_10_1724	VideoMask	02.01.21	120.08593324	m	004_o_m_h_a.jpg	happy	9	happy_25.1ns.avi	happy	9	congruent	140	150	150.8721017	h_h					0	29	29	29							454.1913303	None	455.6578611	455.9745779	457.1495663	457.1668334	0.0172671	460.7994181	None	None	0	460.7994181	None								7								462.349509	None	None	None	[]	462.349509	None	['9', '9']	[0.2596549999434501, 0.46747479983605444]	462.349509	None			S10814	2021_Aug_10_1724	VideoMask	02.01.21	120.08593320	f	030_o_f_s_a.jpg	sad	7	happy_125.3.wmv	happy	9	incongruent	130	150	227.8340469	s_h					0	30	30	30							465.3496879	None	467.4491756	467.7660124	468.8996183	468.916254	0.0166357	470.8992425	None	None	0	470.8992425	None								8								472.4491385	None	None	None	[]	472.4491385	None	['9', '9', '9']	[0.7841286000330001, 1.0640617001336068, 2.712040200131014]	472.4491385	None			S10814	2021_Aug_10_1724	VideoMask	02.01.21	120.08593324	m	004_o_m_s_a.jpg	sad	7	happy_28.1ns.avi	happy	9	incongruent	130	150	140.3061823	s_h					0	31	31	31							475.449192	None	476.8155153	477.1323085	478.265505	478.2827131	0.0172081	482.6572264	None	None	0	482.6572264	None								8								484.2072398	None	None	None	[]	484.2072398	None	['9', '9', '9', '9']	[0.23390519991517067, 0.4258481999859214, 0.6098992999177426, 1.0258770999498665]	484.2072398	None			S10814	2021_Aug_10_1724	VideoMask	02.01.21	120.08593322	f	012_o_f_s_a.jpg	sad	7	happy_52.2ns.avi	happy	9	incongruent	130	150	193.110778	s_h					0	32	32	32							487.207039	None	489.0235635	489.3403058	490.4984715	490.5151431	0.0166716	494.0236543	None	None	0	494.0236543	None								9								495.5650165	None	None	None	[]	495.5650165	None	['9', '9', '9', '9']	[0.2201410001143813, 0.8603362999856472, 1.068397399969399, 1.5402861000038683]	495.5650165	None			S10814	2021_Aug_10_1724	VideoMask	02.01.21	120.08593323	m	013_y_m_s_a.jpg	sad	7	happy_56.2ns.avi	happy	9	incongruent	130	150	199.7439438	s_h					0	33	33	33							498.5734435	None	500.4315179	500.7483321	501.8813667	501.8983506	0.0169839	506.9149034	None	None	0	506.9149034	None								5								508.4646715	None	None	None	[]	508.4646715	None	None		508.4646715	None			S10814	2021_Aug_10_1724	VideoMask	02.01.21	120.08593320	f	030_o_f_h_a.jpg	happy	9	sad_133.1.wmv	sad	7	incongruent	120	160	221.3565913	h_s					0	34	34	34							511.4980264	None	513.5561184	513.873027	515.0062988	515.0229893	0.0166905	517.0061874	None	7	0	517.0061874	None								2					0.7710255			518.8728972	None	None	None	[]	518.8728972	None	['7', '7', '7', '7', '7']	[0.09624109999276698, 0.32829660014249384, 0.5443397001363337, 0.78467410011217, 1.0483288001269102]	518.8728972	None			S10814	2021_Aug_10_1724	VideoMask	02.01.21	120.08593322	f	012_o_f_s_a.jpg	sad	7	happy_139.1.wmv	happy	9	incongruent	130	150	179.9141026	s_h					0	35	35	35							521.8727839	None	523.5730702	523.8894626	525.0225079	525.03936	0.0168521	527.0232832	None	None	0	527.0232832	None								7								528.5730008	None	None	None	[]	528.5730008	None	['9', '9', '9']	[0.22823720006272197, 0.452214099932462, 0.7001565999817103]	528.5730008	None			S10814	2021_Aug_10_1724	VideoMask	02.01.21	120.08593320	f	040_y_f_s_a.jpg	sad	7	happy_127.3.wmv	happy	9	incongruent	130	150	141.7462638	s_h					0	36	36	36							531.5724983	None	532.9556798	533.2722216	534.4057891	534.4224272	0.0166381	536.4725118	None	9	0	536.4725118	None								9					0.7367724			538.0723382	None	None	None	[]	538.0723382	None	['9', '9', '9', '9', '9']	[0.11272630002349615, 0.2968461001291871, 0.4568829000927508, 0.6410797999706119, 2.4570008001755923]	538.0723382	None			S10814	2021_Aug_10_1724	VideoMask	02.01.21	120.08593323	m	033_o_m_h_a.jpg	happy	9	sad_128.1.wmv	sad	7	incongruent	120	160	136.6637399	h_s					0	37	37	37							541.0722239	None	542.4138156	542.7304733	543.8555544	543.8721911	0.0166367	545.8637653	None	None	0	545.8637653	None								1								547.4387564	None	None	None	[]	547.4387564	None	['7', '7', '7', '7', '7', '7']	[0.25859260000288486, 0.4906736998818815, 0.7225518999621272, 1.2263817999046296, 1.5946545000188053, 1.9466557998675853]	547.4387564	None			S10814	2021_Aug_10_1724	VideoMask	02.01.21	120.08593329	f	019_m_f_h_a.jpg	happy	9	sad_115.1.wmv	sad	7	incongruent	120	160	191.1656382	h_s					0	38	38	38							550.4386703	None	552.255583	552.5718314	553.6969161	553.7134863	0.0165702	555.7053746	None	None	0	555.7053746	None								4								557.2465748	None	None	None	[]	557.2465748	None	['7']	[0.29852099996060133]	557.2465748	None			S10814	2021_Aug_10_1724	VideoMask	02.01.21	120.08593326	m	016_y_m_s_a.jpg	sad	7	happy_60.4ns.avi	happy	9	incongruent	130	150	156.8737554	s_h					0	39	39	39							560.2551305	None	561.771549	562.08826	563.2135398	563.2300268	0.016487	569.0132323	None	None	0	569.0132323	None								6								571.1047759	None	None	None	[]	571.1047759	None	['9']	[2.232457100180909]	571.1047759	None			S10814	2021_Aug_10_1724	VideoMask	02.01.21	120.08593328	m	008_y_m_s_a.jpg	sad	7	happy_133.3.wmv	happy	9	incongruent	130	150	230.660375	s_h					0	40	40	40							574.1047615	None	576.2628825	576.5794078	577.7127778	577.7295461	0.0167683	579.7129336	None	None	0	579.7129336	None								9								581.2543067	None	None	None	[]	581.2543067	None	['9', '9', '9', '9', '9']	[0.22680440009571612, 0.46712779998779297, 0.6428954999428242, 0.819043800001964, 1.1870196999516338]	581.2543067	None			S10814	2021_Aug_10_1724	VideoMask	02.01.21	120.08593321	f	021_o_f_s_a.jpg	sad	7	happy_61.2ns.avi	happy	9	incongruent	130	150	154.2855193	s_h					0	41	41	41							584.2627768	None	585.745842	586.0624945	587.2126507	587.2292096	0.0165589	591.7209206	None	None	0	591.7209206	None								6								593.2708275	None	None	None	[]	593.2708275	None	['9', '9', '9']	[0.21852750005200505, 0.59454600000754, 1.8825727000366896]	593.2708275	None			S10814	2021_Aug_10_1724	VideoMask	02.01.21	120.08593321	f	021_o_f_h_a.jpg	happy	9	sad_116.1.wmv	sad	7	incongruent	120	160	179.4514767	h_s					0	42	42	42							596.2790245	None	597.9872904	598.3041658	599.437354	599.4539244		601.4378743	None	None	0	601.4378743	None								3								602.9869902	None	None	None	[]	602.9869902	None	['7', '7']	[0.2383004000876099, 0.4144810999277979]	602.9869902	None			S10814	2021_Aug_10_1724	VideoMask	02.01.21	120.08593323	m	033_o_m_s_a.jpg	sad	7	happy_126.3.wmv	happy	9	incongruent	130	150	143.7828621	s_h					0	43	43	43							605.9955009	None	607.4037804	607.7202435	608.8535534	608.8703847		610.8620299	None	None	0	610.8620299	None								7								612.4122132	None	None	None	[]	612.4122132	None	['9', '9']	[0.3412216000724584, 0.5012328000739217]	612.4122132	None			S10814	2021_Aug_10_1724	VideoMask	02.01.21	120.08593328	m	008_y_m_h_a.jpg	happy	9	sad_111.1.wmv	sad	7	incongruent	120	160	235.8148452	h_s					0	44	44	44							615.4203231	None	617.5866927	617.9038596	619.0367522	619.0534123		621.0367843	None	None	0	621.0367843	None								2								622.6866634	None	None	None	[]	622.6866634	None	['7', '7', '7']	[0.2825635001063347, 0.46698380005545914, 0.6664641001261771]	622.6866634	None			S10814	2021_Aug_10_1724	VideoMask	02.01.21	120.08593324	m	004_o_m_s_a.jpg	sad	7	happy_131.2.wmv	happy	9	incongruent	130	150	133.7472449	s_h					0	45	45	45							625.6948738	None	627.0113815	627.3280842	628.4615409	628.4781844		630.4615415	None	9	0	630.4615415	None								8					1.1877265			632.0362111	None	None	None	[]	632.0362111	None	['9', '9', '9']	[9.306913900189102, 0.23716020002029836, 1.1652975999750197]	632.0362111	None			S10814	2021_Aug_10_1724	VideoMask	02.01.21	120.08593327	m	027_o_m_s_a.jpg	sad	7	happy_117.3.wmv	happy	9	incongruent	130	150	162.3255735	s_h					0	46	46	46							635.011265	None	636.5694159	636.8861538	638.0278744	638.0445198		640.019449	None	None	0	640.019449	None								7								641.5694269	None	None	None	[]	641.5694269	None	['9', '9', '9', '7']	[0.45605410006828606, 0.9280573001597077, 1.2479472002014518, 1.6240180002059788]	641.5694269	None			S10814	2021_Aug_10_1724	VideoMask	02.01.21	120.08593322	f	012_o_f_h_a.jpg	happy	9	sad_113.1.wmv	sad	7	incongruent	120	160	238.694387	h_s					0	47	47	47							644.5775745	None	646.7692149	647.0858544	648.2193547	648.2359057		650.2190468	None	None	0	650.2190468	None								2								651.7691791	None	None	None	[]	651.7691791	None	['7', '7', '7']	[0.24810480000451207, 0.4561167999636382, 0.6720457000192255]	651.7691791	None			S10814	2021_Aug_10_1724	VideoMask	02.01.21	120.08593326	m	016_y_m_h_a.jpg	happy	9	sad_114.1.wmv	sad	7	incongruent	120	160	235.5324763	h_s					0	48	48	48							654.769048	None	656.9354726	657.2522926	658.3856364	658.4021793		660.3856305	None	None	0	660.3856305	None								4								661.9357253	None	None	None	[]	661.9357253	None	['7']	[0.2017378001473844]	661.9357253	None			S10814	2021_Aug_10_1724	VideoMask	02.01.21	120.08593327	m	027_o_m_h_a.jpg	happy	9	sad_117.1.wmv	sad	7	incongruent	120	160	175.3534535	h_s					0	49	49	49							664.9354935	None	666.6102405	666.9269448	668.0602967	668.076994		670.0603915	None	None	0	670.0603915	None								2								671.610371	None	None	None	[]	671.610371	None	['7', '7', '7']	[0.9351316001266241, 1.199213100131601, 1.423337200190872]	671.610371	None			S10814	2021_Aug_10_1724	VideoMask	02.01.21	120.08593324	m	004_o_m_h_a.jpg	happy	9	sad_95.1ns.avi	sad	7	incongruent	120	160	160.6329868	h_s					0	50	50	50							674.6102766	None	676.1849159	676.5016948	677.7601331	677.7767986		686.4266581	None	7	0	686.4266581	None								3					1.1754879			688.1180702	None	None	None	[]	688.1180702	None	['7', '7']	[0.31546229985542595, 0.5953202000819147]	688.1180702	None			S10814	2021_Aug_10_1724	VideoMask	02.01.21	120.08593320	f	040_y_f_h_a.jpg	happy	9	sad_128.2.wmv	sad	7	incongruent	120	160	196.1668685	h_s					0	51	51	51							691.1264134	None	692.9678347	693.2845821	694.4349768	694.4594079		696.4179462	None	None	0	696.4179462	None								2								697.9678617	None	None	None	[]	697.9678617	None	['7', '7', '7']	[0.28161539998836815, 0.4895087000913918, 0.6976862999144942]	697.9678617	None			S10814	2021_Aug_10_1724	VideoMask	02.01.21	120.08593320	f	040_y_f_h_a.jpg	happy	9	sad_138.1.wmv	sad	7	incongruent	120	160	134.8193354	h_s					0	52	52	52							700.9678244	None	702.2925719	702.6091961	703.7343933	703.751031		705.7427236	None	None	0	705.7427236	None								4								707.2927256	None	None	None	[]	707.2927256	None	['7']	[0.18864409998059273]	707.2927256	None			S10814	2021_Aug_10_1724	VideoMask	02.01.21	120.08593328	m	008_y_m_s_a.jpg	sad	7	happy_29.1ns.avi	happy	9	incongruent	130	150	132.7912798	s_h					0	53	53	53							710.2924751	None	711.6006461	711.9174333	713.0838214	713.1007531		715.7423616	None	None	0	715.7423616	None								8								717.2925629	None	None	None	[]	717.2925629	None	['9', '9', '9', '9']	[0.7488706998992711, 0.9889676999300718, 1.2849065999034792, 1.7252408999484032]	717.2925629	None			S10814	2021_Aug_10_1724	VideoMask	02.01.21	120.08593329	f	019_m_f_s_a.jpg	sad	7	happy_61.1ns.avi	happy	9	incongruent	130	150	186.3094823	s_h					0	54	54	54							720.300766	None	722.0838228	722.4004023	723.5672764	723.5841317		730.9252786	None	None	0	730.9252786	None								7								732.4750257	None	None	None	[]	732.4750257	None	['7', '7', '9', '9', '9', '9', '9']	[0.4863782001193613, 0.7985259999986738, 1.9264943001326174, 2.078458799980581, 2.246466000098735, 2.430349300149828, 2.6790798001457006]	732.4750257	None			S10814	2021_Aug_10_1724	VideoMask	02.01.21	120.08593328	f	028_y_f_h_a.jpg	happy	9	sad_119.1.wmv	sad	7	incongruent	120	160	127.2653314	h_s					0	55	55	55							735.4750918	None	736.7417696	737.058408	738.2083781	738.2250747		740.2582683	None	None	0	740.2582683	None								5								741.8080742	None	None	None	[]	741.8080742	None	['9']	[2.969416599953547]	741.8080742	None			S10814	2021_Aug_10_1724	VideoMask	02.01.21	120.08593323	m	033_o_m_h_a.jpg	happy	9	sad_136.1.wmv	sad	7	incongruent	120	160	193.6894493	h_s					0	56	56	56							744.8082435	None	746.6246346	746.9414929	748.074547	748.0913289		750.0746718	None	None	0	750.0746718	None								3								751.9329606	None	None	None	[]	751.9329606	None	['7', '7']	[0.2525869000237435, 0.44461399991996586]	751.9329606	None			S10814	2021_Aug_10_1724	VideoMask	02.01.21	120.08593328	f	028_y_f_s_a.jpg	sad	7	happy_122.3.wmv	happy	9	incongruent	130	150	209.3215764	s_h					0	57	57	57							754.9415087	None	756.8993461	757.216048	758.3577515	758.3744501		760.3493204	None	None	0	760.3493204	None								9								761.8999137	None	None	None	[]	761.8999137	None	['9', '9', '9', '9']	[0.37365429988130927, 0.7975769999902695, 0.9735864999238402, 1.1818075999617577]	761.8999137	None			S10814	2021_Aug_10_1724	VideoMask	02.01.21	120.08593323	m	013_y_m_h_a.jpg	happy	9	sad_113.2.wmv	sad	7	incongruent	120	160	213.0625309	h_s					0	58	58	58							764.8992604	None	766.890951	767.2075491	768.3579262	768.3823319		770.3408072	None	None	0	770.3408072	None								4								771.8905963	None	None	None	[]	771.8905963	None	['7']	[0.37502570007927716]	771.8905963	None			S10814	2021_Aug_10_1724	VideoMask	02.01.21	120.08593320	f	030_o_f_h_a.jpg	happy	9	sad_127.1.wmv	sad	7	incongruent	120	160	172.1001676	h_s					0	59	59	59							774.8990661	None	776.5488507	776.8659411	777.9906119	778.0071954		779.9987975	None	None	0	779.9987975	None								3								781.5652996	None	None	None	[]	781.5652996	None	['7', '7', '9', '9', '7']	[9.639145000139251, 0.37232009996660054, 1.0203194001223892, 1.78854910004884, 2.9084940999746323]	781.5652996	None			S10814	2021_Aug_10_1724	VideoMask	02.01.21	120.0859332																																																																		784.5570525	None					