primePerson;primeGender;prime;primeEmotion;corrAnsPrime;target;targetEmotion;corrAnsTar;Cond;ID_Primer;ID_Target;JitterTime;Condition;example.thisRepN;example.thisTrialN;example.thisN;example.thisIndex;study.thisRepN;study.thisTrialN;study.thisN;study.thisIndex;MR_trigger_time;MR_trigger_number;text_intro.started;text_intro.stopped;text_probe.started;text_probe.stopped;polygon_ISI.started;polygon_ISI.stopped;polygon.started;polygon.stopped;primerImage.started;primerImage.stopped;response.started;response.stopped;key_resp.keys;key_resp.corr;key_resp.rt;key_resp.started;key_resp.stopped;slider_Text.started;slider_Text.stopped;slider_ex.response;slider_ex.rt;slider_ex.history;slider_ex.started;slider_ex.stopped;Rating;slider_resp_response.keys;slider_resp_response.started;slider_resp_response.stopped;slider_resp_response.rt;text_start.started;text_start.stopped;text_slider.started;text_slider.stopped;slider_stud.response;slider_stud.rt;slider_stud.history;slider_stud.started;slider_stud.stopped;slider_resp_study.keys;slider_resp_study.rt;slider_resp_study.started;slider_resp_study.stopped;text_ende.started;text_ende.stopped;participant;date;expName;psychopyVersion;frameRate;
1111;m;1111_m_m_h_a.jpg;happy;9;example_30.4ns.avi;neutral;7;incongruent;120.0;170.0;189.5874364012288;;0;0;0;0;;;;;24.306229599984363;1;24.38369419996161;26.3838883000426;26.3838883000426;None;28.400440099998377;None;30.61713280004915;30.933584799990058;32.100419000023976;32.11702290002722;36.40854590001982;None;8;0;0.6969285999657586;36.40854590001982;None;37.967096799984574;None;None;None;[];37.967096799984574;None;5;None;37.967096799984574;None;;;;;;;;;;;;;;;;;S11459;2022_May_17_1752;VideoMask;2021.1.2;120.04657814748444;
1113;f;1113_y_f_s_a.jpg;sad;7;example_30.3ns.avi;neutral;7;incongruent;130.0;170.0;229.02432995836998;;0;1;1;1;;;;;;;;;;;40.98344730003737;None;43.091580700012855;43.4082056999905;44.541624199948274;44.55900690006092;46.541573200025596;None;8;0;0.9481008000439033;46.541573200025596;None;48.091525300056674;None;None;None;[];48.091525300056674;None;6;['9'];48.091525300056674;None;[1.9422774999402463];;;;;;;;;;;;;;;;S11459;2022_May_17_1752;VideoMask;2021.1.2;120.04657814748444;
9.0;f;019_m_f_h_a.jpg;happy;9.0;sad_115.1.wmv;sad;7.0;incongruent;120.0;160.0;128.09063432376465;h_s;;;;;0;0;0;0;;;;;;;52.12473829998635;None;53.399554800009355;53.7162268999964;54.84967060002964;54.866268099984154;56.84963129996322;None;None;0;;56.84963129996322;None;;;;;;;;3;;;;;51.09143190004397;None;58.399553399998695;None;None;None;[];58.399553399998695;None;"['7', '7']";"[0.05788640002720058, 2.4339296999387443]";58.399553399998695;None;;;S11459;2022_May_17_1752;VideoMask;2021.1.2;120.04657814748444;
3.0;m;033_o_m_s_a.jpg;sad;7.0;sad_94.2ns.avi;sad;7.0;congruent;130.0;160.0;182.29120173647655;s_s;;;;;0;1;1;1;;;;;;;61.399459399981424;None;63.115881499950774;63.432737400056794;64.5910687999567;64.60761469998397;67.25785539997742;None;7;0;0.6637542999815196;67.25785539997742;None;;;;;;;;3;;;;;;;68.81587140006013;None;None;None;[];68.81587140006013;None;"['7', '7']";"[0.8178784999763593, 1.825498699909076]";68.81587140006013;None;;;S11459;2022_May_17_1752;VideoMask;2021.1.2;120.04657814748444;
8.0;m;008_y_m_h_a.jpg;happy;9.0;happy_26.1ns.avi;happy;9.0;congruent;120.0;150.0;155.9437854594882;h_h;;;;;0;2;2;2;;;;;;;71.81581619998906;None;73.29047879995778;73.60728700004984;74.7407376000192;74.7573032999644;76.7323061999632;None;9;0;0.6531948000192642;76.7323061999632;None;;;;;;;;6;;;;;;;78.282103799982;None;None;None;[];78.282103799982;None;['9'];[0.5516886999830604];78.282103799982;None;;;S11459;2022_May_17_1752;VideoMask;2021.1.2;120.04657814748444;
0.0;f;040_y_f_h_a.jpg;happy;9.0;sad_138.1.wmv;sad;7.0;incongruent;120.0;160.0;133.99071306426532;h_s;;;;;0;3;3;3;;;;;;;81.28225529997144;None;82.59864310000557;82.91530540003441;84.04049779998604;84.0570339000551;86.04858239996247;None;None;0;;86.04858239996247;None;;;;;;;;5;;;;;;;87.61514040001202;None;None;None;[];87.61514040001202;None;"['9', '7']";"[9.287165299989283, 1.2746358999283984]";87.61514040001202;None;;;S11459;2022_May_17_1752;VideoMask;2021.1.2;120.04657814748444;
8.0;f;028_y_f_s_a.jpg;sad;7.0;sad_64.2ns.avi;sad;7.0;congruent;130.0;160.0;229.88540597086478;s_s;;;;;0;4;4;4;;;;;;;90.59860480006319;None;92.73994230001699;93.0566515000537;94.24013809999451;94.25667240004987;105.20651910000015;None;8;0;0.6429021999938414;105.20651910000015;None;;;;;;;;5;;;;;;;106.76465250004549;None;None;None;[];106.76465250004549;None;None;;106.76465250004549;None;;;S11459;2022_May_17_1752;VideoMask;2021.1.2;120.04657814748444;
7.0;m;027_o_m_s_a.jpg;sad;7.0;sad_10.4ns.avi;sad;7.0;congruent;130.0;160.0;185.20129417468752;s_s;;;;;0;5;5;5;;;;;;;109.78948639996815;None;111.53107360005379;111.84770519996528;112.99780869996175;113.01451370003633;116.14775899995584;None;7;0;1.27766729996074;116.14775899995584;None;;;;;;;;4;;;;;;;117.69772409996949;None;None;None;[];117.69772409996949;None;"['7', '7', '7']";"[0.9518705999944359, 1.7597075999947265, 2.8239813999971375]";117.69772409996949;None;;;S11459;2022_May_17_1752;VideoMask;2021.1.2;120.04657814748444;
2.0;f;012_o_f_s_a.jpg;sad;7.0;sad_7.5ns.avi;sad;7.0;congruent;130.0;160.0;220.27842655424388;s_s;;;;;0;6;6;6;;;;;;;120.69755919999443;None;122.72239889996126;123.03909390000626;124.18089249997865;124.19748119998258;126.96417769999243;None;7;0;0.6453802000032738;126.96417769999243;None;;;;;;;;4;;;;;;;128.51406990003306;None;None;None;[];128.51406990003306;None;['7'];[0.727270400035195];128.51406990003306;None;;;S11459;2022_May_17_1752;VideoMask;2021.1.2;120.04657814748444;
2.0;f;012_o_f_h_a.jpg;happy;9.0;happy_27.1ns.avi;happy;9.0;congruent;120.0;150.0;146.44967055810616;h_h;;;;;0;7;7;7;;;;;;;131.51398769998923;None;132.92209460004233;133.23877070005983;134.41420830006246;134.43879689997993;136.86380199994892;None;9;0;0.7936865999363363;136.86380199994892;None;;;;;;;;7;;;;;;;138.41375259996857;None;None;None;[];138.41375259996857;None;"['9', '9']";"[0.5717103000497445, 1.075830400106497]";138.41375259996857;None;;;S11459;2022_May_17_1752;VideoMask;2021.1.2;120.04657814748444;
8.0;f;028_y_f_h_a.jpg;happy;9.0;sad_119.1.wmv;sad;7.0;incongruent;120.0;160.0;148.71526953572538;h_s;;;;;0;8;8;8;;;;;;;141.4221297999611;None;142.86350109998602;143.18026199995074;144.3136379000498;144.33019829995465;146.3801903000567;None;7;0;0.6293231999734417;146.3801903000567;None;;;;;;;;4;;;;;;;147.93005680001806;None;None;None;[];147.93005680001806;None;['7'];[0.6313805000390857];147.93005680001806;None;;;S11459;2022_May_17_1752;VideoMask;2021.1.2;120.04657814748444;
6.0;m;016_y_m_s_a.jpg;sad;7.0;happy_60.4ns.avi;happy;9.0;incongruent;130.0;150.0;126.02367393611817;s_h;;;;;0;9;9;9;;;;;;;150.9300777000608;None;152.18831090000458;152.50497060001362;153.66332809999585;153.6799382000463;159.42981780006085;None;None;0;;159.42981780006085;None;;;;;;;;6;;;;;;;160.97972249996383;None;None;None;[];160.97972249996383;None;['9'];[2.5337413999950513];160.97972249996383;None;;;S11459;2022_May_17_1752;VideoMask;2021.1.2;120.04657814748444;
9.0;f;019_m_f_s_a.jpg;sad;7.0;sad_8.4ns.avi;sad;7.0;congruent;130.0;160.0;171.6633093155257;s_s;;;;;0;10;10;10;;;;;;;163.9795314000221;None;165.62940880004317;165.94606510002632;167.08821419999003;167.11287890002131;175.21274610003456;None;7;0;0.5567566000390798;175.21274610003456;None;;;;;;;;4;;;;;;;176.76256900001317;None;None;None;[];176.76256900001317;None;['7'];[0.39100990002043545];176.76256900001317;None;;;S11459;2022_May_17_1752;VideoMask;2021.1.2;120.04657814748444;
4.0;m;004_o_m_h_a.jpg;happy;9.0;happy_1.1ns.avi;happy;9.0;congruent;120.0;150.0;203.50057144619865;h_h;;;;;0;11;11;11;;;;;;;179.7624810000416;None;181.7121830000542;182.0287995999679;183.2124502999941;183.22902440000325;197.64525519998278;None;9;0;0.5482468000845984;197.64525519998278;None;;;;;;;;6;;;;;;;199.19525210000575;None;None;None;[];199.19525210000575;None;['9'];[0.45427460002247244];199.19525210000575;None;;;S11459;2022_May_17_1752;VideoMask;2021.1.2;120.04657814748444;
7.0;m;027_o_m_h_a.jpg;happy;9.0;happy_20.1ns.avi;happy;9.0;congruent;120.0;150.0;152.91127178874285;h_h;;;;;0;12;12;12;;;;;;;202.19523920002393;None;203.66992230003234;203.98656530003063;205.13679669995327;205.15329879999626;208.1365818999475;None;9;0;0.712863799999468;208.1365818999475;None;;;;;;;;7;;;;;;;209.68656369997188;None;None;None;[];209.68656369997188;None;"['9', '9']";"[0.33918710006400943, 0.7948360000737011]";209.68656369997188;None;;;S11459;2022_May_17_1752;VideoMask;2021.1.2;120.04657814748444;
0.0;f;040_y_f_s_a.jpg;sad;7.0;sad_94.3ns.avi;sad;7.0;congruent;130.0;160.0;155.27414203894395;s_s;;;;;0;13;13;13;;;;;;;212.69487799995113;None;214.17791710002348;214.49460780003574;215.6446142999921;215.6613046999555;218.25299730000552;None;8;0;0.8205043999478221;218.25299730000552;None;;;;;;;;4;;;;;;;219.79459760000464;None;None;None;[];219.79459760000464;None;['7'];[0.6627801000140607];219.79459760000464;None;;;S11459;2022_May_17_1752;VideoMask;2021.1.2;120.04657814748444;
0.0;f;030_o_f_s_a.jpg;sad;7.0;sad_68.1ns.avi;sad;7.0;congruent;130.0;160.0;158.9411396037211;s_s;;;;;0;14;14;14;;;;;;;222.79461750003975;None;224.3275065999478;224.64429199998267;225.77770610002335;225.794398500002;233.20250679994933;None;7;0;0.5270202999236062;233.20250679994933;None;;;;;;;;3;;;;;;;234.7524230000563;None;None;None;[];234.7524230000563;None;"['7', '7']";"[0.3851378000108525, 0.6570993999484926]";234.7524230000563;None;;;S11459;2022_May_17_1752;VideoMask;2021.1.2;120.04657814748444;
0.0;f;030_o_f_h_a.jpg;happy;9.0;sad_127.1.wmv;sad;7.0;incongruent;120.0;160.0;180.59976631384873;h_s;;;;;0;15;15;15;;;;;;;237.75245879997965;None;239.460460399976;239.77714050002396;240.90234869997948;240.91897370002698;242.91888689994812;None;7;0;0.6665278999134898;242.91888689994812;None;;;;;;;;2;;;;;;;244.5770412000129;None;None;None;[];244.5770412000129;None;"['7', '7', '7']";"[0.46463619999121875, 0.9124512999551371, 1.5125271000433713]";244.5770412000129;None;;;S11459;2022_May_17_1752;VideoMask;2021.1.2;120.04657814748444;
8.0;m;008_y_m_s_a.jpg;sad;7.0;happy_133.3.wmv;happy;9.0;incongruent;130.0;150.0;152.577966552593;s_h;;;;;0;16;16;16;;;;;;;247.5770499999635;None;249.0518441000022;249.3685436999658;250.5020485999994;250.5186270000413;252.50186509999912;None;9;0;0.4756173000205308;252.50186509999912;None;;;;;;;;8;;;;;;;254.0517838000087;None;None;None;[];254.0517838000087;None;"['9', '9', '9', '9', '9']";"[0.4699644000502303, 0.8618244000244886, 1.2857846000697464, 1.6616678000427783, 2.2856556000187993]";254.0517838000087;None;;;S11459;2022_May_17_1752;VideoMask;2021.1.2;120.04657814748444;
3.0;m;033_o_m_h_a.jpg;happy;9.0;sad_128.1.wmv;sad;7.0;incongruent;120.0;160.0;171.0492454518585;h_s;;;;;0;17;17;17;;;;;;;257.0518437999999;None;258.6848699999973;259.0016456999583;260.13502259994857;260.1514858000446;262.13493549998384;None;7;0;0.5066247000358999;262.13493549998384;None;;;;;;;;3;;;;;;;263.68491880001966;None;None;None;[];263.68491880001966;None;"['7', '7']";"[0.3646717000519857, 0.7245424999855459]";263.68491880001966;None;;;S11459;2022_May_17_1752;VideoMask;2021.1.2;120.04657814748444;
1.0;f;021_o_f_h_a.jpg;happy;9.0;sad_116.1.wmv;sad;7.0;incongruent;120.0;160.0;184.06847610053055;h_s;;;;;0;18;18;18;;;;;;;266.6932375000324;None;268.4345705000451;268.7513374000555;269.8846239000559;269.90135479997844;271.88461359997746;None;7;0;0.46891479997429997;271.88461359997746;None;;;;;;;;3;;;;;;;273.4346168000484;None;None;None;[];273.4346168000484;None;"['7', '7', '7']";"[0.2949143999721855, 0.6788225999334827, 0.950814799987711]";273.4346168000484;None;;;S11459;2022_May_17_1752;VideoMask;2021.1.2;120.04657814748444;
4.0;m;004_o_m_s_a.jpg;sad;7.0;happy_28.1ns.avi;happy;9.0;incongruent;130.0;150.0;157.40741103039684;s_h;;;;;0;19;19;19;;;;;;;276.4429328000406;None;277.95096040004864;278.26773249998223;279.4343638999853;279.4510747999884;283.7926016000565;None;9;0;0.28893329994753003;283.7926016000565;None;;;;;;;;7;;;;;;;285.35916380002163;None;None;None;[];285.35916380002163;None;"['9', '9', '9']";"[0.5705131000140682, 1.218408599961549, 1.9463957999832928]";285.35916380002163;None;;;S11459;2022_May_17_1752;VideoMask;2021.1.2;120.04657814748444;
8.0;f;028_y_f_s_a.jpg;sad;7.0;happy_122.3.wmv;happy;9.0;incongruent;130.0;150.0;171.8670540936116;s_h;;;;;0;20;20;20;;;;;;;288.3593125999905;None;289.992219000007;290.30891370004974;291.4424111000262;291.45905119995587;293.4423514000373;None;9;0;0.5275156999705359;293.4423514000373;None;;;;;;;;6;;;;;;;294.99232680001296;None;None;None;[];294.99232680001296;None;['9'];[0.7612559000262991];294.99232680001296;None;;;S11459;2022_May_17_1752;VideoMask;2021.1.2;120.04657814748444;
8.0;m;008_y_m_s_a.jpg;sad;7.0;sad_6.5ns.avi;sad;7.0;congruent;130.0;160.0;170.39333839271438;s_s;;;;;0;21;21;21;;;;;;;297.9922014999902;None;299.6252626000205;299.94203170004766;301.1335995000554;301.150226800004;306.0835549000185;None;7;0;0.3498343999963254;306.0835549000185;None;;;;;;;;3;;;;;;;307.6335361000383;None;None;None;[];307.6335361000383;None;"['7', '7']";"[0.4321298999711871, 0.8398730999324471]";307.6335361000383;None;;;S11459;2022_May_17_1752;VideoMask;2021.1.2;120.04657814748444;
8.0;f;028_y_f_h_a.jpg;happy;9.0;happy_23.1ns.avi;happy;9.0;congruent;120.0;150.0;225.70986890587952;h_h;;;;;0;22;22;22;;;;;;;310.64193280006293;None;312.7250829000259;313.04150040005334;314.19161790004;314.2083181999624;318.7498693000525;None;9;0;0.2836170999798924;318.7498693000525;None;;;;;;;;7;;;;;;;320.2998252999969;None;None;None;[];320.2998252999969;None;"['9', '9']";"[0.4057749999919906, 0.9017186000710353]";320.2998252999969;None;;;S11459;2022_May_17_1752;VideoMask;2021.1.2;120.04657814748444;
8.0;m;008_y_m_h_a.jpg;happy;9.0;sad_111.1.wmv;sad;7.0;incongruent;120.0;160.0;152.63076835312847;h_s;;;;;0;23;23;23;;;;;;;323.2998502999544;None;324.7828585000243;325.0995483000297;326.23299819999374;326.2496699000476;328.23288799996953;None;7;0;0.4726827999111265;328.23288799996953;None;;;;;;;;4;;;;;;;329.7828648999566;None;None;None;[];329.7828648999566;None;['7'];[0.4747274999972433];329.7828648999566;None;;;S11459;2022_May_17_1752;VideoMask;2021.1.2;120.04657814748444;
0.0;f;040_y_f_s_a.jpg;sad;7.0;sad_67.2ns.avi;sad;7.0;congruent;130.0;160.0;220.9892697323079;s_s;;;;;0;24;24;24;;;;;;;332.78290880005807;None;334.8408894999884;335.1576440000208;336.2910348000005;336.3076758000534;345.53256630001124;None;7;0;0.4771441000048071;345.53256630001124;None;;;;;;;;3;;;;;;;347.0906773000024;None;None;None;[];347.0906773000024;None;"['7', '7']";"[0.43102859996724874, 0.7908962999936193]";347.0906773000024;None;;;S11459;2022_May_17_1752;VideoMask;2021.1.2;120.04657814748444;
8.0;m;008_y_m_s_a.jpg;sad;7.0;happy_29.1ns.avi;happy;9.0;incongruent;130.0;150.0;120.0316142834122;s_h;;;;;0;25;25;25;;;;;;;350.0989957000129;None;351.29882949998137;351.6155797999818;352.76610949996393;352.7905484000221;355.44044290005695;None;9;0;0.38509920006617904;355.44044290005695;None;;;;;;;;6;;;;;;;356.9986341999611;None;None;None;[];356.9986341999611;None;['9'];[0.45899999991524965];356.9986341999611;None;;;S11459;2022_May_17_1752;VideoMask;2021.1.2;120.04657814748444;
6.0;m;016_y_m_s_a.jpg;sad;7.0;sad_8.3ns.avi;sad;7.0;congruent;130.0;160.0;152.85371098242734;s_s;;;;;0;26;26;26;;;;;;;360.00707759999204;None;361.4900686000474;361.8067273000488;363.00720999995247;363.02330520004034;370.6981631000526;None;7;0;0.8633871999336407;370.6981631000526;None;;;;;;;;5;;;;;;;372.2481640999904;None;None;None;[];372.2481640999904;None;None;;372.2481640999904;None;;;S11459;2022_May_17_1752;VideoMask;2021.1.2;120.04657814748444;
6.0;m;016_y_m_h_a.jpg;happy;9.0;sad_114.1.wmv;sad;7.0;incongruent;120.0;160.0;136.20550699298644;h_s;;;;;0;27;27;27;;;;;;;375.26462539995555;None;376.61466640001163;376.93125599995255;378.0564311000053;378.0730461999774;380.06466150004417;None;7;0;0.6569686000002548;380.06466150004417;None;;;;;;;;3;;;;;;;381.6145930000348;None;None;None;[];381.6145930000348;None;"['7', '7', '7']";"[0.29924770002253354, 0.6028890999732539, 0.970903699984774]";381.6145930000348;None;;;S11459;2022_May_17_1752;VideoMask;2021.1.2;120.04657814748444;
7.0;m;027_o_m_s_a.jpg;sad;7.0;happy_117.3.wmv;happy;9.0;incongruent;130.0;150.0;215.61964028550614;s_h;;;;;0;28;28;28;;;;;;;384.6228922000155;None;386.6142755000619;386.9309025000548;388.05612379999366;388.0726868000347;390.0643541000318;None;None;0;;390.0643541000318;None;;;;;;;;7;;;;;;;391.63081630005036;None;None;None;[];391.63081630005036;None;"['9', '9']";"[9.955016999971122, 0.9308268000604585]";391.63081630005036;None;;;S11459;2022_May_17_1752;VideoMask;2021.1.2;120.04657814748444;
6.0;m;016_y_m_h_a.jpg;happy;9.0;happy_9.2ns.avi;happy;9.0;congruent;120.0;150.0;130.52042428082717;h_h;;;;;0;29;29;29;;;;;;;394.62257300002966;None;395.9139864000026;396.230702699977;397.3639852999477;397.3807902999688;403.2889603000367;None;9;0;0.328598799998872;403.2889603000367;None;;;;;;;;5;;;;;;;404.83892050001305;None;None;None;[];404.83892050001305;None;None;;404.83892050001305;None;;;S11459;2022_May_17_1752;VideoMask;2021.1.2;120.04657814748444;
0.0;f;040_y_f_s_a.jpg;sad;7.0;happy_127.3.wmv;happy;9.0;incongruent;130.0;150.0;131.7195455720239;s_h;;;;;0;30;30;30;;;;;;;407.8636089999927;None;409.155270999996;409.47207779996097;410.59715080005117;410.6137527000392;412.6720069999574;None;9;0;0.39353769994340837;412.6720069999574;None;;;;;;;;6;;;;;;;414.22193510003854;None;None;None;[];414.22193510003854;None;['9'];[0.30771169997751713];414.22193510003854;None;;;S11459;2022_May_17_1752;VideoMask;2021.1.2;120.04657814748444;
0.0;f;030_o_f_s_a.jpg;sad;7.0;happy_125.3.wmv;happy;9.0;incongruent;130.0;150.0;220.51454909128134;s_h;;;;;0;31;31;31;;;;;;;417.2303343999665;None;419.27995680004824;419.5966289000353;420.7715793000534;420.7967021999648;422.7301804999588;None;8;0;0.39937469991855323;422.7301804999588;None;;;;;;;;5;;;;;;;424.27997929998673;None;None;None;[];424.27997929998673;None;None;;424.27997929998673;None;;;S11459;2022_May_17_1752;VideoMask;2021.1.2;120.04657814748444;
0.0;f;030_o_f_s_a.jpg;sad;7.0;sad_64.3ns.avi;sad;7.0;congruent;130.0;160.0;165.78667874766072;s_s;;;;;0;32;32;32;;;;;;;427.3047095000511;None;428.88800350006204;429.2046824999852;430.3798314000014;430.3964357000077;435.337934399955;None;8;0;0.3917818999616429;435.337934399955;None;;;;;;;;4;;;;;;;436.88792400003877;None;None;None;[];436.88792400003877;None;['7'];[1.0737325999652967];436.88792400003877;None;;;S11459;2022_May_17_1752;VideoMask;2021.1.2;120.04657814748444;
3.0;m;013_y_m_s_a.jpg;sad;7.0;sad_7.7ns.avi;sad;7.0;congruent;130.0;160.0;196.24182255763262;s_s;;;;;0;33;33;33;;;;;;;439.88783679995686;None;441.73778900003526;442.0542790000327;443.20423689996824;443.22107219998725;449.1874650999671;None;7;0;1.3821867000078782;449.1874650999671;None;;;;;;;;5;;;;;;;450.7374737999635;None;None;None;[];450.7374737999635;None;None;;450.7374737999635;None;;;S11459;2022_May_17_1752;VideoMask;2021.1.2;120.04657814748444;
3.0;m;013_y_m_h_a.jpg;happy;9.0;happy_9.1ns.avi;happy;9.0;congruent;120.0;150.0;165.1890303600433;h_h;;;;;0;34;34;34;;;;;;;453.7707504000282;None;455.3453252000036;455.670773299993;456.8290119000012;456.84558139997534;460.02056340000127;None;9;0;0.8289137000683695;460.02056340000127;None;;;;;;;;7;;;;;;;461.57047310005873;None;None;None;[];461.57047310005873;None;"['9', '9']";"[0.6633234999608248, 2.1671913999598473]";461.57047310005873;None;;;S11459;2022_May_17_1752;VideoMask;2021.1.2;120.04657814748444;
4.0;m;004_o_m_h_a.jpg;happy;9.0;sad_95.1ns.avi;sad;7.0;incongruent;120.0;160.0;152.68270002069931;h_s;;;;;0;35;35;35;;;;;;;464.5705096999882;None;466.0618441000115;466.37851309997495;467.5286450999556;467.5452442000387;476.3034915999742;None;7;0;0.4341300999512896;476.3034915999742;None;;;;;;;;2;;;;;;;477.8615944000194;None;None;None;[];477.8615944000194;None;"['7', '7', '7']";"[0.4121642999816686, 0.7479972000000998, 1.3801131000509486]";477.8615944000194;None;;;S11459;2022_May_17_1752;VideoMask;2021.1.2;120.04657814748444;
3.0;m;013_y_m_h_a.jpg;happy;9.0;sad_113.2.wmv;sad;7.0;incongruent;120.0;160.0;217.4973891947951;h_s;;;;;0;36;36;36;;;;;;;480.8615127999801;None;482.8778831999516;483.19479360000696;484.3281236999901;484.3447058000602;486.3281247999985;None;8;0;1.3855519000208005;486.3281247999985;None;;;;;;;;5;;;;;;;487.8779458999634;None;None;None;[];487.8779458999634;None;None;;487.8779458999634;None;;;S11459;2022_May_17_1752;VideoMask;2021.1.2;120.04657814748444;
4.0;m;004_o_m_h_a.jpg;happy;9.0;happy_25.1ns.avi;happy;9.0;congruent;120.0;150.0;216.63044503818386;h_h;;;;;0;37;37;37;;;;;;;490.90294409997296;None;492.91103349998593;493.227624900057;494.38615939999;494.40276790002827;498.05278729996644;None;9;0;0.47687080001924187;498.05278729996644;None;;;;;;;;6;;;;;;;499.6109798999969;None;None;None;[];499.6109798999969;None;['9'];[0.4306718000443652];499.6109798999969;None;;;S11459;2022_May_17_1752;VideoMask;2021.1.2;120.04657814748444;
4.0;m;004_o_m_s_a.jpg;sad;7.0;happy_131.2.wmv;happy;9.0;incongruent;130.0;150.0;181.38407540847405;s_h;;;;;0;38;38;38;;;;;;;502.6108630000381;None;504.3273527000565;504.64414069999475;505.77781430003233;505.80245279998053;507.77738680003677;None;9;0;0.6721207000082359;507.77738680003677;None;;;;;;;;5;;;;;;;509.3273417999735;None;None;None;[];509.3273417999735;None;None;;509.3273417999735;None;;;S11459;2022_May_17_1752;VideoMask;2021.1.2;120.04657814748444;
0.0;f;040_y_f_h_a.jpg;happy;9.0;happy_24.3ns.avi;happy;9.0;congruent;120.0;150.0;213.25460698950434;h_h;;;;;0;39;39;39;;;;;;;512.34378320002;None;514.3020406999858;514.6187312999973;515.8022190000629;515.8187897000462;517.6770782000385;None;9;0;0.5406348999822512;517.6770782000385;None;;;;;;;;5;;;;;;;519.2353700000094;None;None;None;[];519.2353700000094;None;None;;519.2353700000094;None;;;S11459;2022_May_17_1752;VideoMask;2021.1.2;120.04657814748444;
2.0;f;012_o_f_s_a.jpg;sad;7.0;happy_139.1.wmv;happy;9.0;incongruent;130.0;150.0;162.31500468041804;s_h;;;;;0;40;40;40;;;;;;;522.2516808999935;None;523.8017104000319;524.1184294000268;525.2518569000531;525.2684405000182;527.2518490999937;None;9;0;0.35788200004026294;527.2518490999937;None;;;;;;;;6;;;;;;;529.2514845000114;None;None;None;[];529.2514845000114;None;['9'];[0.2863092999905348];529.2514845000114;None;;;S11459;2022_May_17_1752;VideoMask;2021.1.2;120.04657814748444;
0.0;f;030_o_f_h_a.jpg;happy;9.0;happy_24.1ns.avi;happy;9.0;congruent;120.0;150.0;168.36256624020774;h_h;;;;;0;41;41;41;;;;;;;532.2516700000269;None;533.8514329000609;534.1680933999596;535.3768452999648;535.401569699985;538.6262973999837;None;9;0;0.5673535000532866;538.6262973999837;None;;;;;;;;7;;;;;;;540.176311600022;None;None;None;[];540.176311600022;None;"['9', '9']";"[0.31358169997110963, 0.7293321000179276]";540.176311600022;None;;;S11459;2022_May_17_1752;VideoMask;2021.1.2;120.04657814748444;
2.0;f;012_o_f_h_a.jpg;happy;9.0;sad_113.1.wmv;sad;7.0;incongruent;120.0;160.0;177.44551734737394;h_s;;;;;0;42;42;42;;;;;;;543.18446150003;None;544.8593733999878;545.1761026000604;546.3092760000145;546.3259453000501;548.3095311999787;None;7;0;0.9560754999984056;548.3095311999787;None;;;;;;;;4;;;;;;;549.8594746000599;None;None;None;[];549.8594746000599;None;['7'];[0.5503431000979617];549.8594746000599;None;;;S11459;2022_May_17_1752;VideoMask;2021.1.2;120.04657814748444;
3.0;m;033_o_m_s_a.jpg;sad;7.0;sad_64.5ns.avi;sad;7.0;congruent;130.0;160.0;130.55717223801247;s_s;;;;;0;43;43;43;;;;;;;552.8593493000371;None;554.1591301000444;554.4757516999962;555.6509128999896;555.6674641000573;562.1923862999538;None;7;0;0.3852956999326125;562.1923862999538;None;;;;;;;;3;;;;;;;563.7423367999727;None;None;None;[];563.7423367999727;None;"['7', '7']";"[0.34740560001228005, 0.6833007000386715]";563.7423367999727;None;;;S11459;2022_May_17_1752;VideoMask;2021.1.2;120.04657814748444;
7.0;m;027_o_m_h_a.jpg;happy;9.0;sad_117.1.wmv;sad;7.0;incongruent;120.0;160.0;181.28665202824095;h_s;;;;;0;44;44;44;;;;;;;566.7422536000377;None;568.4669484000187;568.7836973000085;569.9254010999575;569.9422043999657;571.9254434000468;None;8;0;0.40407279995270073;571.9254434000468;None;;;;;;;;5;;;;;;;573.4753105000127;None;None;None;[];573.4753105000127;None;None;;573.4753105000127;None;;;S11459;2022_May_17_1752;VideoMask;2021.1.2;120.04657814748444;
3.0;m;033_o_m_s_a.jpg;sad;7.0;happy_126.3.wmv;happy;9.0;incongruent;130.0;150.0;198.85252030535366;s_h;;;;;0;45;45;45;;;;;;;576.5086703000125;None;578.3667144000065;578.6835188999539;579.8171768999891;579.8418403000105;581.81679479999;None;9;0;0.4089174000546336;581.81679479999;None;;;;;;;;6;;;;;;;583.3666704000207;None;None;None;[];583.3666704000207;None;['9'];[0.3870243000565097];583.3666704000207;None;;;S11459;2022_May_17_1752;VideoMask;2021.1.2;120.04657814748444;
3.0;m;033_o_m_h_a.jpg;happy;9.0;sad_136.1.wmv;sad;7.0;incongruent;120.0;160.0;176.97002883463455;h_s;;;;;0;46;46;46;;;;;;;586.3750115999719;None;588.0499151999829;588.3663207000354;589.5165625000373;589.5332379000029;591.5081278999569;None;7;0;0.517559599946253;591.5081278999569;None;;;;;;;;4;;;;;;;593.0580413000425;None;None;None;[];593.0580413000425;None;"['7', '7', '7']";"[0.3116577999899164, 0.9356257999315858, 1.4636357999406755]";593.0580413000425;None;;;S11459;2022_May_17_1752;VideoMask;2021.1.2;120.04657814748444;
9.0;f;019_m_f_h_a.jpg;happy;9.0;happy_10.1ns.avi;happy;9.0;congruent;120.0;150.0;157.2463435658512;h_h;;;;;0;47;47;47;;;;;;;596.0579440000001;None;597.591103099985;597.9080165999476;599.0578495999798;599.0745551000582;606.4993299000198;None;9;0;0.3743539999704808;606.4993299000198;None;;;;;;;;7;;;;;;;608.0493206999963;None;None;None;[];608.0493206999963;None;"['9', '9']";"[0.29626139998435974, 0.7682994999922812]";608.0493206999963;None;;;S11459;2022_May_17_1752;VideoMask;2021.1.2;120.04657814748444;
2.0;f;012_o_f_h_a.jpg;happy;9.0;happy_2.2ns.avi;happy;9.0;congruent;120.0;150.0;206.34800317295262;h_h;;;;;0;48;48;48;;;;;;;611.0493219000055;None;612.9989125999855;613.315661999979;614.4657485999633;614.4824441999663;626.6487647000467;None;9;0;0.5208711000159383;626.6487647000467;None;;;;;;;;5;;;;;;;628.1986716999672;None;None;None;[];628.1986716999672;None;None;;628.1986716999672;None;;;S11459;2022_May_17_1752;VideoMask;2021.1.2;120.04657814748444;
3.0;m;033_o_m_h_a.jpg;happy;9.0;happy_24.2ns.avi;happy;9.0;congruent;120.0;150.0;167.9423847659953;h_h;;;;;0;49;49;49;;;;;;;631.215121199959;None;632.8067108000396;633.1234047999606;634.2818623000057;634.2984346000012;637.9817226000596;None;9;0;0.5079549999209121;637.9817226000596;None;;;;;;;;7;;;;;;;639.5316727999598;None;None;None;[];639.5316727999598;None;"['9', '9']";"[0.38237799995113164, 0.8539371999213472]";639.5316727999598;None;;;S11459;2022_May_17_1752;VideoMask;2021.1.2;120.04657814748444;
1.0;f;021_o_f_s_a.jpg;sad;7.0;happy_61.2ns.avi;happy;9.0;incongruent;130.0;150.0;210.94664004826666;s_h;;;;;0;50;50;50;;;;;;;642.5317209999776;None;644.481334000011;644.7979341000319;645.9981296999613;646.0147954999702;650.473027399974;None;9;0;0.31278280005790293;650.473027399974;None;;;;;;;;5;;;;;;;652.0313009000383;None;None;None;[];652.0313009000383;None;None;;652.0313009000383;None;;;S11459;2022_May_17_1752;VideoMask;2021.1.2;120.04657814748444;
4.0;m;004_o_m_s_a.jpg;sad;7.0;sad_2.4ns.avi;sad;7.0;congruent;130.0;160.0;153.02079367163634;s_s;;;;;0;51;51;51;;;;;;;655.0476936999476;None;656.5393192999763;656.855989200063;658.0394464000128;658.0560968000209;665.9475444999989;None;7;0;0.34204279992263764;665.9475444999989;None;;;;;;;;4;;;;;;;667.5057459999807;None;None;None;[];667.5057459999807;None;['7'];[0.279961800086312];667.5057459999807;None;;;S11459;2022_May_17_1752;VideoMask;2021.1.2;120.04657814748444;
8.0;m;008_y_m_h_a.jpg;happy;9.0;happy_1.2ns.avi;happy;9.0;congruent;120.0;150.0;210.98946429383824;h_h;;;;;0;52;52;52;;;;;;;670.5140873000491;None;672.5138159999624;672.8306260999525;673.9890120000346;674.0055517000146;686.7635343000293;None;9;0;0.34216310002375394;686.7635343000293;None;;;;;;;;5;;;;;;;688.3134980000323;None;None;None;[];688.3134980000323;None;None;;688.3134980000323;None;;;S11459;2022_May_17_1752;VideoMask;2021.1.2;120.04657814748444;
2.0;f;012_o_f_s_a.jpg;sad;7.0;happy_52.2ns.avi;happy;9.0;incongruent;130.0;150.0;172.57202848318138;s_h;;;;;0;53;53;53;;;;;;;691.3467443999834;None;692.9799517999636;693.2965219999896;694.4631224999903;694.4797805000562;697.9798869000515;None;9;0;0.389746299944818;697.9798869000515;None;;;;;;;;7;;;;;;;699.5297932999674;None;None;None;[];699.5297932999674;None;"['9', '9', '9']";"[0.35185470001306385, 0.9919146000174806, 1.727747300057672]";699.5297932999674;None;;;S11459;2022_May_17_1752;VideoMask;2021.1.2;120.04657814748444;
9.0;f;019_m_f_s_a.jpg;sad;7.0;happy_61.1ns.avi;happy;9.0;incongruent;130.0;150.0;181.3003220572762;s_h;;;;;0;54;54;54;;;;;;;702.5297739000525;None;704.2628550999798;704.5795263999607;705.7710938999662;705.7878488999559;713.1045029000379;None;8;0;0.28920189989730716;713.1045029000379;None;;;;;;;;5;;;;;;;714.6543388999999;None;None;None;[];714.6543388999999;None;"['9', '7']";"[0.34727430006023496, 1.4434846000513062]";714.6543388999999;None;;;S11459;2022_May_17_1752;VideoMask;2021.1.2;120.04657814748444;
0.0;f;030_o_f_h_a.jpg;happy;9.0;sad_133.1.wmv;sad;7.0;incongruent;120.0;160.0;198.86251500867985;h_s;;;;;0;55;55;55;;;;;;;717.6627407000633;None;719.5289490000578;719.8457223000005;720.9708636000287;720.9874881999567;722.9791185000213;None;7;0;0.902634400059469;722.9791185000213;None;;;;;;;;3;;;;;;;724.5289905000245;None;None;None;[];724.5289905000245;None;"['7', '7']";"[0.35272700001951307, 0.6726491999579594]";724.5289905000245;None;;;S11459;2022_May_17_1752;VideoMask;2021.1.2;120.04657814748444;
0.0;f;040_y_f_h_a.jpg;happy;9.0;sad_128.2.wmv;sad;7.0;incongruent;120.0;160.0;206.10005857915363;h_s;;;;;0;56;56;56;;;;;;;727.5374156000325;None;729.4535834999988;729.7705580999609;730.9121510999976;730.9287810999667;732.9037759000203;None;7;0;0.41799540002830327;732.9037759000203;None;;;;;;;;4;;;;;;;734.4537263000384;None;None;None;[];734.4537263000384;None;['7'];[0.48396830004639924];734.4537263000384;None;;;S11459;2022_May_17_1752;VideoMask;2021.1.2;120.04657814748444;
1.0;f;021_o_f_s_a.jpg;sad;7.0;sad_9.5ns.avi;sad;7.0;congruent;130.0;160.0;206.16642757875042;s_s;;;;;0;57;57;57;;;;;;;737.4621126999846;None;739.386753299972;739.7034611999989;740.94562090002;740.9702518000267;746.5617083000252;None;7;0;0.5680980000179261;746.5617083000252;None;;;;;;;;3;;;;;;;748.1115852999501;None;None;None;[];748.1115852999501;None;"['7', '7']";"[0.36215669999364763, 0.714192199986428]";748.1115852999501;None;;;S11459;2022_May_17_1752;VideoMask;2021.1.2;120.04657814748444;
1.0;f;021_o_f_h_a.jpg;happy;9.0;happy_12.1ns.avi;happy;9.0;congruent;120.0;150.0;132.59080005900228;h_h;;;;;0;58;58;58;;;;;;;751.1116195999784;None;752.4364386999514;752.7531673000194;753.9198583000107;753.9364445999963;761.5029410000425;None;8;0;0.426817899919115;761.5029410000425;None;;;;;;;;6;;;;;;;763.0611970999744;None;None;None;[];763.0611970999744;None;['9'];[0.5086363001028076];763.0611970999744;None;;;S11459;2022_May_17_1752;VideoMask;2021.1.2;120.04657814748444;
3.0;m;013_y_m_s_a.jpg;sad;7.0;happy_56.2ns.avi;happy;9.0;incongruent;130.0;150.0;163.39234110935848;s_h;;;;;0;59;59;59;;;;;;;766.0695467999903;None;767.6359052000334;767.9525814000517;769.119335400057;769.1360124000348;774.1197900000261;None;9;0;0.9459426000248641;774.1197900000261;None;;;;;;;;5;;;;;;;775.7191404000623;None;None;None;[];775.7191404000623;None;None;;775.7191404000623;None;;;S11459;2022_May_17_1752;VideoMask;2021.1.2;120.04657814748444;
;;;;;;;;;;;;;;;;;;;;;;;;;;;;;;;;;;;;;;;;;;;;;;;;;;;;;;;;;;;;;;;;;778.7440690000076;None;;;;;;
