primePerson;primeGender;prime;primeEmotion;corrAnsPrime;target;targetEmotion;corrAnsTar;Cond;ID_Primer;ID_Target;JitterTime;Condition;example.thisRepN;example.thisTrialN;example.thisN;example.thisIndex;study.thisRepN;study.thisTrialN;study.thisN;study.thisIndex;MR_trigger_time;MR_trigger_number;text_intro.started;text_intro.stopped;text_probe.started;text_probe.stopped;polygon_ISI.started;polygon_ISI.stopped;polygon.started;polygon.stopped;primerImage.started;primerImage.stopped;response.started;response.stopped;key_resp.keys;key_resp.corr;key_resp.rt;key_resp.started;key_resp.stopped;slider_Text.started;slider_Text.stopped;slider_ex.response;slider_ex.rt;slider_ex.history;slider_ex.started;slider_ex.stopped;Rating;slider_resp_response.keys;slider_resp_response.rt;slider_resp_response.started;slider_resp_response.stopped;text_start.started;text_start.stopped;text_slider.started;text_slider.stopped;slider_stud.response;slider_stud.rt;slider_stud.history;slider_stud.started;slider_stud.stopped;slider_resp_study.keys;slider_resp_study.rt;slider_resp_study.started;slider_resp_study.stopped;text_ende.started;text_ende.stopped;participant;date;expName;psychopyVersion;frameRate;
1111;m;1111_m_m_h_a.jpg;happy;9;example_30.4ns.avi;neutral;7;incongruent;120.0;170.0;189.5874364012288;;0;0;0;0;;;;;28.12937270011753;1;28.207390200113878;30.207572400104254;30.207572400104254;None;32.24143510009162;None;34.46557690016925;34.790699700126424;35.92406230000779;35.94064960000105;40.26638810010627;None;9;0;1.1824507999699563;40.26638810010627;None;42.182537000160664;None;None;None;[];42.182537000160664;None;6;['9'];[1.9540891000069678];42.182537000160664;None;;;;;;;;;;;;;;;;S11105;2021_Dec_14_1633;VideoMask;2021.1.2;120.06603654338147;
1113;f;1113_y_f_s_a.jpg;sad;7;example_30.3ns.avi;neutral;7;incongruent;130.0;170.0;229.02432995836998;;0;1;1;1;;;;;;;;;;;45.17382730008103;None;47.29859630018473;47.61521880002692;48.75698000006378;48.77384979999624;50.74870770005509;None;9;0;1.4522371999919415;50.74870770005509;None;52.29855770012364;None;None;None;[];52.29855770012364;None;7;"['9', '9']";"[0.4382279999554157, 0.7904783999547362]";52.29855770012364;None;;;;;;;;;;;;;;;;S11105;2021_Dec_14_1633;VideoMask;2021.1.2;120.06603654338147;
9.0;f;019_m_f_h_a.jpg;happy;9.0;sad_115.1.wmv;sad;7.0;incongruent;120.0;160.0;128.09063432376465;h_s;;;;;0;0;0;0;;;;;;;56.34849730017595;None;57.631547700148076;57.948345300043;59.081455199979246;59.09835290000774;61.090261900098994;None;7;0;0.5985838000196964;61.090261900098994;None;;;;;;;;3;;;;;55.306834700051695;None;62.94803470000625;None;None;None;[];62.94803470000625;None;"['7', '7', '7', '9']";"[34.71671730000526, 0.40458930004388094, 0.7966398999560624, 2.8929755000863224]";62.94803470000625;None;;;S11105;2021_Dec_14_1633;VideoMask;2021.1.2;120.06603654338147;
3.0;m;033_o_m_s_a.jpg;sad;7.0;sad_94.2ns.avi;sad;7.0;congruent;130.0;160.0;182.29120173647655;s_s;;;;;0;1;1;1;;;;;;;65.93143410002813;None;67.67295700008981;67.98960740002804;69.1315272001084;69.14805970015004;71.81481520016678;None;None;0;;71.81481520016678;None;;;;;;;;4;;;;;;;73.36481579998508;None;None;None;[];73.36481579998508;None;['7'];[2.3881890000775456];73.36481579998508;None;;;S11105;2021_Dec_14_1633;VideoMask;2021.1.2;120.06603654338147;
8.0;m;008_y_m_h_a.jpg;happy;9.0;happy_26.1ns.avi;happy;9.0;congruent;120.0;150.0;155.9437854594882;h_h;;;;;0;2;2;2;;;;;;;76.3645564999897;None;77.86439230013639;78.18098559998907;79.33941030013375;79.35599089995958;81.30589670012705;None;None;0;;81.30589670012705;None;;;;;;;;5;;;;;;;82.85579900001176;None;None;None;[];82.85579900001176;None;None;;82.85579900001176;None;;;S11105;2021_Dec_14_1633;VideoMask;2021.1.2;120.06603654338147;
0.0;f;040_y_f_h_a.jpg;happy;9.0;sad_138.1.wmv;sad;7.0;incongruent;120.0;160.0;133.99071306426532;h_s;;;;;0;3;3;3;;;;;;;85.88079510000534;None;87.21401190012693;87.53066299995407;88.66417380003259;88.68088910006918;90.66400450002402;None;None;0;;90.66400450002402;None;;;;;;;;5;;;;;;;92.2146717000287;None;None;None;[];92.2146717000287;None;None;;92.2146717000287;None;;;S11105;2021_Dec_14_1633;VideoMask;2021.1.2;120.06603654338147;
8.0;f;028_y_f_s_a.jpg;sad;7.0;sad_64.2ns.avi;sad;7.0;congruent;130.0;160.0;229.88540597086478;s_s;;;;;0;4;4;4;;;;;;;95.23886639997363;None;97.44707760005258;97.76372779998928;98.9058389000129;98.93050460005179;109.89739860012196;None;None;0;;109.89739860012196;None;;;;;;;;3;;;;;;;111.44678330002353;None;None;None;[];111.44678330002353;None;"['7', '7']";"[0.40204879990778863, 0.7540719998069108]";111.44678330002353;None;;;S11105;2021_Dec_14_1633;VideoMask;2021.1.2;120.06603654338147;
7.0;m;027_o_m_s_a.jpg;sad;7.0;sad_10.4ns.avi;sad;7.0;congruent;130.0;160.0;185.20129417468752;s_s;;;;;0;5;5;5;;;;;;;114.44674080004916;None;116.21308020013385;116.52983700018376;117.67162170005031;117.68825520016253;120.82980610011145;None;None;0;;120.82980610011145;None;;;;;;;;1;;;;;;;122.37957810005173;None;None;None;[];122.37957810005173;None;"['7', '7', '7', '7', '7', '7']";"[0.46922189998440444, 0.9894090997986495, 1.2933533999603242, 1.5413247998803854, 1.8370813999790698, 2.2532011999282986]";122.37957810005173;None;;;S11105;2021_Dec_14_1633;VideoMask;2021.1.2;120.06603654338147;
2.0;f;012_o_f_s_a.jpg;sad;7.0;sad_7.5ns.avi;sad;7.0;congruent;130.0;160.0;220.27842655424388;s_s;;;;;0;6;6;6;;;;;;;125.38811310008168;None;127.42116899997927;127.73784369998612;128.8795845999848;128.89614040008746;131.66318739997223;None;None;0;;131.66318739997223;None;;;;;;;;2;;;;;;;133.22114190016873;None;None;None;[];133.22114190016873;None;"['7', '7', '7']";"[0.4758729001041502, 0.883780499920249, 1.8838255000300705]";133.22114190016873;None;;;S11105;2021_Dec_14_1633;VideoMask;2021.1.2;120.06603654338147;
2.0;f;012_o_f_h_a.jpg;happy;9.0;happy_27.1ns.avi;happy;9.0;congruent;120.0;150.0;146.44967055810616;h_h;;;;;0;7;7;7;;;;;;;136.22110090008937;None;137.65415970003232;137.97093529999256;139.14575260016136;139.16262500011362;141.59579670010135;None;None;0;;141.59579670010135;None;;;;;;;;6;;;;;;;143.14564210013486;None;None;None;[];143.14564210013486;None;['9'];[1.143140200059861];143.14564210013486;None;;;S11105;2021_Dec_14_1633;VideoMask;2021.1.2;120.06603654338147;
8.0;f;028_y_f_h_a.jpg;happy;9.0;sad_119.1.wmv;sad;7.0;incongruent;120.0;160.0;148.71526953572538;h_s;;;;;0;8;8;8;;;;;;;146.15400760015473;None;147.60383839998394;147.92056710016914;149.06209830008447;149.0789664001204;151.12064600014128;None;None;0;;151.12064600014128;None;;;;;;;;4;;;;;;;152.67053160001524;None;None;None;[];152.67053160001524;None;['7'];[1.5461143001448363];152.67053160001524;None;;;S11105;2021_Dec_14_1633;VideoMask;2021.1.2;120.06603654338147;
6.0;m;016_y_m_s_a.jpg;sad;7.0;happy_60.4ns.avi;happy;9.0;incongruent;130.0;150.0;126.02367393611817;s_h;;;;;0;9;9;9;;;;;;;155.6707097000908;None;156.99534520017914;157.31204870017245;158.47866720007733;158.49536810000427;164.23685490014032;None;None;0;;164.23685490014032;None;;;;;;;;6;;;;;;;165.78696950012818;None;None;None;[];165.78696950012818;None;['9'];[0.597948599839583];165.78696950012818;None;;;S11105;2021_Dec_14_1633;VideoMask;2021.1.2;120.06603654338147;
9.0;f;019_m_f_s_a.jpg;sad;7.0;sad_8.4ns.avi;sad;7.0;congruent;130.0;160.0;171.6633093155257;s_s;;;;;0;10;10;10;;;;;;;168.79490160010755;None;170.48700230009854;170.8032669001259;171.9783203001134;171.9949241001159;180.0697590999771;None;None;0;;180.0697590999771;None;;;;;;;;2;;;;;;;181.61988150002435;None;None;None;[];181.61988150002435;None;"['7', '7', '7']";"[0.14916799985803664, 0.4610728998668492, 0.804990699980408]";181.61988150002435;None;;;S11105;2021_Dec_14_1633;VideoMask;2021.1.2;120.06603654338147;
4.0;m;004_o_m_h_a.jpg;happy;9.0;happy_1.1ns.avi;happy;9.0;congruent;120.0;150.0;203.50057144619865;h_h;;;;;0;11;11;11;;;;;;;184.62783910008147;None;186.62758249999024;186.94432989996858;188.0860446000006;188.1028026000131;202.5690999000799;None;9;0;1.0157627000007778;202.5690999000799;None;;;;;;;;8;;;;;;;204.11897279997356;None;None;None;[];204.11897279997356;None;"['9', '9', '9']";"[0.33803050010465086, 0.7138388000894338, 1.401868399931118]";204.11897279997356;None;;;S11105;2021_Dec_14_1633;VideoMask;2021.1.2;120.06603654338147;
7.0;m;027_o_m_h_a.jpg;happy;9.0;happy_20.1ns.avi;happy;9.0;congruent;120.0;150.0;152.91127178874285;h_h;;;;;0;12;12;12;;;;;;;207.11900040018372;None;208.61922220000997;208.93538850010373;210.08547800011002;210.10218310006894;213.08551959996112;None;None;0;;213.08551959996112;None;;;;;;;;5;;;;;;;214.63538490002975;None;None;None;[];214.63538490002975;None;None;;214.63538490002975;None;;;S11105;2021_Dec_14_1633;VideoMask;2021.1.2;120.06603654338147;
0.0;f;040_y_f_s_a.jpg;sad;7.0;sad_94.3ns.avi;sad;7.0;congruent;130.0;160.0;155.27414203894395;s_s;;;;;0;13;13;13;;;;;;;217.65170250018127;None;219.16008090018295;219.47668630001135;220.71824440010823;220.734938000096;223.23496980010532;None;None;0;;223.23496980010532;None;;;;;;;;5;;;;;;;224.7849868000485;None;None;None;[];224.7849868000485;None;None;;224.7849868000485;None;;;S11105;2021_Dec_14_1633;VideoMask;2021.1.2;120.06603654338147;
0.0;f;030_o_f_s_a.jpg;sad;7.0;sad_68.1ns.avi;sad;7.0;congruent;130.0;160.0;158.9411396037211;s_s;;;;;0;14;14;14;;;;;;;227.809753900161;None;229.37634090008214;229.69320500013418;230.83451770013198;230.85128040006384;238.25135640008375;None;None;0;;238.25135640008375;None;;;;;;;;5;;;;;;;239.8095917000901;None;None;None;[];239.8095917000901;None;None;;239.8095917000901;None;;;S11105;2021_Dec_14_1633;VideoMask;2021.1.2;120.06603654338147;
0.0;f;030_o_f_h_a.jpg;happy;9.0;sad_127.1.wmv;sad;7.0;incongruent;120.0;160.0;180.59976631384873;h_s;;;;;0;15;15;15;;;;;;;242.84289600001648;None;244.5592692999635;244.8759656001348;246.00108840013854;246.01760590006597;248.00940260011703;None;None;0;;248.00940260011703;None;;;;;;;;3;;;;;;;249.55926600005478;None;None;None;[];249.55926600005478;None;"['7', '7', '7']";"[0.36951080011203885, 0.8815035000443459, 1.2655456999782473]";249.55926600005478;None;;;S11105;2021_Dec_14_1633;VideoMask;2021.1.2;120.06603654338147;
8.0;m;008_y_m_s_a.jpg;sad;7.0;happy_133.3.wmv;happy;9.0;incongruent;130.0;150.0;152.577966552593;s_h;;;;;0;16;16;16;;;;;;;252.55915850005113;None;254.04222770011984;254.35907370015047;255.48409050004557;255.50072200014256;257.4922993001528;None;None;0;;257.4922993001528;None;;;;;;;;7;;;;;;;259.04214969999157;None;None;None;[];259.04214969999157;None;"['9', '9']";"[0.4306924999691546, 0.8787191000301391]";259.04214969999157;None;;;S11105;2021_Dec_14_1633;VideoMask;2021.1.2;120.06603654338147;
3.0;m;033_o_m_h_a.jpg;happy;9.0;sad_128.1.wmv;sad;7.0;incongruent;120.0;160.0;171.0492454518585;h_s;;;;;0;17;17;17;;;;;;;262.0505656001624;None;263.70036120014265;264.01710549998097;265.1836157999933;265.2002916999627;267.15054500009865;None;None;0;;267.15054500009865;None;;;;;;;;4;;;;;;;268.7003623000346;None;None;None;[];268.7003623000346;None;['7'];[0.7085964998695999];268.7003623000346;None;;;S11105;2021_Dec_14_1633;VideoMask;2021.1.2;120.06603654338147;
1.0;f;021_o_f_h_a.jpg;happy;9.0;sad_116.1.wmv;sad;7.0;incongruent;120.0;160.0;184.06847610053055;h_s;;;;;0;18;18;18;;;;;;;271.70865410007536;None;273.466743899975;273.78343300009146;274.91678500012495;274.93353629997;276.91670040017925;None;None;0;;276.91670040017925;None;;;;;;;;3;;;;;;;278.46659470000304;None;None;None;[];278.46659470000304;None;"['7', '7']";"[0.41468079993501306, 1.3344059998635203]";278.46659470000304;None;;;S11105;2021_Dec_14_1633;VideoMask;2021.1.2;120.06603654338147;
4.0;m;004_o_m_s_a.jpg;sad;7.0;happy_28.1ns.avi;happy;9.0;incongruent;130.0;150.0;157.40741103039684;s_h;;;;;0;19;19;19;;;;;;;281.4665002999827;None;282.99978459998965;283.31650610012;284.44963260018267;284.4664492001757;288.8414797000587;None;9;0;0.9673872001003474;288.8414797000587;None;;;;;;;;8;;;;;;;290.39968030015007;None;None;None;[];290.39968030015007;None;"['9', '9', '9', '9']";"[0.15319520002231002, 0.5291291000321507, 0.9932006001472473, 1.4892734000459313]";290.39968030015007;None;;;S11105;2021_Dec_14_1633;VideoMask;2021.1.2;120.06603654338147;
8.0;f;028_y_f_s_a.jpg;sad;7.0;happy_122.3.wmv;happy;9.0;incongruent;130.0;150.0;171.8670540936116;s_h;;;;;0;20;20;20;;;;;;;293.4080833999906;None;295.0743212001398;295.39112629997544;296.532627500128;296.5495102000423;298.52451650006697;None;None;0;;298.52451650006697;None;;;;;;;;7;;;;;;;300.0658631999977;None;None;None;[];300.0658631999977;None;"['9', '9', '9', '9']";"[0.3110240001697093, 0.7669866001233459, 1.0949663000646979, 1.5830598999746144]";300.0658631999977;None;;;S11105;2021_Dec_14_1633;VideoMask;2021.1.2;120.06603654338147;
8.0;m;008_y_m_s_a.jpg;sad;7.0;sad_6.5ns.avi;sad;7.0;congruent;130.0;160.0;170.39333839271438;s_s;;;;;0;21;21;21;;;;;;;303.08266650000587;None;304.7241486001294;305.0408155999612;306.18237580009736;306.1992310001515;311.17415300011635;None;None;0;;311.17415300011635;None;;;;;;;;4;;;;;;;312.7239843001589;None;None;None;[];312.7239843001589;None;['7'];[0.3246593000367284];312.7239843001589;None;;;S11105;2021_Dec_14_1633;VideoMask;2021.1.2;120.06603654338147;
8.0;f;028_y_f_h_a.jpg;happy;9.0;happy_23.1ns.avi;happy;9.0;congruent;120.0;150.0;225.70986890587952;h_h;;;;;0;22;22;22;;;;;;;315.73225020011887;None;317.8321242001839;318.1487980000675;319.31531410012394;319.33215679996647;323.85709860012867;None;None;0;;323.85709860012867;None;;;;;;;;9;;;;;;;325.40705400006846;None;None;None;[];325.40705400006846;None;"['9', '9', '9', '9', '9']";"[0.46582440007478, 0.7776297000236809, 1.113818900194019, 1.4257754001300782, 2.2657606001012027]";325.40705400006846;None;;;S11105;2021_Dec_14_1633;VideoMask;2021.1.2;120.06603654338147;
8.0;m;008_y_m_h_a.jpg;happy;9.0;sad_111.1.wmv;sad;7.0;incongruent;120.0;160.0;152.63076835312847;h_s;;;;;0;23;23;23;;;;;;;328.4068342000246;None;329.8816943001002;330.1983189000748;331.3318096001167;331.34846630017273;333.33172739995643;None;None;0;;333.33172739995643;None;;;;;;;;4;;;;;;;334.88151590013877;None;None;None;[];334.88151590013877;None;"['7', '7']";"[0.38317749998532236, 2.7353658000938594]";334.88151590013877;None;;;S11105;2021_Dec_14_1633;VideoMask;2021.1.2;120.06603654338147;
0.0;f;040_y_f_s_a.jpg;sad;7.0;sad_67.2ns.avi;sad;7.0;congruent;130.0;160.0;220.9892697323079;s_s;;;;;0;24;24;24;;;;;;;337.88161250017583;None;339.9731864000205;340.298271200154;341.44811360002495;341.4648180999793;350.64798340015113;None;None;0;;350.64798340015113;None;;;;;;;;1;;;;;;;352.197795700049;None;None;None;[];352.197795700049;None;"['7', '7', '7', '7', '7']";"[0.2910718999337405, 0.6110688000917435, 0.9633005999494344, 1.2750065000727773, 1.5709826000966132]";352.197795700049;None;;;S11105;2021_Dec_14_1633;VideoMask;2021.1.2;120.06603654338147;
8.0;m;008_y_m_s_a.jpg;sad;7.0;happy_29.1ns.avi;happy;9.0;incongruent;130.0;150.0;120.0316142834122;s_h;;;;;0;25;25;25;;;;;;;355.20606690016575;None;356.4141630001832;356.7309679000173;357.9148731001187;357.93129920004867;360.5559622000437;None;None;0;;360.5559622000437;None;;;;;;;;8;;;;;;;362.10610050009564;None;None;None;[];362.10610050009564;None;"['9', '9', '9']";"[0.3107026000507176, 0.6547326000872999, 1.0066691001411527]";362.10610050009564;None;;;S11105;2021_Dec_14_1633;VideoMask;2021.1.2;120.06603654338147;
6.0;m;016_y_m_s_a.jpg;sad;7.0;sad_8.3ns.avi;sad;7.0;congruent;130.0;160.0;152.85371098242734;s_s;;;;;0;26;26;26;;;;;;;365.1140737000387;None;366.6390391001478;366.9555826000869;368.10544870002195;368.12223980017006;375.84703600010835;None;None;0;;375.84703600010835;None;;;;;;;;1;;;;;;;377.39701230009086;None;None;None;[];377.39701230009086;None;"['7', '7', '7', '7']";"[0.2758544001262635, 0.5557060001883656, 0.8037114001344889, 1.116005300078541]";377.39701230009086;None;;;S11105;2021_Dec_14_1633;VideoMask;2021.1.2;120.06603654338147;
6.0;m;016_y_m_h_a.jpg;happy;9.0;sad_114.1.wmv;sad;7.0;incongruent;120.0;160.0;136.20550699298644;h_s;;;;;0;27;27;27;;;;;;;380.4052583000157;None;381.75503630004823;382.07187540014274;383.20510650007054;383.2218796000816;385.2059375999961;None;None;0;;385.2059375999961;None;;;;;;;;1;;;;;;;386.76325260009617;None;None;None;[];386.76325260009617;None;"['7', '7', '7', '7', '7', '7', '7']";"[0.285676300060004, 0.8694658998865634, 1.1256858999840915, 1.3816819998901337, 1.6215683000627905, 1.8855856000445783, 2.573639699956402]";386.76325260009617;None;;;S11105;2021_Dec_14_1633;VideoMask;2021.1.2;120.06603654338147;
7.0;m;027_o_m_s_a.jpg;sad;7.0;happy_117.3.wmv;happy;9.0;incongruent;130.0;150.0;215.61964028550614;s_h;;;;;0;28;28;28;;;;;;;389.77170830010436;None;391.77151480014436;392.08819150016643;393.23832750017755;393.2548867999576;395.22162930015475;None;None;0;;395.22162930015475;None;;;;;;;;8;;;;;;;396.7714037001133;None;None;None;[];396.7714037001133;None;"['9', '9', '9']";"[0.3734492000658065, 0.7013626000843942, 2.8536543000955135]";396.7714037001133;None;;;S11105;2021_Dec_14_1633;VideoMask;2021.1.2;120.06603654338147;
6.0;m;016_y_m_h_a.jpg;happy;9.0;happy_9.2ns.avi;happy;9.0;congruent;120.0;150.0;130.52042428082717;h_h;;;;;0;29;29;29;;;;;;;399.77129800012335;None;401.0962923001498;401.41290540015325;402.5795532001648;402.5967135000974;408.4713247001637;None;9;0;1.2493291001301259;408.4713247001637;None;;;;;;;;7;;;;;;;410.0127381000202;None;None;None;[];410.0127381000202;None;"['9', '9']";"[0.34023179998621345, 0.6198835000395775]";410.0127381000202;None;;;S11105;2021_Dec_14_1633;VideoMask;2021.1.2;120.06603654338147;
0.0;f;040_y_f_s_a.jpg;sad;7.0;happy_127.3.wmv;happy;9.0;incongruent;130.0;150.0;131.7195455720239;s_h;;;;;0;30;30;30;;;;;;;413.02108660014346;None;414.3124490000773;414.62922520004213;415.7542553001549;415.7708954999689;417.8376593000721;None;None;0;;417.8376593000721;None;;;;;;;;8;;;;;;;419.3880942000542;None;None;None;[];419.3880942000542;None;"['9', '9', '9']";"[0.3009154999163002, 0.596584599930793, 1.0365448999218643]";419.3880942000542;None;;;S11105;2021_Dec_14_1633;VideoMask;2021.1.2;120.06603654338147;
0.0;f;030_o_f_s_a.jpg;sad;7.0;happy_125.3.wmv;happy;9.0;incongruent;130.0;150.0;220.51454909128134;s_h;;;;;0;31;31;31;;;;;;;422.3873451000545;None;424.44546630000696;424.7622297001071;425.92054009996355;425.93717260006815;427.89551760000177;None;None;0;;427.89551760000177;None;;;;;;;;5;;;;;;;429.4455730000045;None;None;None;[];429.4455730000045;None;None;;429.4455730000045;None;;;S11105;2021_Dec_14_1633;VideoMask;2021.1.2;120.06603654338147;
0.0;f;030_o_f_s_a.jpg;sad;7.0;sad_64.3ns.avi;sad;7.0;congruent;130.0;160.0;165.78667874766072;s_s;;;;;0;32;32;32;;;;;;;432.4619629001245;None;434.0703565001022;434.38681509997696;435.5286618000828;435.5452686001081;440.5201820000075;None;None;0;;440.5201820000075;None;;;;;;;;2;;;;;;;442.0702357001137;None;None;None;[];442.0702357001137;None;"['7', '7', '7']";"[0.3548145000822842, 0.8348531001247466, 2.698887800099328]";442.0702357001137;None;;;S11105;2021_Dec_14_1633;VideoMask;2021.1.2;120.06603654338147;
3.0;m;013_y_m_s_a.jpg;sad;7.0;sad_7.7ns.avi;sad;7.0;congruent;130.0;160.0;196.24182255763262;s_s;;;;;0;33;33;33;;;;;;;445.07833910011686;None;446.9364402999636;447.25308980001137;448.4113360999618;448.4280268000439;454.38639320014045;None;7;0;1.4309384000953287;454.38639320014045;None;;;;;;;;1;;;;;;;455.9363345000893;None;None;None;[];455.9363345000893;None;"['7', '7', '7', '7', '7']";"[0.3602663998026401, 0.6403645998798311, 0.9283854998648167, 1.304591199848801, 1.7366057999897748]";455.9363345000893;None;;;S11105;2021_Dec_14_1633;VideoMask;2021.1.2;120.06603654338147;
3.0;m;013_y_m_h_a.jpg;happy;9.0;happy_9.1ns.avi;happy;9.0;congruent;120.0;150.0;165.1890303600433;h_h;;;;;0;34;34;34;;;;;;;458.94471450010315;None;460.5612268000841;460.8777467000764;462.0444955001585;462.06113070016727;465.2362919000443;None;None;0;;465.2362919000443;None;;;;;;;;7;;;;;;;466.7860887001734;None;None;None;[];466.7860887001734;None;"['9', '9']";"[0.36681119981221855, 0.7988062999211252]";466.7860887001734;None;;;S11105;2021_Dec_14_1633;VideoMask;2021.1.2;120.06603654338147;
4.0;m;004_o_m_h_a.jpg;happy;9.0;sad_95.1ns.avi;sad;7.0;incongruent;120.0;160.0;152.68270002069931;h_s;;;;;0;35;35;35;;;;;;;469.7859676000662;None;471.3275652001612;471.64419839996845;472.84400920011103;472.8606775000226;481.56908500008285;None;None;0;;481.56908500008285;None;;;;;;;;2;;;;;;;483.118899699999;None;None;None;[];483.118899699999;None;"['7', '7', '7', '7']";"[0.4421578999608755, 0.8578705999534577, 1.2018738999031484, 1.8420869000256062]";483.118899699999;None;;;S11105;2021_Dec_14_1633;VideoMask;2021.1.2;120.06603654338147;
3.0;m;013_y_m_h_a.jpg;happy;9.0;sad_113.2.wmv;sad;7.0;incongruent;120.0;160.0;217.4973891947951;h_s;;;;;0;36;36;36;;;;;;;486.1271936001722;None;488.1769427000545;488.4935515001416;489.62700450001284;489.6437495001592;491.6268651999999;None;None;0;;491.6268651999999;None;;;;;;;;1;;;;;;;493.20256240013987;None;None;None;[];493.20256240013987;None;"['7', '7', '7', '7']";"[0.4865526999346912, 0.8140975998248905, 1.11019519995898, 1.974184599937871]";493.20256240013987;None;;;S11105;2021_Dec_14_1633;VideoMask;2021.1.2;120.06603654338147;
4.0;m;004_o_m_h_a.jpg;happy;9.0;happy_25.1ns.avi;happy;9.0;congruent;120.0;150.0;216.63044503818386;h_h;;;;;0;37;37;37;;;;;;;496.201967400033;None;498.24327250011265;498.560021399986;499.7684530999977;499.78500790009275;503.38528070016764;None;None;0;;503.38528070016764;None;;;;;;;;5;;;;;;;504.94301620009355;None;None;None;[];504.94301620009355;None;None;;504.94301620009355;None;;;S11105;2021_Dec_14_1633;VideoMask;2021.1.2;120.06603654338147;
4.0;m;004_o_m_s_a.jpg;sad;7.0;happy_131.2.wmv;happy;9.0;incongruent;130.0;150.0;181.38407540847405;s_h;;;;;0;38;38;38;;;;;;;507.9847947000526;None;509.7179786001798;510.03456180007197;511.1678451001644;511.1928222000133;513.1680316000711;None;None;0;;513.1680316000711;None;;;;;;;;5;;;;;;;514.7181325999554;None;None;None;[];514.7181325999554;None;None;;514.7181325999554;None;;;S11105;2021_Dec_14_1633;VideoMask;2021.1.2;120.06603654338147;
0.0;f;040_y_f_h_a.jpg;happy;9.0;happy_24.3ns.avi;happy;9.0;congruent;120.0;150.0;213.25460698950434;h_h;;;;;0;39;39;39;;;;;;;517.7510314001702;None;519.7426322000101;520.0594651000574;521.1926846001297;521.2094571001362;523.1175802999642;None;None;0;;523.1175802999642;None;;;;;;;;5;;;;;;;524.6679030000232;None;None;None;[];524.6679030000232;None;None;;524.6679030000232;None;;;S11105;2021_Dec_14_1633;VideoMask;2021.1.2;120.06603654338147;
2.0;f;012_o_f_s_a.jpg;sad;7.0;happy_139.1.wmv;happy;9.0;incongruent;130.0;150.0;162.31500468041804;s_h;;;;;0;40;40;40;;;;;;;527.692771299975;None;529.2673675999977;529.5841519001406;530.7174643999897;530.7341335001402;532.7173586001154;None;None;0;;532.7173586001154;None;;;;;;;;6;;;;;;;534.2677945001051;None;None;None;[];534.2677945001051;None;"['9', '9']";"[0.5010921999346465, 1.1172014998737723]";534.2677945001051;None;;;S11105;2021_Dec_14_1633;VideoMask;2021.1.2;120.06603654338147;
0.0;f;030_o_f_h_a.jpg;happy;9.0;happy_24.1ns.avi;happy;9.0;congruent;120.0;150.0;168.36256624020774;h_h;;;;;0;41;41;41;;;;;;;537.267283400055;None;538.900668400107;539.2172273001634;540.3841787001584;540.40882290015;543.6754477000795;None;None;0;;543.6754477000795;None;;;;;;;;7;;;;;;;545.2337388000451;None;None;None;[];545.2337388000451;None;"['9', '9']";"[0.4151721999514848, 0.7674418000970036]";545.2337388000451;None;;;S11105;2021_Dec_14_1633;VideoMask;2021.1.2;120.06603654338147;
2.0;f;012_o_f_h_a.jpg;happy;9.0;sad_113.1.wmv;sad;7.0;incongruent;120.0;160.0;177.44551734737394;h_s;;;;;0;42;42;42;;;;;;;548.2420840000268;None;549.9334055001382;550.2500999001786;551.3999094001483;551.4165921001695;553.3834250001237;None;None;0;;553.3834250001237;None;;;;;;;;3;;;;;;;554.9334126000758;None;None;None;[];554.9334126000758;None;"['7', '7']";"[1.1315784000325948, 1.6996326001826674]";554.9334126000758;None;;;S11105;2021_Dec_14_1633;VideoMask;2021.1.2;120.06603654338147;
3.0;m;033_o_m_s_a.jpg;sad;7.0;sad_64.5ns.avi;sad;7.0;congruent;130.0;160.0;130.55717223801247;s_s;;;;;0;43;43;43;;;;;;;557.9417511001229;None;559.2748688999563;559.5915290999692;560.7332093000878;560.7498516000342;567.3081603001337;None;None;0;;567.3081603001337;None;;;;;;;;1;;;;;;;568.8579703001305;None;None;None;[];568.8579703001305;None;"['7', '7', '7', '7']";"[0.3589467001147568, 0.6547540000174195, 0.9187402001116425, 1.182722199941054]";568.8579703001305;None;;;S11105;2021_Dec_14_1633;VideoMask;2021.1.2;120.06603654338147;
7.0;m;027_o_m_h_a.jpg;happy;9.0;sad_117.1.wmv;sad;7.0;incongruent;120.0;160.0;181.28665202824095;h_s;;;;;0;44;44;44;;;;;;;571.8578956001438;None;573.5910996000748;573.9077942001168;575.05839130003;575.0909710000269;577.0411441000178;None;None;0;;577.0411441000178;None;;;;;;;;2;;;;;;;578.5909230001271;None;None;None;[];578.5909230001271;None;"['7', '7', '7', '7']";"[0.3061506999656558, 0.6017924000043422, 1.0259600998833776, 1.3217815000098199]";578.5909230001271;None;;;S11105;2021_Dec_14_1633;VideoMask;2021.1.2;120.06603654338147;
3.0;m;033_o_m_s_a.jpg;sad;7.0;happy_126.3.wmv;happy;9.0;incongruent;130.0;150.0;198.85252030535366;s_h;;;;;0;45;45;45;;;;;;;581.5992860000115;None;583.4657230000012;583.7824071000796;584.9240369000472;584.9410171001218;586.9155931000132;None;None;0;;586.9155931000132;None;;;;;;;;7;;;;;;;588.4655405001249;None;None;None;[];588.4655405001249;None;"['9', '9']";"[1.5995140001177788, 2.2953747999854386]";588.4655405001249;None;;;S11105;2021_Dec_14_1633;VideoMask;2021.1.2;120.06603654338147;
3.0;m;033_o_m_h_a.jpg;happy;9.0;sad_136.1.wmv;sad;7.0;incongruent;120.0;160.0;176.97002883463455;h_s;;;;;0;46;46;46;;;;;;;591.4739682001527;None;593.1654173000716;593.482055200031;594.6071430000011;594.623760699993;596.6155271001626;None;None;0;;596.6155271001626;None;;;;;;;;2;;;;;;;598.1652520999778;None;None;None;[];598.1652520999778;None;"['7', '7', '7']";"[0.32371870009228587, 0.7075710000935942, 2.651808900060132]";598.1652520999778;None;;;S11105;2021_Dec_14_1633;VideoMask;2021.1.2;120.06603654338147;
9.0;f;019_m_f_h_a.jpg;happy;9.0;happy_10.1ns.avi;happy;9.0;congruent;120.0;150.0;157.2463435658512;h_h;;;;;0;47;47;47;;;;;;;601.1653432999738;None;602.7319527000654;603.0485572000034;604.1901404999662;604.20688910014;611.6233622001018;None;None;0;;611.6233622001018;None;;;;;;;;8;;;;;;;613.1734001000877;None;None;None;[];613.1734001000877;None;"['9', '9', '9', '9']";"[0.21958190016448498, 0.6114654999691993, 0.9073663000017405, 1.195322000188753]";613.1734001000877;None;;;S11105;2021_Dec_14_1633;VideoMask;2021.1.2;120.06603654338147;
2.0;f;012_o_f_h_a.jpg;happy;9.0;happy_2.2ns.avi;happy;9.0;congruent;120.0;150.0;206.34800317295262;h_h;;;;;0;48;48;48;;;;;;;616.1815430000424;None;618.1981154000387;618.5146763001103;619.6647894000635;619.6813970999792;631.8478514000308;None;9;0;1.3449913999065757;631.8478514000308;None;;;;;;;;7;;;;;;;633.3976265001111;None;None;None;[];633.3976265001111;None;"['9', '9']";"[0.37909970013424754, 1.043196100043133]";633.3976265001111;None;;;S11105;2021_Dec_14_1633;VideoMask;2021.1.2;120.06603654338147;
3.0;m;033_o_m_h_a.jpg;happy;9.0;happy_24.2ns.avi;happy;9.0;congruent;120.0;150.0;167.9423847659953;h_h;;;;;0;49;49;49;;;;;;;636.3975059001241;None;638.022284500068;638.3391659001354;639.4642030000687;639.4808074000757;643.2141146999784;None;None;0;;643.2141146999784;None;;;;;;;;5;;;;;;;644.7724739001133;None;None;None;[];644.7724739001133;None;None;;644.7724739001133;None;;;S11105;2021_Dec_14_1633;VideoMask;2021.1.2;120.06603654338147;
1.0;f;021_o_f_s_a.jpg;sad;7.0;happy_61.2ns.avi;happy;9.0;incongruent;130.0;150.0;210.94664004826666;s_h;;;;;0;50;50;50;;;;;;;647.7971040001139;None;649.7971177999862;650.1138389001135;651.3061277000234;651.3306114999577;655.7804203000851;None;None;0;;655.7804203000851;None;;;;;;;;5;;;;;;;657.3301656001713;None;None;None;[];657.3301656001713;None;None;;657.3301656001713;None;;;S11105;2021_Dec_14_1633;VideoMask;2021.1.2;120.06603654338147;
4.0;m;004_o_m_s_a.jpg;sad;7.0;sad_2.4ns.avi;sad;7.0;congruent;130.0;160.0;153.02079367163634;s_s;;;;;0;51;51;51;;;;;;;660.355178900063;None;661.8635025001131;662.1800923000555;663.3301031000447;663.3467041000258;671.2799321999773;None;None;0;;671.2799321999773;None;;;;;;;;4;;;;;;;672.8299551000819;None;None;None;[];672.8299551000819;None;['7'];[0.259024899918586];672.8299551000819;None;;;S11105;2021_Dec_14_1633;VideoMask;2021.1.2;120.06603654338147;
8.0;m;008_y_m_h_a.jpg;happy;9.0;happy_1.2ns.avi;happy;9.0;congruent;120.0;150.0;210.98946429383824;h_h;;;;;0;52;52;52;;;;;;;675.8381437000353;None;677.8963209001813;678.212851600023;679.346238899976;679.3629154001828;692.1375335000921;None;None;0;;692.1375335000921;None;;;;;;;;9;;;;;;;693.687339000171;None;None;None;[];693.687339000171;None;"['9', '9', '9', '9', '9']";"[0.24973769998177886, 0.5293676999863237, 0.7853592000901699, 1.1614512000232935, 1.4655005000531673]";693.687339000171;None;;;S11105;2021_Dec_14_1633;VideoMask;2021.1.2;120.06603654338147;
2.0;f;012_o_f_s_a.jpg;sad;7.0;happy_52.2ns.avi;happy;9.0;incongruent;130.0;150.0;172.57202848318138;s_h;;;;;0;53;53;53;;;;;;;696.6957948000636;None;698.3373498001602;698.6540514000226;699.8455026000738;699.8621213000733;703.3371427000966;None;None;0;;703.3371427000966;None;;;;;;;;8;;;;;;;704.887054100167;None;None;None;[];704.887054100167;None;"['9', '9', '9']";"[0.761871499940753, 1.2256198998074979, 2.242023699916899]";704.887054100167;None;;;S11105;2021_Dec_14_1633;VideoMask;2021.1.2;120.06603654338147;
9.0;f;019_m_f_s_a.jpg;sad;7.0;happy_61.1ns.avi;happy;9.0;incongruent;130.0;150.0;181.3003220572762;s_h;;;;;0;54;54;54;;;;;;;707.8870904000942;None;709.662011800101;709.9786298000254;711.1453560001682;711.1619896001648;718.5035972001497;None;None;0;;718.5035972001497;None;;;;;;;;5;;;;;;;720.0537599001545;None;None;None;[];720.0537599001545;None;None;;720.0537599001545;None;;;S11105;2021_Dec_14_1633;VideoMask;2021.1.2;120.06603654338147;
0.0;f;030_o_f_h_a.jpg;happy;9.0;sad_133.1.wmv;sad;7.0;incongruent;120.0;160.0;198.86251500867985;h_s;;;;;0;55;55;55;;;;;;;723.0865859000478;None;724.9614532000851;725.2781518001575;726.4032678999938;726.4198372000828;728.4113390001003;None;None;0;;728.4113390001003;None;;;;;;;;3;;;;;;;729.9615958000068;None;None;None;[];729.9615958000068;None;"['7', '7']";"[0.327326700091362, 0.7032733000814915]";729.9615958000068;None;;;S11105;2021_Dec_14_1633;VideoMask;2021.1.2;120.06603654338147;
0.0;f;040_y_f_h_a.jpg;happy;9.0;sad_128.2.wmv;sad;7.0;incongruent;120.0;160.0;206.10005857915363;h_s;;;;;0;56;56;56;;;;;;;732.9696912001818;None;734.9028908000328;735.2194831001107;736.3527127001435;736.3693542999681;738.3528983001597;None;None;0;;738.3528983001597;None;;;;;;;;1;;;;;;;739.894294400001;None;None;None;[];739.894294400001;None;"['7', '7', '7', '7', '7', '7']";"[0.4026526000816375, 0.6987809999845922, 1.0106932001654059, 1.3066565000917763, 1.6346033001318574, 1.9388353000395]";739.894294400001;None;;;S11105;2021_Dec_14_1633;VideoMask;2021.1.2;120.06603654338147;
1.0;f;021_o_f_s_a.jpg;sad;7.0;sad_9.5ns.avi;sad;7.0;congruent;130.0;160.0;206.16642757875042;s_s;;;;;0;57;57;57;;;;;;;742.9027005000971;None;744.8357473001815;745.152539800154;746.2939677000977;746.3107960000634;752.0108444001526;None;None;0;;752.0108444001526;None;;;;;;;;3;;;;;;;753.9606835001614;None;None;None;[];753.9606835001614;None;"['7', '7']";"[0.4562530000694096, 2.0723846000619233]";753.9606835001614;None;;;S11105;2021_Dec_14_1633;VideoMask;2021.1.2;120.06603654338147;
1.0;f;021_o_f_h_a.jpg;happy;9.0;happy_12.1ns.avi;happy;9.0;congruent;120.0;150.0;132.59080005900228;h_h;;;;;0;58;58;58;;;;;;;756.9689893000759;None;758.327265100088;758.643774600001;759.8271582999732;759.843735100003;767.3936650000978;None;None;0;;767.3936650000978;None;;;;;;;;5;;;;;;;768.9437699001282;None;None;None;[];768.9437699001282;None;None;;768.9437699001282;None;;;S11105;2021_Dec_14_1633;VideoMask;2021.1.2;120.06603654338147;
3.0;m;013_y_m_s_a.jpg;sad;7.0;happy_56.2ns.avi;happy;9.0;incongruent;130.0;150.0;163.39234110935848;s_h;;;;;0;59;59;59;;;;;;;771.9684948001523;None;773.5601043000352;773.8765229999553;775.0933453000616;775.1100800000131;780.0349135999568;None;None;0;;780.0349135999568;None;;;;;;;;9;;;;;;;781.5846933000721;None;None;None;[];781.5846933000721;None;"['9', '9', '9', '9', '9', '9']";"[0.2961875000037253, 0.6160637000575662, 0.960197500186041, 1.5202483001630753, 2.0003925000783056, 2.368369300151244]";781.5846933000721;None;;;S11105;2021_Dec_14_1633;VideoMask;2021.1.2;120.06603654338147;
;;;;;;;;;;;;;;;;;;;;;;;;;;;;;;;;;;;;;;;;;;;;;;;;;;;;;;;;;;;;;;;;;784.5849140000064;None;;;;;;
