primePerson;primeGender;prime;primeEmotion;corrAnsPrime;target;targetEmotion;corrAnsTar;Cond;ID_Primer;ID_Target;JitterTime;Condition;example.thisRepN;example.thisTrialN;example.thisN;example.thisIndex;study.thisRepN;study.thisTrialN;study.thisN;study.thisIndex;MR_trigger_time;MR_trigger_number;text_intro.started;text_intro.stopped;text_probe.started;text_probe.stopped;polygon_ISI.started;polygon_ISI.stopped;polygon.started;polygon.stopped;primerImage.started;primerImage.stopped;response.started;response.stopped;key_resp.keys;key_resp.corr;key_resp.rt;key_resp.started;key_resp.stopped;slider_Text.started;slider_Text.stopped;slider_ex.response;slider_ex.rt;slider_ex.history;slider_ex.started;slider_ex.stopped;Rating;slider_resp_response.keys;slider_resp_response.started;slider_resp_response.stopped;text_start.started;text_start.stopped;text_slider.started;text_slider.stopped;slider_stud.response;slider_stud.rt;slider_stud.history;slider_stud.started;slider_stud.stopped;slider_resp_study.keys;slider_resp_study.started;slider_resp_study.stopped;slider_resp_study.rt;text_ende.started;text_ende.stopped;participant;date;expName;psychopyVersion;frameRate;
1111;m;1111_m_m_h_a.jpg;happy;9;example_30.4ns.avi;neutral;7;incongruent;120.0;170.0;189.5874364012288;;0;0;0;0;;;;;173.4482814000221;1;173.52595839998685;175.52613929996733;175.52613929996733;None;177.54273979994468;None;179.7927478000056;180.12604429991916;181.2593373999698;181.27592949999962;185.58418999996502;None;8;0;1.249435200006701;185.58418999996502;None;187.15913159993943;None;None;None;[];187.15913159993943;None;5;None;187.15913159993943;None;;;;;;;;;;;;;;;;S11179;2022_Jan_31_1707;VideoMask;2021.1.2;119.94074920968846;
1113;f;1113_y_f_s_a.jpg;sad;7;example_30.3ns.avi;neutral;7;incongruent;130.0;170.0;229.02432995836998;;0;1;1;1;;;;;;;;;;;190.1590897999704;None;192.2922199999448;192.6089168000035;193.78398649999872;193.8006432999391;195.74227149994113;None;8;0;1.0592922999057919;195.74227149994113;None;197.29218340001535;None;None;None;[];197.29218340001535;None;5;None;197.29218340001535;None;;;;;;;;;;;;;;;;S11179;2022_Jan_31_1707;VideoMask;2021.1.2;119.94074920968846;
9.0;f;019_m_f_h_a.jpg;happy;9.0;sad_115.1.wmv;sad;7.0;incongruent;120.0;160.0;128.09063432376465;h_s;;;;;0;0;0;0;;;;;;;201.32540879992303;None;202.6168698000256;202.9336159999948;204.06737549998797;204.08393600001;206.0670633999398;None;None;0;;206.0670633999398;None;;;;;;;;5;;;;200.31712249992415;None;207.6169469000306;None;None;None;[];207.6169469000306;None;None;207.6169469000306;None;;;;S11179;2022_Jan_31_1707;VideoMask;2021.1.2;119.94074920968846;
3.0;m;033_o_m_s_a.jpg;sad;7.0;sad_94.2ns.avi;sad;7.0;congruent;130.0;160.0;182.29120173647655;s_s;;;;;0;1;1;1;;;;;;;210.6418635000009;None;212.37494220002554;212.69165219995193;213.89168789994437;213.9084338999819;216.51661940000486;None;None;0;;216.51661940000486;None;;;;;;;;5;;;;;;218.06662039994262;None;None;None;[];218.06662039994262;None;None;218.06662039994262;None;;;;S11179;2022_Jan_31_1707;VideoMask;2021.1.2;119.94074920968846;
8.0;m;008_y_m_h_a.jpg;happy;9.0;happy_26.1ns.avi;happy;9.0;congruent;120.0;150.0;155.9437854594882;h_h;;;;;0;2;2;2;;;;;;;221.0831289999187;None;222.59130650002044;222.9080995999975;224.10015730001032;224.11680389998946;226.0330119000282;None;9;0;0.9606554999481887;226.0330119000282;None;;;;;;;;7;;;;;;227.58296709996648;None;None;None;[];227.58296709996648;None;"['9', '9']";227.58296709996648;None;"[0.8988359000068158, 1.6907029000576586]";;;S11179;2022_Jan_31_1707;VideoMask;2021.1.2;119.94074920968846;
0.0;f;040_y_f_h_a.jpg;happy;9.0;sad_138.1.wmv;sad;7.0;incongruent;120.0;160.0;133.99071306426532;h_s;;;;;0;3;3;3;;;;;;;230.59132140001748;None;231.92441670002881;232.2410984999733;233.3661363000283;233.3826807999285;235.3743581000017;None;8;0;0.7232769000111148;235.3743581000017;None;;;;;;;;4;;;;;;236.92434279993176;None;None;None;[];236.92434279993176;None;['7'];236.92434279993176;None;[0.621119000017643];;;S11179;2022_Jan_31_1707;VideoMask;2021.1.2;119.94074920968846;
8.0;f;028_y_f_s_a.jpg;sad;7.0;sad_64.2ns.avi;sad;7.0;congruent;130.0;160.0;229.88540597086478;s_s;;;;;0;4;4;4;;;;;;;239.92427359998692;None;242.09083709993865;242.4073985000141;243.55751970002893;243.57409699994605;254.54062430001795;None;7;0;0.5967821000376716;254.54062430001795;None;;;;;;;;2;;;;;;256.09044309996534;None;None;None;[];256.09044309996534;None;"['7', '7', '7', '7']";256.09044309996534;None;"[0.351441300008446, 0.7271493000444025, 1.1354686000850052, 1.9515425000572577]";;;S11179;2022_Jan_31_1707;VideoMask;2021.1.2;119.94074920968846;
7.0;m;027_o_m_s_a.jpg;sad;7.0;sad_10.4ns.avi;sad;7.0;congruent;130.0;160.0;185.20129417468752;s_s;;;;;0;5;5;5;;;;;;;259.09879449999426;None;260.86518169997726;261.18189020000864;262.340253100032;262.3568105000304;265.4820517000044;None;7;0;0.8075703999493271;265.4820517000044;None;;;;;;;;2;;;;;;267.031780899968;None;None;None;[];267.031780899968;None;"['7', '7', '7', '7', '7']";267.031780899968;None;"[0.37000580003950745, 0.7858122000470757, 1.2255819999845698, 2.2579206000082195, 2.6658283000579104]";;;S11179;2022_Jan_31_1707;VideoMask;2021.1.2;119.94074920968846;
2.0;f;012_o_f_s_a.jpg;sad;7.0;sad_7.5ns.avi;sad;7.0;congruent;130.0;160.0;220.27842655424388;s_s;;;;;0;6;6;6;;;;;;;270.03170960000716;None;272.08163809997495;272.3981650000205;273.55663300002925;273.5732577999588;276.3231574000092;None;8;0;1.454246300039813;276.3231574000092;None;;;;;;;;4;;;;;;277.8731904999586;None;None;None;[];277.8731904999586;None;['7'];277.8731904999586;None;[1.2244187000906095];;;S11179;2022_Jan_31_1707;VideoMask;2021.1.2;119.94074920968846;
2.0;f;012_o_f_h_a.jpg;happy;9.0;happy_27.1ns.avi;happy;9.0;congruent;120.0;150.0;146.44967055810616;h_h;;;;;0;7;7;7;;;;;;;280.8730635999236;None;282.3061957999598;282.62290990003385;283.7896401999751;283.8062613999937;286.2478088999633;None;9;0;0.6259452000958845;286.2478088999633;None;;;;;;;;7;;;;;;287.79778070002794;None;None;None;[];287.79778070002794;None;"['9', '9']";287.79778070002794;None;"[0.5562379999319091, 1.2443008000263944]";;;S11179;2022_Jan_31_1707;VideoMask;2021.1.2;119.94074920968846;
8.0;f;028_y_f_h_a.jpg;happy;9.0;sad_119.1.wmv;sad;7.0;incongruent;120.0;160.0;148.71526953572538;h_s;;;;;0;8;8;8;;;;;;;290.79774059995543;None;292.2642367000226;292.5808871999616;293.7148436999414;293.7392601999454;295.78102170000784;None;7;0;0.6764493000227958;295.78102170000784;None;;;;;;;;3;;;;;;297.32255499996245;None;None;None;[];297.32255499996245;None;"['7', '7']";297.32255499996245;None;"[0.4313143000472337, 1.3193699000403285]";;;S11179;2022_Jan_31_1707;VideoMask;2021.1.2;119.94074920968846;
6.0;m;016_y_m_s_a.jpg;sad;7.0;happy_60.4ns.avi;happy;9.0;incongruent;130.0;150.0;126.02367393611817;s_h;;;;;0;9;9;9;;;;;;;300.3225535999518;None;301.6055349999806;301.9223463999806;303.0728192999959;303.0974918999709;308.84706619998906;None;9;0;0.4906284000026062;308.84706619998906;None;;;;;;;;6;;;;;;310.3971631999593;None;None;None;[];310.3971631999593;None;['9'];310.3971631999593;None;[0.3805470000952482];;;S11179;2022_Jan_31_1707;VideoMask;2021.1.2;119.94074920968846;
9.0;f;019_m_f_s_a.jpg;sad;7.0;sad_8.4ns.avi;sad;7.0;congruent;130.0;160.0;171.6633093155257;s_s;;;;;0;10;10;10;;;;;;;313.39728109992575;None;315.08855460002087;315.4053557999432;316.5726542000193;316.60557419992983;324.68010549992323;None;7;0;0.6016194999683648;324.68010549992323;None;;;;;;;;3;;;;;;326.23002539994195;None;None;None;[];326.23002539994195;None;"['7', '7', '7']";326.23002539994195;None;"[0.4675990000832826, 0.8355890000239015, 1.3156167000997812]";;;S11179;2022_Jan_31_1707;VideoMask;2021.1.2;119.94074920968846;
4.0;m;004_o_m_h_a.jpg;happy;9.0;happy_1.1ns.avi;happy;9.0;congruent;120.0;150.0;203.50057144619865;h_h;;;;;0;11;11;11;;;;;;;329.23003239999525;None;331.213028499973;331.5298380999593;332.7385613999795;332.75512600003276;347.14606689999346;None;8;0;0.9197811000049114;347.14606689999346;None;;;;;;;;3;;;;;;348.687657799921;None;None;None;[];348.687657799921;None;"['7', '7']";348.687657799921;None;"[0.3779627999756485, 1.3782339999452233]";;;S11179;2022_Jan_31_1707;VideoMask;2021.1.2;119.94074920968846;
7.0;m;027_o_m_h_a.jpg;happy;9.0;happy_20.1ns.avi;happy;9.0;congruent;120.0;150.0;152.91127178874285;h_h;;;;;0;12;12;12;;;;;;;351.68767469993327;None;353.1874215999851;353.5041429999983;354.6790367999347;354.69572820002213;357.6541209999705;None;9;0;0.6276206000475213;357.6541209999705;None;;;;;;;;8;;;;;;359.2040482999291;None;None;None;[];359.2040482999291;None;"['9', '9', '9', '9', '9']";359.2040482999291;None;"[0.39775829995051026, 0.74958990002051, 1.0774571999209002, 1.4695912000024691, 1.9735893999459222]";;;S11179;2022_Jan_31_1707;VideoMask;2021.1.2;119.94074920968846;
0.0;f;040_y_f_s_a.jpg;sad;7.0;sad_94.3ns.avi;sad;7.0;congruent;130.0;160.0;155.27414203894395;s_s;;;;;0;13;13;13;;;;;;;362.21236040000804;None;363.7121296999976;364.0289177999366;365.20379389997106;365.22050950000994;367.78726339992136;None;8;0;0.7664266999345273;367.78726339992136;None;;;;;;;;4;;;;;;369.337097599986;None;None;None;[];369.337097599986;None;['7'];369.337097599986;None;[0.6328089999733493];;;S11179;2022_Jan_31_1707;VideoMask;2021.1.2;119.94074920968846;
0.0;f;030_o_f_s_a.jpg;sad;7.0;sad_68.1ns.avi;sad;7.0;congruent;130.0;160.0;158.9411396037211;s_s;;;;;0;14;14;14;;;;;;;372.345317899948;None;373.90365100000054;374.22021169995423;375.4202320999466;375.43687710002996;382.7784689000109;None;7;0;0.6154304000083357;382.7784689000109;None;;;;;;;;3;;;;;;384.32828709995374;None;None;None;[];384.32828709995374;None;"['7', '7']";384.32828709995374;None;"[0.4736989000812173, 0.9374475000659004]";;;S11179;2022_Jan_31_1707;VideoMask;2021.1.2;119.94074920968846;
0.0;f;030_o_f_h_a.jpg;happy;9.0;sad_127.1.wmv;sad;7.0;incongruent;120.0;160.0;180.59976631384873;h_s;;;;;0;15;15;15;;;;;;;387.3281958999578;None;389.06141109997407;389.3781110999407;390.511542799999;390.5281309999991;392.519780099974;None;7;0;1.1379025999922305;392.519780099974;None;;;;;;;;4;;;;;;394.0697137999814;None;None;None;[];394.0697137999814;None;"['7', '7']";394.0697137999814;None;"[0.6201600000495091, 1.1321525999810547]";;;S11179;2022_Jan_31_1707;VideoMask;2021.1.2;119.94074920968846;
8.0;m;008_y_m_s_a.jpg;sad;7.0;happy_133.3.wmv;happy;9.0;incongruent;130.0;150.0;152.577966552593;s_h;;;;;0;16;16;16;;;;;;;397.06962899991777;None;398.56942419998813;398.8861544999527;400.0110562000191;400.0277863999363;402.01946149999276;None;None;0;;402.01946149999276;None;;;;;;;;3;;;;;;403.5694518999662;None;None;None;[];403.5694518999662;None;"['7', '7', '7']";403.5694518999662;None;"[0.9605721000116318, 1.4643503000261262, 1.8961583999916911]";;;S11179;2022_Jan_31_1707;VideoMask;2021.1.2;119.94074920968846;
3.0;m;033_o_m_h_a.jpg;happy;9.0;sad_128.1.wmv;sad;7.0;incongruent;120.0;160.0;171.0492454518585;h_s;;;;;0;17;17;17;;;;;;;406.56936650001444;None;408.22740059997886;408.54419809998944;409.71081369998865;409.72759229992516;411.6775392999407;None;7;0;0.7403433999279514;411.6775392999407;None;;;;;;;;4;;;;;;413.22748190001585;None;None;None;[];413.22748190001585;None;['7'];413.22748190001585;None;[1.0304938999470323];;;S11179;2022_Jan_31_1707;VideoMask;2021.1.2;119.94074920968846;
1.0;f;021_o_f_h_a.jpg;happy;9.0;sad_116.1.wmv;sad;7.0;incongruent;120.0;160.0;184.06847610053055;h_s;;;;;0;18;18;18;;;;;;;416.2274255999364;None;418.0104901000159;418.3272481999593;419.46859579999;419.4853724000277;421.4606340000173;None;7;0;0.8132461999775842;421.4606340000173;None;;;;;;;;3;;;;;;423.0105374000268;None;None;None;[];423.0105374000268;None;"['7', '7']";423.0105374000268;None;"[0.38318579993210733, 0.7353967999806628]";;;S11179;2022_Jan_31_1707;VideoMask;2021.1.2;119.94074920968846;
4.0;m;004_o_m_s_a.jpg;sad;7.0;happy_28.1ns.avi;happy;9.0;incongruent;130.0;150.0;157.40741103039684;s_h;;;;;0;19;19;19;;;;;;;426.01048449997324;None;427.53515399992466;427.85185430001;429.00996389996726;429.0267585000256;433.37694159999955;None;9;0;0.5528664999874309;433.37694159999955;None;;;;;;;;9;;;;;;434.9268452000106;None;None;None;[];434.9268452000106;None;"['9', '9', '9', '9', '9']";434.9268452000106;None;"[0.2828375999815762, 0.6909311999334022, 1.02687890001107, 1.442895199987106, 2.9308190000010654]";;;S11179;2022_Jan_31_1707;VideoMask;2021.1.2;119.94074920968846;
8.0;f;028_y_f_s_a.jpg;sad;7.0;happy_122.3.wmv;happy;9.0;incongruent;130.0;150.0;171.8670540936116;s_h;;;;;0;20;20;20;;;;;;;437.9268059999449;None;439.5848606999498;439.90160630003083;441.0349918999709;441.05169859994203;443.034874200006;None;9;0;0.48664340004324913;443.034874200006;None;;;;;;;;9;;;;;;444.58489179995377;None;None;None;[];444.58489179995377;None;"['9', '9', '9', '9', '9']";444.58489179995377;None;"[0.36907380004413426, 0.7370351999998093, 1.081027700100094, 1.4491556000430137, 1.8886896000476554]";;;S11179;2022_Jan_31_1707;VideoMask;2021.1.2;119.94074920968846;
8.0;m;008_y_m_s_a.jpg;sad;7.0;sad_6.5ns.avi;sad;7.0;congruent;130.0;160.0;170.39333839271438;s_s;;;;;0;21;21;21;;;;;;;447.5847489000298;None;449.22622710000724;449.542918000021;450.709666699986;450.72631349996664;455.6762375999242;None;7;0;0.533664199989289;455.6762375999242;None;;;;;;;;3;;;;;;457.2344702000264;None;None;None;[];457.2344702000264;None;"['7', '7']";457.2344702000264;None;"[0.37534749996848404, 0.7673745999345556]";;;S11179;2022_Jan_31_1707;VideoMask;2021.1.2;119.94074920968846;
8.0;f;028_y_f_h_a.jpg;happy;9.0;happy_23.1ns.avi;happy;9.0;congruent;120.0;150.0;225.70986890587952;h_h;;;;;0;22;22;22;;;;;;;460.24273769999854;None;462.3425318999216;462.65926510002464;463.84231109998655;463.85914229997434;468.36737749993335;None;9;0;0.42650269996374846;468.36737749993335;None;;;;;;;;9;;;;;;469.91744059999473;None;None;None;[];469.91744059999473;None;"['9', '9', '9', '9']";469.91744059999473;None;"[0.3725639999611303, 0.7161379000172019, 1.0282541000051424, 1.3562454000348225]";;;S11179;2022_Jan_31_1707;VideoMask;2021.1.2;119.94074920968846;
8.0;m;008_y_m_h_a.jpg;happy;9.0;sad_111.1.wmv;sad;7.0;incongruent;120.0;160.0;152.63076835312847;h_s;;;;;0;23;23;23;;;;;;;472.9173449999653;None;474.40884879999794;474.72551559994463;475.89228769997135;475.90890459995717;477.8589692999376;None;7;0;0.398960700025782;477.8589692999376;None;;;;;;;;3;;;;;;479.4088072000304;None;None;None;[];479.4088072000304;None;"['7', '7']";479.4088072000304;None;"[0.6489465999184176, 1.3933588999789208]";;;S11179;2022_Jan_31_1707;VideoMask;2021.1.2;119.94074920968846;
0.0;f;040_y_f_s_a.jpg;sad;7.0;sad_67.2ns.avi;sad;7.0;congruent;130.0;160.0;220.9892697323079;s_s;;;;;0;24;24;24;;;;;;;482.408634899999;None;484.49198039993644;484.8085939999437;485.94199289998505;485.9585463999538;495.16653029993176;None;7;0;0.5233589999843389;495.16653029993176;None;;;;;;;;2;;;;;;496.7166382999858;None;None;None;[];496.7166382999858;None;"['7', '7', '7']";496.7166382999858;None;"[0.3411391000263393, 0.7252243000548333, 0.9731888000387698]";;;S11179;2022_Jan_31_1707;VideoMask;2021.1.2;119.94074920968846;
8.0;m;008_y_m_s_a.jpg;sad;7.0;happy_29.1ns.avi;happy;9.0;incongruent;130.0;150.0;120.0316142834122;s_h;;;;;0;25;25;25;;;;;;;499.71657009993214;None;500.93304669996724;501.24977839994244;502.42484919994604;502.4414692999562;505.07477960002143;None;9;0;0.42300719988998026;505.07477960002143;None;;;;;;;;7;;;;;;506.6330163999228;None;None;None;[];506.6330163999228;None;"['9', '9']";506.6330163999228;None;"[0.4808327999198809, 0.8330212999135256]";;;S11179;2022_Jan_31_1707;VideoMask;2021.1.2;119.94074920968846;
6.0;m;016_y_m_s_a.jpg;sad;7.0;sad_8.3ns.avi;sad;7.0;congruent;130.0;160.0;152.85371098242734;s_s;;;;;0;26;26;26;;;;;;;509.6413185999263;None;511.14105949993245;511.4577891000081;512.6160126000177;512.6326780000236;520.3492399000097;None;7;0;0.5887150999624282;520.3492399000097;None;;;;;;;;4;;;;;;521.899255999946;None;None;None;[];521.899255999946;None;['7'];521.899255999946;None;[0.4866972001036629];;;S11179;2022_Jan_31_1707;VideoMask;2021.1.2;119.94074920968846;
6.0;m;016_y_m_h_a.jpg;happy;9.0;sad_114.1.wmv;sad;7.0;incongruent;120.0;160.0;136.20550699298644;h_s;;;;;0;27;27;27;;;;;;;524.8991889000172;None;526.2572909999872;526.5740086999722;527.707392500015;527.7240423000185;529.7074412999209;None;7;0;0.6544239999493584;529.7074412999209;None;;;;;;;;2;;;;;;531.257260399987;None;None;None;[];531.257260399987;None;"['7', '7', '7', '7']";531.257260399987;None;"[0.3603941999608651, 0.7447382999816909, 1.1688278999645263, 1.7846445000031963]";;;S11179;2022_Jan_31_1707;VideoMask;2021.1.2;119.94074920968846;
7.0;m;027_o_m_s_a.jpg;sad;7.0;happy_117.3.wmv;happy;9.0;incongruent;130.0;150.0;215.61964028550614;s_h;;;;;0;28;28;28;;;;;;;534.2572572999634;None;536.2820593999932;536.5986390999751;537.7569932999322;537.7735999999568;539.7320288999472;None;None;0;;539.7320288999472;None;;;;;;;;6;;;;;;541.2817809999688;None;None;None;[];541.2817809999688;None;"['9', '9', '9']";541.2817809999688;None;"[1.760100799961947, 2.3281333999475464, 2.880238199955784]";;;S11179;2022_Jan_31_1707;VideoMask;2021.1.2;119.94074920968846;
6.0;m;016_y_m_h_a.jpg;happy;9.0;happy_9.2ns.avi;happy;9.0;congruent;120.0;150.0;130.52042428082717;h_h;;;;;0;29;29;29;;;;;;;544.2819582999218;None;545.6067825999344;545.9234001999721;547.0735351999756;547.0901580000063;552.9816085000057;None;9;0;0.5241828999714926;552.9816085000057;None;;;;;;;;8;;;;;;554.5315846999874;None;None;None;[];554.5315846999874;None;"['9', '9', '9']";554.5315846999874;None;"[0.278604399994947, 0.6302980000618845, 0.9181809000438079]";;;S11179;2022_Jan_31_1707;VideoMask;2021.1.2;119.94074920968846;
0.0;f;040_y_f_s_a.jpg;sad;7.0;happy_127.3.wmv;happy;9.0;incongruent;130.0;150.0;131.7195455720239;s_h;;;;;0;30;30;30;;;;;;;557.5315080999862;None;558.848026099964;559.1646981999511;560.2979923000094;560.3147167999996;562.3648457999807;None;9;0;0.5010664000874385;562.3648457999807;None;;;;;;;;7;;;;;;563.9145910999505;None;None;None;[];563.9145910999505;None;"['9', '9']";563.9145910999505;None;"[0.43132050009444356, 0.7673200001008809]";;;S11179;2022_Jan_31_1707;VideoMask;2021.1.2;119.94074920968846;
0.0;f;030_o_f_s_a.jpg;sad;7.0;happy_125.3.wmv;happy;9.0;incongruent;130.0;150.0;220.51454909128134;s_h;;;;;0;31;31;31;;;;;;;566.914645300014;None;568.9810364999576;569.2976659999695;570.431130599929;570.4477067999542;572.4401028000284;None;9;0;1.0978212000336498;572.4401028000284;None;;;;;;;;5;;;;;;574.1726771999383;None;None;None;[];574.1726771999383;None;"['7', '9']";574.1726771999383;None;"[0.43752999999560416, 2.1172493000049144]";;;S11179;2022_Jan_31_1707;VideoMask;2021.1.2;119.94074920968846;
0.0;f;030_o_f_s_a.jpg;sad;7.0;sad_64.3ns.avi;sad;7.0;congruent;130.0;160.0;165.78667874766072;s_s;;;;;0;32;32;32;;;;;;;577.1725861999439;None;578.7807554999599;579.0974640999921;580.2558393999934;580.2725116999354;585.230830400018;None;8;0;1.3951315999729559;585.230830400018;None;;;;;;;;3;;;;;;586.8139716000296;None;None;None;[];586.8139716000296;None;"['7', '7']";586.8139716000296;None;"[0.6278662999393418, 1.4280475999694318]";;;S11179;2022_Jan_31_1707;VideoMask;2021.1.2;119.94074920968846;
3.0;m;013_y_m_s_a.jpg;sad;7.0;sad_7.7ns.avi;sad;7.0;congruent;130.0;160.0;196.24182255763262;s_s;;;;;0;33;33;33;;;;;;;589.8139189999783;None;591.6636809000047;591.980412999983;593.1968422000064;593.2135994000128;599.1136124000186;None;7;0;0.6804599999450147;599.1136124000186;None;;;;;;;;2;;;;;;600.6635600000154;None;None;None;[];600.6635600000154;None;"['7', '7', '7', '7']";600.6635600000154;None;"[0.4985214000334963, 0.8660937999375165, 1.4185347999446094, 1.8424745999509469]";;;S11179;2022_Jan_31_1707;VideoMask;2021.1.2;119.94074920968846;
3.0;m;013_y_m_h_a.jpg;happy;9.0;happy_9.1ns.avi;happy;9.0;congruent;120.0;150.0;165.1890303600433;h_h;;;;;0;34;34;34;;;;;;;603.6634826000081;None;605.263300599996;605.5799393999623;606.746602899977;606.7631771999877;609.9383023999399;None;9;0;0.6076882999623194;609.9383023999399;None;;;;;;;;7;;;;;;611.4881852000253;None;None;None;[];611.4881852000253;None;"['9', '9']";611.4881852000253;None;"[0.30583019996993244, 0.7058643000200391]";;;S11179;2022_Jan_31_1707;VideoMask;2021.1.2;119.94074920968846;
4.0;m;004_o_m_h_a.jpg;happy;9.0;sad_95.1ns.avi;sad;7.0;incongruent;120.0;160.0;152.68270002069931;h_s;;;;;0;35;35;35;;;;;;;614.488082399941;None;616.0046503000194;616.321295499918;617.4547428999795;617.4720319999615;626.2462653999683;None;7;0;0.7157585000386462;626.2462653999683;None;;;;;;;;2;;;;;;627.8044112999924;None;None;None;[];627.8044112999924;None;"['7', '7', '7']";627.8044112999924;None;"[0.5734355000313371, 0.9254491999745369, 1.2293691000668332]";;;S11179;2022_Jan_31_1707;VideoMask;2021.1.2;119.94074920968846;
3.0;m;013_y_m_h_a.jpg;happy;9.0;sad_113.2.wmv;sad;7.0;incongruent;120.0;160.0;217.4973891947951;h_s;;;;;0;36;36;36;;;;;;;630.8042961999308;None;632.8541509999195;633.170924999984;634.2959845999721;634.3124980999855;636.3041547000175;None;None;0;;636.3041547000175;None;;;;;;;;4;;;;;;637.8539953000145;None;None;None;[];637.8539953000145;None;['7'];637.8539953000145;None;[0.9481067999731749];;;S11179;2022_Jan_31_1707;VideoMask;2021.1.2;119.94074920968846;
4.0;m;004_o_m_h_a.jpg;happy;9.0;happy_25.1ns.avi;happy;9.0;congruent;120.0;150.0;216.63044503818386;h_h;;;;;0;37;37;37;;;;;;;640.8624695999315;None;642.8871958999662;643.2039577999385;644.3871999999974;644.4039046999533;648.0288014999824;None;9;0;0.453185599995777;648.0288014999824;None;;;;;;;;6;;;;;;649.5704287999542;None;None;None;[];649.5704287999542;None;['9'];649.5704287999542;None;[0.4236770001007244];;;S11179;2022_Jan_31_1707;VideoMask;2021.1.2;119.94074920968846;
4.0;m;004_o_m_s_a.jpg;sad;7.0;happy_131.2.wmv;happy;9.0;incongruent;130.0;150.0;181.38407540847405;s_h;;;;;0;38;38;38;;;;;;;652.5787423999282;None;654.3118063999573;654.6284801999573;655.770098799956;655.7952468999429;657.7618284999626;None;9;0;0.6162057000910863;657.7618284999626;None;;;;;;;;5;;;;;;659.3117958999937;None;None;None;[];659.3117958999937;None;None;659.3117958999937;None;;;;S11179;2022_Jan_31_1707;VideoMask;2021.1.2;119.94074920968846;
0.0;f;040_y_f_h_a.jpg;happy;9.0;happy_24.3ns.avi;happy;9.0;congruent;120.0;150.0;213.25460698950434;h_h;;;;;0;39;39;39;;;;;;;662.3282027000096;None;664.3114540999522;664.6281459999736;665.7948367999634;665.8116236999631;667.6865941999713;None;9;0;0.5794353999663144;667.6865941999713;None;;;;;;;;6;;;;;;669.2364841999952;None;None;None;[];669.2364841999952;None;['9'];669.2364841999952;None;[0.8377167000435293];;;S11179;2022_Jan_31_1707;VideoMask;2021.1.2;119.94074920968846;
2.0;f;012_o_f_s_a.jpg;sad;7.0;happy_139.1.wmv;happy;9.0;incongruent;130.0;150.0;162.31500468041804;s_h;;;;;0;40;40;40;;;;;;;672.24481189996;None;673.8196103000082;674.1363456000108;675.2779876999557;675.29446679994;677.2696639000205;None;9;0;0.41258230002131313;677.2696639000205;None;;;;;;;;7;;;;;;678.8193635999924;None;None;None;[];678.8193635999924;None;"['9', '9']";678.8193635999924;None;"[0.4309963999548927, 0.7904932999517769]";;;S11179;2022_Jan_31_1707;VideoMask;2021.1.2;119.94074920968846;
0.0;f;030_o_f_h_a.jpg;happy;9.0;happy_24.1ns.avi;happy;9.0;congruent;120.0;150.0;168.36256624020774;h_h;;;;;0;41;41;41;;;;;;;681.8277847999707;None;683.4443663000129;683.7610980999889;684.9364277999848;684.9614635999314;688.2194110000273;None;9;0;0.5107857999391854;688.2194110000273;None;;;;;;;;6;;;;;;690.0440111999633;None;None;None;[];690.0440111999633;None;['9'];690.0440111999633;None;[0.3981307001085952];;;S11179;2022_Jan_31_1707;VideoMask;2021.1.2;119.94074920968846;
2.0;f;012_o_f_h_a.jpg;happy;9.0;sad_113.1.wmv;sad;7.0;incongruent;120.0;160.0;177.44551734737394;h_s;;;;;0;42;42;42;;;;;;;693.0526131999213;None;694.7522042000201;695.0689977000002;696.2022300999379;696.2189969000174;698.2112197999377;None;None;0;;698.2112197999377;None;;;;;;;;3;;;;;;699.9522600999335;None;None;None;[];699.9522600999335;None;"['7', '7']";699.9522600999335;None;"[1.0497390000382438, 1.5697157999966294]";;;S11179;2022_Jan_31_1707;VideoMask;2021.1.2;119.94074920968846;
3.0;m;033_o_m_s_a.jpg;sad;7.0;sad_64.5ns.avi;sad;7.0;congruent;130.0;160.0;130.55717223801247;s_s;;;;;0;43;43;43;;;;;;;702.9522365999874;None;704.2687816999387;704.5854736999609;705.7521633999422;705.7687131999992;712.3102780999616;None;7;0;0.49157569999806583;712.3102780999616;None;;;;;;;;1;;;;;;713.8602347000269;None;None;None;[];713.8602347000269;None;"['7', '7', '7', '7', '7', '7']";713.8602347000269;None;"[0.3498602999607101, 0.7579778999788687, 1.0778510000091046, 1.5577683999435976, 1.8778287000022829, 2.25393579993397]";;;S11179;2022_Jan_31_1707;VideoMask;2021.1.2;119.94074920968846;
7.0;m;027_o_m_h_a.jpg;happy;9.0;sad_117.1.wmv;sad;7.0;incongruent;120.0;160.0;181.28665202824095;h_s;;;;;0;44;44;44;;;;;;;716.8601954999613;None;718.5932774000103;718.9098934999201;720.0437251999974;720.0684335000115;722.05232170003;None;7;0;0.6617585000349209;722.05232170003;None;;;;;;;;2;;;;;;723.6098216000246;None;None;None;[];723.6098216000246;None;"['7', '7', '7']";723.6098216000246;None;"[0.46445830003358424, 0.8002092000097036, 1.0721481000073254]";;;S11179;2022_Jan_31_1707;VideoMask;2021.1.2;119.94074920968846;
3.0;m;033_o_m_s_a.jpg;sad;7.0;happy_126.3.wmv;happy;9.0;incongruent;130.0;150.0;198.85252030535366;s_h;;;;;0;45;45;45;;;;;;;726.60981179995;None;728.4845445000101;728.8013538999949;729.9514037999325;729.9681141999317;731.9346849999856;None;9;0;0.5475817000260577;731.9346849999856;None;;;;;;;;5;;;;;;733.4846068000188;None;None;None;[];733.4846068000188;None;"['9', '7']";733.4846068000188;None;"[0.5176561999833211, 2.125318399979733]";;;S11179;2022_Jan_31_1707;VideoMask;2021.1.2;119.94074920968846;
3.0;m;033_o_m_h_a.jpg;happy;9.0;sad_136.1.wmv;sad;7.0;incongruent;120.0;160.0;176.97002883463455;h_s;;;;;0;46;46;46;;;;;;;736.4929847000167;None;738.1843078000238;738.50111870002;739.626149400021;739.6426788999233;741.6343750000233;None;7;0;1.039829200017266;741.6343750000233;None;;;;;;;;3;;;;;;743.1843452999601;None;None;None;[];743.1843452999601;None;"['7', '7']";743.1843452999601;None;"[0.7298937001032755, 1.3777934000827372]";;;S11179;2022_Jan_31_1707;VideoMask;2021.1.2;119.94074920968846;
9.0;f;019_m_f_h_a.jpg;happy;9.0;happy_10.1ns.avi;happy;9.0;congruent;120.0;150.0;157.2463435658512;h_h;;;;;0;47;47;47;;;;;;;746.192729900009;None;747.7425540999975;748.0591118999291;749.200861099991;749.2174535000231;756.6422468000092;None;9;0;0.4957325999857858;756.6422468000092;None;;;;;;;;5;;;;;;758.1922196999658;None;None;None;[];758.1922196999658;None;"['7', '9']";758.1922196999658;None;"[0.46598109998740256, 1.6099873000057414]";;;S11179;2022_Jan_31_1707;VideoMask;2021.1.2;119.94074920968846;
2.0;f;012_o_f_h_a.jpg;happy;9.0;happy_2.2ns.avi;happy;9.0;congruent;120.0;150.0;206.34800317295262;h_h;;;;;0;48;48;48;;;;;;;761.1923163000029;None;763.1669300999492;763.483724599937;764.617069000029;764.633668800001;776.8167021999834;None;9;0;0.5294900999870151;776.8167021999834;None;;;;;;;;6;;;;;;778.3749248000095;None;None;None;[];778.3749248000095;None;['9'];778.3749248000095;None;[1.2671903000446036];;;S11179;2022_Jan_31_1707;VideoMask;2021.1.2;119.94074920968846;
3.0;m;033_o_m_h_a.jpg;happy;9.0;happy_24.2ns.avi;happy;9.0;congruent;120.0;150.0;167.9423847659953;h_h;;;;;0;49;49;49;;;;;;;781.3748754999833;None;782.9913813000312;783.3080091000302;784.4915181000251;784.5082628999371;788.1664835999254;None;9;0;0.731721599935554;788.1664835999254;None;;;;;;;;5;;;;;;789.7163302999688;None;None;None;[];789.7163302999688;None;None;789.7163302999688;None;;;;S11179;2022_Jan_31_1707;VideoMask;2021.1.2;119.94074920968846;
1.0;f;021_o_f_s_a.jpg;sad;7.0;happy_61.2ns.avi;happy;9.0;incongruent;130.0;150.0;210.94664004826666;s_h;;;;;0;50;50;50;;;;;;;792.7327259000158;None;794.6994766999269;795.0160569000291;796.1575676000211;796.174489099998;800.6742720999755;None;9;0;0.5358643000945449;800.6742720999755;None;;;;;;;;6;;;;;;802.2159158999566;None;None;None;[];802.2159158999566;None;['9'];802.2159158999566;None;[0.30625100003089756];;;S11179;2022_Jan_31_1707;VideoMask;2021.1.2;119.94074920968846;
4.0;m;004_o_m_s_a.jpg;sad;7.0;sad_2.4ns.avi;sad;7.0;congruent;130.0;160.0;153.02079367163634;s_s;;;;;0;51;51;51;;;;;;;805.2159048999893;None;806.724081399967;807.0407642999198;808.1989265999291;808.2157153999433;816.1321951999562;None;7;0;0.526106100063771;816.1321951999562;None;;;;;;;;2;;;;;;817.6821311999811;None;None;None;[];817.6821311999811;None;"['7', '7', '7']";817.6821311999811;None;"[0.39994899998418987, 0.7999867000617087, 1.60818790004123]";;;S11179;2022_Jan_31_1707;VideoMask;2021.1.2;119.94074920968846;
8.0;m;008_y_m_h_a.jpg;happy;9.0;happy_1.2ns.avi;happy;9.0;congruent;120.0;150.0;210.98946429383824;h_h;;;;;0;52;52;52;;;;;;;820.69045679993;None;822.6984935000073;823.0152173999231;824.1736665000208;824.190255500027;836.939940399956;None;9;0;0.7580390999792144;836.939940399956;None;;;;;;;;6;;;;;;838.4898402999388;None;None;None;[];838.4898402999388;None;['9'];838.4898402999388;None;[0.4242061999393627];;;S11179;2022_Jan_31_1707;VideoMask;2021.1.2;119.94074920968846;
2.0;f;012_o_f_s_a.jpg;sad;7.0;happy_52.2ns.avi;happy;9.0;incongruent;130.0;150.0;172.57202848318138;s_h;;;;;0;53;53;53;;;;;;;841.4897545999847;None;843.1395834999857;843.4562498999294;844.6396544999443;844.6562681000214;848.1564091999317;None;9;0;0.6538309999741614;848.1564091999317;None;;;;;;;;5;;;;;;849.7144956999691;None;None;None;[];849.7144956999691;None;None;849.7144956999691;None;;;;S11179;2022_Jan_31_1707;VideoMask;2021.1.2;119.94074920968846;
9.0;f;019_m_f_s_a.jpg;sad;7.0;happy_61.1ns.avi;happy;9.0;incongruent;130.0;150.0;181.3003220572762;s_h;;;;;0;54;54;54;;;;;;;852.7309349999996;None;854.4809607999632;854.797591199982;856.0063883999828;856.0309614000143;863.3226214000024;None;9;0;0.5917066000401974;863.3226214000024;None;;;;;;;;5;;;;;;864.8978453000309;None;None;None;[];864.8978453000309;None;None;864.8978453000309;None;;;;S11179;2022_Jan_31_1707;VideoMask;2021.1.2;119.94074920968846;
0.0;f;030_o_f_h_a.jpg;happy;9.0;sad_133.1.wmv;sad;7.0;incongruent;120.0;160.0;198.86251500867985;h_s;;;;;0;55;55;55;;;;;;;867.9138217000291;None;869.7971074000234;870.113831799943;871.2388291999232;871.2555366000161;873.255655099987;None;7;0;0.5465695000020787;873.255655099987;None;;;;;;;;3;;;;;;874.8137433999218;None;None;None;[];874.8137433999218;None;"['7', '7', '7', '7']";874.8137433999218;None;"[0.2765658999560401, 0.6924576999153942, 1.0765905999578536, 1.5724769999505952]";;;S11179;2022_Jan_31_1707;VideoMask;2021.1.2;119.94074920968846;
0.0;f;040_y_f_h_a.jpg;happy;9.0;sad_128.2.wmv;sad;7.0;incongruent;120.0;160.0;206.10005857915363;h_s;;;;;0;56;56;56;;;;;;;877.81377290003;None;879.7551437999355;880.0718497999478;881.2050383000169;881.2302320000017;883.2051662999438;None;7;0;0.5252360999584198;883.2051662999438;None;;;;;;;;3;;;;;;884.7716073000338;None;None;None;[];884.7716073000338;None;"['7', '7', '7', '7']";884.7716073000338;None;"[0.3027683000545949, 0.7184673000592738, 1.1987982999999076, 1.8947057999903336]";;;S11179;2022_Jan_31_1707;VideoMask;2021.1.2;119.94074920968846;
1.0;f;021_o_f_s_a.jpg;sad;7.0;sad_9.5ns.avi;sad;7.0;congruent;130.0;160.0;206.16642757875042;s_s;;;;;0;57;57;57;;;;;;;887.7716844999231;None;889.7131467999425;890.0298828999512;891.2381963999942;891.2549106000224;896.8880068999715;None;7;0;1.0664248000830412;896.8880068999715;None;;;;;;;;3;;;;;;898.4380342999939;None;None;None;[];898.4380342999939;None;"['7', '7']";898.4380342999939;None;"[0.5084161000559106, 0.9880638000322506]";;;S11179;2022_Jan_31_1707;VideoMask;2021.1.2;119.94074920968846;
1.0;f;021_o_f_h_a.jpg;happy;9.0;happy_12.1ns.avi;happy;9.0;congruent;120.0;150.0;132.59080005900228;h_h;;;;;0;58;58;58;;;;;;;901.4379295000108;None;902.7877827999182;903.1130726999836;904.2460752000334;904.2626897000009;911.8544438999379;None;9;0;0.35593119997065514;911.8544438999379;None;;;;;;;;7;;;;;;913.4043411000166;None;None;None;[];913.4043411000166;None;"['9', '9', '9']";913.4043411000166;None;"[0.20572520000860095, 1.2938923999899998, 1.7578101999824867]";;;S11179;2022_Jan_31_1707;VideoMask;2021.1.2;119.94074920968846;
3.0;m;013_y_m_s_a.jpg;sad;7.0;happy_56.2ns.avi;happy;9.0;incongruent;130.0;150.0;163.39234110935848;s_h;;;;;0;59;59;59;;;;;;;916.4042705999454;None;917.9956842999673;918.3123949000146;919.5538358999183;919.5705615999177;924.4788327999413;None;9;0;0.5074547999538481;924.4788327999413;None;;;;;;;;7;;;;;;926.0288409999339;None;None;None;[];926.0288409999339;None;"['9', '9', '9']";926.0288409999339;None;"[0.4693799999076873, 1.0855673999758437, 1.4774259999394417]";;;S11179;2022_Jan_31_1707;VideoMask;2021.1.2;119.94074920968846;
;;;;;;;;;;;;;;;;;;;;;;;;;;;;;;;;;;;;;;;;;;;;;;;;;;;;;;;;;;;;;;;;929.0288668000139;None;;;;;;
